time,ax,ay,az,gx,gy,gz,la_x,la_y,la_z,fox,foy,foz
1570714882,0.8817444,6.3413544,8.10936,-0.32855225,0.04574585,0.35430908,-0.027466893,0.10628271,-0.09105778
1570714882,0.8422394,6.226425,8.575027,-0.36157227,0.159729,0.31596375,-0.08250892,-0.025735378,0.31467056
1570714882,0.29156494,6.020523,8.552277,-0.2891388,0.40473938,0.35430908,-0.60540754,-0.044553757,0.20359898
1570714882,0.060531616,5.952286,8.518753,-0.19325256,0.18849182,0.46403503,-0.8762612,-0.048552036,0.167593
1570714882,0.1946106,5.7858887,7.8208466,-0.1250763,0.051071167,0.51942444,-0.8156688,-0.15710211,-0.48591042
1570714882,0.29875183,5.545273,7.6197357,-0.27209473,0.16186523,0.6142273,-0.7666931,-0.32615805,-0.79668903
1570714882,0.2736206,5.03891,7.3013153,-0.25930786,0.29501343,0.7186279,-0.81975603,-0.72788143,-1.1505604
1570714882,-0.6361847,4.3745117,7.1325226,0.037902832,0.0031280518,1.0722961,-1.8419888,-1.3038831,-1.3181515
1570714882,0.25924683,3.9818726,6.8727417,0.2743988,-0.6903534,1.7221069,-1.3750206,-1.6975799,-1.6336851
1570714882,1.4958496,3.766388,6.797333,0.43737793,-0.49861145,1.8776398,-0.5455098,-1.9583435,-1.6730766
1570714882,1.3976898,3.9351807,6.3687744,0.4512329,-0.50180054,1.8307648,-1.006088,-1.8883429,-1.7697554
1570714882,2.3553772,4.0740356,6.0180206,-0.58421326,0.7360382,1.7519379,-0.29438782,-1.568821,-2.4219685
1570714882,2.343399,3.960312,8.847961,-0.80792236,-0.10446167,1.6869507,-0.57753325,-1.1030145,0.48536015
1570714882,2.86055,4.1159363,6.842819,-0.8643799,-0.6147156,1.7359467,-0.4468925,-0.65326595,-1.5348177
1570714882,3.4986115,3.541336,9.797272,-1.2148438,-0.82670593,1.5186462,0.23565507,-0.7328353,0.7305689
1570714882,2.3865051,2.4675293,8.997604,-0.5724945,-1.1825104,2.091751,-1.7753453,-1.4191525,0.6215048
1570714882,3.09758,2.9774933,6.830841,-0.39779663,-1.319931,3.047287,-1.6795578,-0.24594283,-1.4304371
1570714882,3.2196808,1.0310059,6.7578278,-0.14744568,-1.4914398,3.2251892,-2.173605,-1.8483071,-1.4469061
1570714882,5.126663,1.8246918,5.2075806,-0.28700256,-1.9207306,3.061142,-0.90117216,-0.41906285,-2.620285
1570714882,5.7204285,0.51745605,7.0930176,-1.0028534,-1.2133942,3.137848,-0.83579254,-0.9316665,-0.7128129
1570714882,8.002106,0.35464478,10.234207,-0.5394745,-1.6096802,3.1847076,0.871336,-0.32769173,2.8023596
1570714882,10.180817,0.68743896,9.620087,-0.22415161,-1.4328461,2.6861725,2.8099666,0.6969196,2.6241922
1570714883,13.636856,1.2740173,9.144852,-0.28167725,-0.17796326,2.1290436,5.9447417,1.7475986,2.209598
1570714883,11.758606,1.2500763,8.103363,-0.57995605,0.85321045,0.4299469,4.566605,2.4062054,1.3051157
1570714883,5.62825,-0.5312042,12.827133,-0.81111145,2.9816132,0.38519287,-0.9636264,0.42934585,5.134685
1570714883,5.718033,-1.6038055,12.31955,0.9231415,-0.38249207,1.2885437,-0.95892096,-0.31352544,4.9639235
1570714883,7.386795,0.9532013,6.669235,1.0520325,-2.213684,1.5388794,0.08472967,2.1206224,-0.3961048
1570714883,9.582275,0.8945465,4.9071045,0.27119446,-1.2144623,0.99453735,2.2035923,2.4069045,-2.096109
1570714883,6.95224,0.041015625,7.2618103,-0.8270874,0.82125854,0.6600342,-0.07122612,1.7327694,-0.82855225
1570714883,6.631424,-1.9318085,8.994003,-0.38713074,0.80740356,0.78466797,-0.32533503,0.16506922,1.8355508
1570714883,5.2691193,-1.3631897,7.770569,-0.13253784,0.77012634,0.54393005,-1.4916759,0.78549004,0.35899448
1570714883,4.2886963,-1.2231293,7.3013153,0.14974976,-0.22483826,0.6184845,-2.1347508,0.9826648,-0.11174393
1570714883,4.2444,-2.09581,5.888733,0.2818451,-0.7841034,0.6856079,-2.3882031,0.1167953,-1.4431806
1570714883,4.2444,-2.09581,5.888733,0.2818451,-0.7841034,0.6856079,-2.3882031,0.1167953,-1.4431806
1570714883,4.5436707,-2.4657135,8.116531,0.09010315,-1.6352386,1.5910797,-2.5234904,0.3200655,1.0598989
1570714883,4.6849365,-2.9709015,7.7023315,0.8911743,-2.1284637,2.138626,-2.8389502,0.1675973,1.5213704
1570714883,4.311432,-3.550293,8.115341,1.2437897,-2.4107513,2.5285034,-3.1410112,-0.08697295,2.0382175
1570714883,4.4072113,-3.8328094,6.7267,1.8669586,-2.51622,3.1037598,-3.2171383,0.049085617,1.5970869
1570714883,6.0963135,-4.1500397,5.8312683,1.8243561,-2.5300598,3.5437012,-1.7060232,0.1374464,0.63166285
1570714883,6.3728485,-3.4389648,5.22554,1.7231445,-2.375595,3.636383,-1.1178055,1.3527279,0.34315157
1570714883,6.225601,-4.333191,3.4119263,1.1915894,-2.658966,3.4723358,-1.1467671,1.7871432,-1.4105945
1570714883,10.962524,-5.095749,0.08279419,0.6216736,-3.566574,3.2305145,3.5218143,0.50860786,-3.3806396
1570714883,13.095764,-6.383835,2.2890472,-0.010040283,-3.280014,2.741562,4.2680044,1.5668683,-1.2065268
1570714883,8.632965,-7.061386,1.7323914,-0.3945923,-2.0549622,2.4251862,2.0628781,0.2739067,-0.8005736
1570714883,4.516144,-5.403412,2.1465912,-0.33599854,-1.7705383,3.1538239,-1.4081497,1.854528,-0.20596766
1570714883,4.786682,-4.8994293,-0.39604187,-0.10270691,-1.4307098,3.536255,-0.9682832,3.243616,-2.436699
1570714883,3.7140808,-5.43573,2.2555237,-0.47769165,0.22257996,3.540512,-0.6497469,3.3083477,0.32792425
1570714883,3.4782562,-3.826828,4.5862885,-0.19113159,-0.1619873,2.7074738,-0.49703574,5.4405766,2.5828037
1570714883,1.7508392,-9.666275,-3.5994873,0.73991394,-0.90660095,1.54953,-2.0692854,1.5753899,-3.3546388
1570714883,5.770706,-8.775635,5.193222,0.7292633,-0.4208374,0.34898376,1.8951371,2.008937,3.55858
1570714883,3.7523956,-10.668259,4.8795776,0.47679138,-0.6157837,-1.4396057,0.9812515,-1.2868614,2.8525026
1570714883,6.8504944,-2.0934143,4.446228,0.407547,-1.2240448,-1.7442627,3.603604,5.4511204,2.126916
1570714883,-1.6573029,-5.8607025,-5.4071198,0.24136353,-1.6150055,-0.7003021,-5.3673334,3.9190998,-6.2910175
1570714883,0.13595581,-8.664307,2.9295044,-0.0025787354,0.7157898,1.1191711,-3.1133666,1.6555605,0.63141406
1570714883,1.6347198,-12.212509,2.4865723,0.02192688,0.13415527,2.0853577,-2.0379946,-2.9216127,0.80633545
1570714884,4.4993744,-14.8186035,2.205246,0.28398132,-0.61364746,1.5910797,1.147469,-5.9887295,0.22561193
1570714884,5.5001526,-12.014999,1.2703094,0.14656067,-0.47517395,0.5023804,2.4896395,-3.0976791,-0.7140511
1570714884,2.0513153,-7.4384766,2.7762604,-0.10910034,-0.068237305,-0.14424133,-0.6948111,2.0491028,0.7605237
1570714884,2.0692596,-6.8088074,2.5835419,-0.11975098,0.20767212,-0.18258667,-0.70676184,2.5491457,0.5619221
1570714884,1.5856323,-2.4537506,2.1597595,-0.014297485,0.26412964,0.10609436,-1.3577683,7.479224,0.23507452
1570714884,1.5257874,-3.0020142,2.6026917,0.3574829,0.25346375,0.40437317,-1.4361596,6.2674427,0.536762
1570714884,1.1762238,-2.360382,1.3110199,0.19876099,0.20767212,0.8592377,-0.8680868,6.85413,-0.7441678
1570714884,0.10122681,-1.5643005,2.387207,0.1337738,0.99702454,2.553009,-2.0284245,7.8720417,0.12564921
1570714884,-0.035232544,-5.865494,6.739868,1.0584259,-0.6637268,2.8374329,-1.4640182,3.232935,3.659972
1570714884,0.043777466,-4.7066956,0.9494934,2.6019897,-0.3388214,3.045166,-0.54663926,4.5648937,-2.2132766
1570714884,2.1949615,-34.480988,5.695999,1.614502,2.0889282,3.6715393,0.9389597,-11.146222,-1.247922
1570714884,-3.8372345,-6.0390625,-2.2371979,-0.9027252,0.7360382,-0.48298645,-3.5234668,-6.542286,-4.139618
1570714884,0.15031433,-8.2561035,1.1039124,0.50341797,0.6657257,0.4853363,0.3466375,3.4535904,-2.5382433
1570714884,1.1044006,-9.477142,3.3843994,0.25735474,0.18849182,0.4853363,2.0682592,-0.24478054,0.11549187
1570714884,-0.115448,-10.35701,2.0615997,0.18278503,-0.04586792,0.42034912,1.0470492,-1.160327,-1.3638401
1570714884,0.22094727,-9.292786,1.1003265,0.04748535,0.02017212,0.40330505,1.3838973,-0.083610535,-2.4527276
1570714884,0.4328308,-9.927246,1.3349609,-0.040924072,0.06492615,0.37242126,1.7062342,-0.73244,-2.2122629
1570714884,0.8350525,-11.273987,1.7312012,-0.42549133,-0.31217957,0.44059753,2.1032522,-1.9265795,-1.886689
1570714884,1.8621674,-11.770782,0.848938,-1.0135193,-0.43255615,0.40223694,3.7595217,-2.0816479,-2.32291
1570714884,-1.6644897,-9.631561,-0.368515,-1.2510681,-0.6690521,0.24990845,-0.021174192,-0.38908386,-3.2737339
1570714884,-5.859131,-7.6240234,-1.9833984,-1.7432251,-0.7276306,0.72395325,-3.5672393,1.7440262,-4.2336435
1570714884,-4.164032,-8.597275,-2.514923,-2.9011688,-0.42190552,1.3972015,-2.5079901,1.1543894,-4.390596
1570714884,0.45796204,-11.436798,1.7216187,-3.098236,0.14161682,0.72714233,2.5822434,-1.718914,0.70307195
1570714884,2.987442,-11.74205,2.2411652,-2.8063507,0.59968567,-0.0909729,5.1796947,-2.0291433,2.1753178
1570714884,1.0038452,-12.190964,4.0260468,-2.1000824,1.1397705,-0.81321716,3.3253143,-2.5138798,4.989856
1570714884,-0.86842346,-12.169418,0.25637817,-2.1192627,0.6827698,-0.85902405,0.7305783,-2.4070005,1.5578558
1570714884,1.9531403,-11.299133,1.1051178,-2.300354,-1.1249847,-1.0710144,3.3957543,-2.437276,3.2601595
1570714884,-2.1253815,-10.085266,0.5676117,-2.6614838,-1.8759918,-0.96235657,-0.5948138,-0.580143,3.08697
1570714884,-4.535141,-9.510666,1.4283295,-2.6177979,-2.4459076,-0.9378662,-3.2656188,-0.19714832,4.70005
1570714884,-2.45578,-7.875412,0.7424011,-2.6210022,-2.4118195,-0.6704712,-1.1429282,1.1979408,4.5295515
1570714884,-1.9709473,-6.7034607,1.1039124,-2.3621368,-2.3138123,-0.49258423,-0.50333834,2.061593,5.416291
1570714884,-2.6401215,-4.590576,1.6964874,-1.5674438,-1.9771881,-0.23371887,-1.0200125,3.7833433,6.179848
1570714884,-2.7646332,-3.230667,1.8868256,-0.61616516,-1.6725311,-0.3136139,-0.8902525,5.0717,6.7492886
1570714885,-2.036789,-2.1437073,1.6809235,0.39263916,-1.1558685,-0.39883423,-0.067961454,6.164073,6.40526
1570714885,-1.4729614,-1.8324585,0.596344,1.311966,-0.35159302,-0.3658142,0.5387261,6.581998,5.093684
1570714885,-1.447815,-3.352768,-1.1023407,2.0704346,0.5070038,-0.5096283,0.4498955,5.364332,2.9695005
1570714885,-3.1141815,-7.2289886,-7.540344,2.190796,0.5964813,-0.6353302,-1.3119078,1.8875542,-3.8496497
1570714885,-5.1899567,-19.01564,-17.296722,0.9018402,-0.65519714,-0.052627563,-3.582244,-9.235955,-13.639335
1570714885,-3.3679657,-18.043594,-9.837585,-0.30723572,-0.45812988,0.3404541,-1.62524,-9.558616,-7.3422513
1570714885,-0.55596924,-4.5295258,-4.1884613,-0.42549133,-1.0472107,-0.20709229,1.104243,4.174531,-1.1952407
1570714885,-1.8440552,-1.4661407,1.1673584,0.35429382,-1.3881073,-0.60124207,0.19190776,7.8140545,4.119617
1570714885,-6.4098053,-13.989014,2.4398804,1.807312,-0.39207458,-0.014282227,-4.831075,-4.276676,5.2114487
1570714885,-2.3779602,-17.872406,-5.2443085,1.8669586,1.3592224,0.15296936,-0.61332476,-8.556744,-2.7564065
1570714885,-0.08073425,-10.042175,-6.31691,-0.53733826,-0.4357605,-0.1889801,1.7287369,-1.3465796,-4.638117
1570714885,-0.491333,0.5713196,9.428558,0.3383026,1.1205902,-0.50642395,1.3041215,9.852668,11.221703
1570714885,-2.3743744,-1.2805939,9.253784,1.7476501,0.4420166,-0.04623413,-0.8609475,8.6963415,11.293915
1570714885,1.204956,-14.117096,-1.8289795,2.348465,1.4945068,0.339386,1.0743536,-2.8480387,1.6887575
1570714885,6.0975037,-14.360107,1.3373566,1.1894531,1.7490997,-0.14317322,7.936996,-5.1434507,1.7684865
1570714885,-2.515625,-7.8203583,3.7100067,0.8016968,-1.0408325,-0.4212036,-0.93027425,1.7108746,4.2400637
1570714885,-4.4417725,-5.7984467,-0.759964,1.3258057,-0.12576294,-0.38604736,-3.2658582,3.8307705,-0.6398077
1570714885,-1.5028839,-7.9089355,2.2914429,1.523941,1.3517609,-0.25183105,-0.46757734,1.8090982,1.7890389
1570714885,0.21376038,-9.872177,0.04208374,1.1575012,0.9629364,-0.26141357,1.3715951,-0.3363142,-0.34782678
1570714885,1.3246765,-9.326309,1.5743713,0.92100525,0.92671204,-0.27526855,2.437169,0.12600899,0.7630708
1570714885,0.23291016,-7.6838837,1.2679138,1.0051575,0.93203735,-0.33491516,1.4545531,1.8792,-0.15964115
1570714885,-0.97377014,-8.278839,0.809433,1.0296631,0.64974976,-0.1932373,-0.06327385,1.2045135,-0.4602177
1570714885,-1.4885101,-8.186661,1.5229034,0.9753418,0.3173828,-0.011077881,-0.68129796,1.2606125,-0.18966007
1570714885,-0.43147278,-8.350662,2.2902374,1.0488434,-0.037353516,0.14338684,0.3950134,1.0636196,0.28517425
1570714885,0.5381775,-9.552551,1.4295349,1.2171478,0.023376465,0.15296936,1.415209,-0.16582012,-0.91725683
1570714885,0.086868286,-9.758453,-1.404007,1.3545685,-0.0011291504,0.08479309,1.3033898,-0.42785358,-3.741491
1570714885,-1.4418335,-9.964355,-1.8026428,0.91993713,0.60287476,0.21156311,-0.31498194,-0.8978014,-5.0488033
1570714885,-0.041229248,-11.057312,0.44551086,0.45228577,0.3323059,0.44485474,0.90748394,-1.8898468,-2.9265003
1570714885,4.103134,-13.741211,0.07800293,-0.22201538,0.48995972,0.32234192,5.394539,-4.620511,-3.1734042
1570714885,2.2584076,-12.979858,0.28749084,-0.2507782,1.2878418,-0.27738953,4.0651307,-4.126837,-2.5807862
1570714885,-0.19445801,-11.681,-0.3828888,-0.83454895,0.08302307,-0.1101532,1.4063231,-2.498498,-2.975367
1570714885,-3.405075,-11.251236,-2.6418152,-1.7549438,-0.93110657,-0.061141968,-1.6013527,-2.3924484,-4.380143
1570714885,-5.9165955,-7.23497,-4.467392,-2.7403107,-0.28341675,0.16362,-4.5887127,2.0549288,-6.237373
1570714885,-4.120941,-8.218994,0.33059692,-3.4732056,0.2662506,0.58013916,-2.8253977,1.4885721,-0.48459935
1570714886,-2.3312836,-13.869308,2.1980743,-3.2260742,1.0311127,0.35643005,-0.7989328,-4.095994,2.4020302
1570714886,0.82069397,-14.188934,4.437851,-2.585846,1.2676086,-0.23265076,2.1555066,-5.0032625,5.3544927
1570714886,-0.2674713,-11.154282,1.5468445,-2.363205,0.6657257,-0.5937805,1.6793282,-1.9158611,3.7307131
1570714886,-1.6130219,-11.084839,2.5990906,-2.6763916,-0.6722412,-0.47979736,-0.31528008,-1.8059063,4.824334
1570714886,0.39930725,-11.494247,-1.4758301,-2.9949036,-1.6341705,-0.3881836,1.8383187,-2.5340548,1.9063118
1570714886,-1.550766,-7.8646393,1.7910614,-2.7424316,-1.3955536,-0.46914673,-0.053687572,0.6974354,5.336567
1570714886,-2.2929688,-5.739792,2.4590302,-2.4644012,-2.3052979,-0.35728455,-0.9195759,2.6353188,6.910876
1570714886,-2.5491486,-4.036316,2.979782,-1.7187195,-2.2797241,-0.32852173,-0.88060665,3.8845406,7.7159553
1570714886,-1.784195,-2.6189423,3.2191925,-0.58847046,-1.8695984,-0.32533264,0.016455173,5.176333,8.143858
1570714886,-0.8708191,-0.6832428,2.4913635,0.62060547,-1.1526794,-0.5916443,1.1901429,7.0239434,7.434056
1570714886,-1.4107056,-0.4809265,1.4714355,1.9287415,0.11178589,-0.7450409,0.69024396,7.710718,5.9931955
1570714886,-1.4633789,-1.4924774,0.024139404,3.0121155,0.67744446,-0.8334656,0.25138175,7.203861,4.0996923
1570714886,-2.9070892,-8.677475,-9.723862,3.6438293,0.8659973,-0.90164185,-0.8819947,1.6056194,-4.714943
1570714886,-7.4429016,-38.427826,-17.197357,-0.2784729,-0.90553284,0.62275696,-8.926862,-26.400349,-17.656681
1570714886,-1.9984894,-7.325943,-7.460144,-1.1360168,-1.8546906,0.1401825,-0.76293385,-0.07575035,-5.9822145
1570714886,0.16348267,0.6575165,-3.6545563,-0.7493286,-1.3966217,-0.6960449,1.7350177,9.159001,-0.6994803
1570714886,-14.363342,-15.909164,5.221939,1.5175629,0.95228577,0.015548706,-11.715759,-4.424988,8.942595
1570714886,0.6938019,-19.944595,-8.11615,-1.0966034,0.29927063,1.2331543,-0.17556977,-11.243961,-9.897997
1570714886,3.7116852,-1.5247955,13.677063,-0.20071411,-0.15985107,-0.043045044,6.9433966,6.29535,18.185553
1570714886,-1.5603485,0.08052063,3.3113708,2.541275,-0.459198,-0.49577332,0.046470165,9.735006,7.10738
1570714886,0.3143158,-9.987106,3.0252686,2.349533,2.755783,0.5545807,2.0415096,1.0945568,3.9938421
1570714886,1.7687988,-18.402725,0.848938,1.920227,2.4500427,0.7303467,3.4071596,-8.015401,4.559602
1570714886,-0.1262207,-9.4938965,0.02532959,0.99557495,-1.0781097,-0.6896515,2.4054856,-0.7449398,0.61526036
1570714886,-4.4345856,-5.1843414,0.23841858,1.5793457,-0.3100586,-0.63212585,-2.5583029,3.8976784,1.3357818
1570714886,-4.092209,-7.542618,1.0452576,1.9681549,2.0910492,-0.78019714,-2.568787,1.3364506,0.51205635
1570714886,-1.3340912,-8.447632,1.0799713,1.5175629,1.7437744,-0.021728516,-0.59313023,1.3509045,0.6450106
1570714886,3.1035614,-9.423264,2.2555237,1.0957184,0.8883667,0.030471802,3.7868552,0.035562515,1.084279
1570714886,3.8361816,-9.151535,1.3840332,1.0871887,0.49742126,-0.36367798,5.223404,0.13681507,0.9982908
1570714886,-1.392746,-8.416504,-0.9275665,1.331131,1.2335205,-0.537323,0.4384035,0.63524723,-1.7672055
1570714886,-4.160446,-7.1296234,2.2016602,1.1266022,0.5346985,-0.08139038,-3.2103705,2.1017818,0.85814667
1570714886,-1.4633789,-8.278839,2.2890472,1.0062256,-0.19075012,0.2626953,-0.87392676,1.1428127,1.2486758
1570714886,0.7835846,-8.426086,0.13186646,1.1755981,-0.12150574,0.25097656,1.5643725,0.67744255,-1.5556831
1570714886,0.6830292,-9.850632,0.8213959,1.2341919,0.48249817,0.20303345,1.8427671,-0.78588104,-1.1816754
1570714887,-0.77983093,-10.024216,-2.1019135,0.96894836,0.31845093,0.13378906,0.67971563,-1.1332293,-4.052197
1570714887,-0.12142944,-9.720154,0.12588501,0.36706543,0.38449097,0.36175537,0.45586908,-0.31127262,-3.2814782
1570714887,3.1251068,-13.576019,-0.09197998,-0.22521973,0.2566681,0.116744995,4.456702,-4.682169,-2.0546584
1570714887,-0.922287,-9.283203,-1.5105438,-0.11656189,1.4039612,-0.17193604,1.0292832,-0.97836494,-4.36014
1570714887,-0.38719177,-11.730087,-0.27275085,-0.4467926,0.6156616,0.27120972,0.541728,-2.1378775,-3.3910482
1570714887,3.3250275,-14.039291,-1.2471924,-1.3820953,-0.82244873,0.419281,4.9799585,-4.9693213,-3.1933062
1570714887,-2.9669342,-10.590439,-4.345291,-2.2449646,-0.5944824,-0.1378479,0.3931538,-2.526578,-6.303408
1570714887,-7.448883,-6.2054596,0.42515564,-3.5158234,-0.3665161,0.3095703,-6.073005,2.9845295,-1.6438893
1570714887,-3.4888763,-10.49588,0.714859,-3.3080902,0.2811737,0.5577698,-2.392346,-0.22523308,0.43155712
1570714887,-0.2566986,-14.243988,3.3388977,-2.7275238,1.3368378,0.11141968,0.727811,-4.9644823,3.4140413
1570714887,1.3689575,-11.989853,3.6609192,-2.3046112,0.87771606,-0.49363708,3.1312299,-2.9102917,5.1224675
1570714887,-1.8117371,-10.096039,1.501358,-2.3110046,0.2651825,-0.75675964,0.11340201,-1.1635313,3.7783864
1570714887,-1.5028839,-10.193008,1.7299957,-2.4984894,-0.9641266,-0.5969696,-0.2939546,-1.092598,4.457923
1570714887,0.38134766,-10.227722,-0.00579834,-2.622055,-1.671463,-0.7322693,1.7991115,-1.6217031,3.169285
1570714887,-1.7614594,-7.3235626,1.319397,-2.2513428,-1.7225952,-0.80044556,-0.43977082,1.2135744,5.283823
1570714887,-2.0343933,-6.2198334,2.0639954,-1.8976898,-2.037918,-0.7386627,-0.7160026,2.0958805,6.297144
1570714887,-2.8304749,-4.1260986,3.3377075,-1.0209656,-2.1284637,-0.6917877,-1.380459,3.9609585,7.8848133
1570714887,-2.2630463,-2.004837,3.024063,-0.012161255,-1.6043549,-0.6118927,-0.76754534,5.992647,7.5997972
1570714887,-1.6788635,-0.088272095,1.774292,1.1319275,-0.50605774,-0.55329895,-0.16107881,8.018117,6.094791
1570714887,-0.96299744,-0.9190674,-0.0105896,2.3133087,0.5922241,-0.61828613,0.3894018,7.4605465,3.8774242
1570714887,-0.061569214,-6.194687,-7.0076447,2.9769745,0.5730438,-0.85583496,1.1090413,2.7439327,-3.1948988
1570714887,-4.2873383,-23.329987,-14.386566,1.4142303,0.7690582,-0.5362549,-3.2138915,-13.441765,-11.8839655
1570714887,-1.7255402,-18.46138,-12.308395,-0.38287354,-0.923645,0.027267456,-0.6841823,-10.627521,-10.372187
1570714887,-3.2063599,-5.143631,-3.7802582,-0.88249207,-2.3841248,-0.27526855,-2.353706,3.4660397,-0.90849304
1570714887,-0.8636322,0.16191101,-2.4107666,-0.10910034,-2.1305847,-0.4915161,0.33875442,9.017595,0.30238628
1570714887,-11.898514,-14.636642,3.975769,1.7124939,0.57092285,0.5492554,-10.882737,-5.1273594,6.9506035
1570714887,-4.4513397,-17.90593,-7.850403,0.124191284,0.717926,1.1394043,-3.4904437,-8.852783,-5.330212
1570714887,4.536484,-4.340378,10.517914,0.33937073,0.41752625,0.5822754,6.239174,4.2433643,12.609356
1570714887,0.9751129,-0.6569061,6.6464996,2.158844,0.6092682,-0.52879333,2.6407785,8.484873,8.769743
1570714887,0.24728394,-9.46637,3.980545,2.3612518,1.8247375,0.29785156,1.5779153,0.39804745,5.111293
1570714887,5.384033,-18.277023,-2.3988037,1.2693481,1.610611,0.5694885,6.463456,-9.117503,-1.5472642
1570714887,0.26522827,-10.017029,1.121872,0.7068939,-0.2962036,-0.75357056,1.8588442,-1.0300922,1.5720434
1570714887,-3.7438507,-5.0825806,-0.83418274,1.6049042,1.0055542,-0.57566833,-2.4493837,4.1541348,-0.3884648
1570714888,-5.772934,-7.7257843,1.7060547,1.5420532,2.6034393,-0.7876587,-4.562678,1.3762016,1.4716519
1570714888,-2.6269531,-8.171097,1.240387,1.1628265,2.055893,0.038986206,-1.8785654,1.1992655,0.5176003
1570714888,3.0772247,-9.951187,1.6497955,0.8070221,1.0470886,0.06881714,3.389136,-0.55644226,1.2912633
1570714888,4.2587585,-9.2760315,0.22883606,1.0797272,1.528595,-0.38179016,5.6528196,-0.30264664,-0.71508694
1570714888,-0.98931885,-7.3630524,-0.92037964,1.0094299,1.2058105,-0.35516357,-0.0068157315,1.7432699,-2.289504
1570714888,-2.524002,-6.6998596,3.8249207,0.885849,0.19595337,0.012359619,-1.6918932,2.4401417,2.3246584
1570714888,-0.906723,-7.8730316,1.2260284,1.1596222,-0.12683105,0.20198059,-0.08233273,1.2310286,-0.32069767
1570714888,-0.34768677,-9.267654,0.14144897,1.3524323,0.62312317,0.35643005,0.64252913,-0.21695232,-1.9712572
1570714888,-0.063964844,-9.491501,-0.03213501,1.2608337,0.20553589,0.43632507,1.0601851,-0.469985,-2.304584
1570714888,-1.3628235,-10.625153,-4.1022797,0.89437866,0.32484436,0.2062378,0.003440261,-2.0095873,-6.57498
1570714888,1.3486176,-10.342636,2.3417206,0.18916321,0.84895325,0.5726776,2.2911181,-1.3159428,-0.7299907
1570714888,4.0803986,-12.594391,0.9423065,-0.13679504,-0.26211548,0.41716003,5.643966,-3.898447,-1.4596062
1570714888,0.34544373,-10.862183,-1.4590759,-0.0025787354,0.8287201,-0.017471313,1.9697413,-1.8790922,-4.06122
1570714888,1.3378448,-14.558838,-0.14944458,-0.6225586,0.14587402,0.16682434,2.8044026,-5.8602877,-2.659229
1570714888,-1.9924927,-11.154282,-4.977356,-1.50354,-0.38568115,-0.07392883,-0.22859478,-2.2149124,-7.0162954
1570714888,-6.290085,-8.781631,-3.7934265,-2.9831848,-0.0362854,0.2850647,-4.6195526,0.11413288,-5.5662746
1570714888,-3.2769928,-8.7660675,2.058014,-3.2601624,-0.14494324,0.13806152,-1.747147,0.5047655,1.4743428
1570714888,-0.48654175,-13.526932,1.1949005,-2.908615,0.4654541,-0.094177246,0.96639955,-4.057975,1.580899
1570714888,2.5552826,-14.631851,3.6070557,-2.3195343,1.3453674,-0.45954895,4.056902,-5.406766,4.4201684
1570714888,-0.12980652,-10.580872,3.4669952,-2.0596008,0.2939453,-0.90483093,1.3347096,-1.4640703,5.0964766
1570714888,-2.3276825,-10.881332,1.7359924,-2.4409637,-1.4402924,-0.8675537,-1.2581389,-1.568408,3.9648414
1570714888,-1.3544464,-10.792755,0.94111633,-2.7371063,-2.4533691,-0.65130615,-0.25374424,-2.015522,4.0855794
1570714888,-1.9601746,-8.453613,1.1326447,-2.5411072,-1.7449646,-0.60017395,-0.8521012,0.22420502,4.3688626
1570714888,-2.8496246,-6.353897,1.868866,-2.157608,-1.7769165,-0.62467957,-1.6833776,2.0047379,5.6171646
1570714888,-2.1265717,-5.412979,3.0480042,-1.6974182,-1.8823853,-0.48937988,-0.96313334,2.6318007,7.0782657
1570714888,-2.2762146,-3.799286,3.5998688,-0.76316833,-1.8035583,-0.4201355,-0.9212296,4.165001,8.030743
1570714888,-1.6788635,-0.6652832,2.785843,0.47679138,-1.1196594,-0.3924408,-0.2919072,7.0467405,7.1968265
1570714888,-1.2838135,-0.035598755,1.0057526,1.743393,-0.038406372,-0.38285828,0.18749893,8.0876255,5.2605
1570714888,-1.155716,-1.8396301,0.9135742,2.856598,0.62205505,-0.50749207,0.16659951,6.897725,4.0533566
1570714888,-2.0679169,-11.058517,-18.687744,3.3093262,1.0865021,-0.56715393,-0.36870754,-0.5265026,-10.991926
1570714888,-1.5974579,-35.53444,-13.68985,-0.6012573,-1.4882355,0.6334076,-2.5396705,-26.545507,-12.265695
1570714888,-2.0116577,-6.5849457,-6.768219,-0.83135986,-1.3423004,-0.024932861,-0.7224579,1.035058,-5.2128344
1570714888,-1.3592377,0.20741272,-2.7591248,-0.47662354,-1.2474823,-0.666214,-0.13804471,8.773299,-0.2494762
1570714888,-6.23143,-4.096176,1.8664703,0.7473755,-0.0597229,-0.5277405,-3.76366,6.4138746,4.258699
1570714889,-0.8923645,-21.296112,-4.314163,1.6539154,0.3589325,0.65045166,-1.7779553,-10.643547,-0.11587167
1570714889,5.2224274,-22.622498,-11.070602,-0.23161316,2.0314026,-0.011077881,6.3681617,-14.156176,-9.749281
1570714889,-3.7857513,1.2464905,10.346741,0.6365814,-1.5894318,-0.86968994,-1.9882267,9.104094,13.908603
1570714889,-2.7945557,0.5222473,3.2467346,2.1524506,-0.6658478,-0.018539429,-2.0390441,9.930532,5.481539
1570714889,1.3318481,-15.760727,2.785843,2.158844,2.295578,1.0254211,1.7714204,-4.938792,4.5051146
1570714889,6.608673,-15.992966,0.1330719,1.4227448,1.2782593,-0.17407227,8.497115,-8.020065,1.1691117
1570714889,-2.1852264,-7.677902,1.6629639,1.1106262,-0.5326996,-0.75675964,-0.51405257,0.8462944,1.7857702
1570714889,-4.6033783,-6.716629,0.19651794,1.5495148,1.4273987,-0.57247925,-3.5076437,2.6889935,0.14373344
1570714889,-4.5052185,-7.1535645,1.4319305,1.3375244,1.7459106,-0.05155945,-4.108273,2.5571136,1.1879708
1570714889,0.13475037,-9.110825,0.85372925,1.0999756,0.99702454,0.10397339,0.32803684,-0.005423546,0.30803514
1570714889,4.7962646,-9.523834,1.0261078,0.7250061,0.51979065,0.09864807,5.334153,-0.35396957,0.45560676
1570714889,1.5413513,-8.886963,0.02772522,1.0531006,1.2622833,-0.3189392,3.176355,-0.030077934,-1.0311118
1570714889,-2.799347,-7.222992,1.9658356,1.0626831,0.7136688,-0.089904785,-1.8641148,1.8773689,0.43382478
1570714889,-2.0343933,-7.66951,2.2423553,0.9572296,-0.21205139,0.32341003,-1.4784235,1.5211287,0.878358
1570714889,0.25326538,-7.6707153,0.9794159,1.1990356,0.16612244,0.36175537,1.0464963,1.1379404,-0.77810585
1570714889,0.5118408,-9.216171,1.5552216,1.2885284,0.22897339,0.36602783,1.5413226,-0.2372427,-0.63214445
1570714889,-0.023269653,-9.305954,0.1043396,1.1575012,0.2577362,0.25630188,1.4240034,-0.4354744,-2.1822627
1570714889,-2.088272,-9.027023,-1.6350555,0.84750366,0.764801,0.116744995,-0.9008603,-0.607996,-4.3497634
1570714889,2.8892822,-11.531372,2.2303925,0.3809204,0.50061035,0.2584381,3.8257027,-2.26165,-0.7022536
1570714889,2.405655,-12.6757965,-1.862503,-0.015365601,0.94270325,-0.09629822,4.181074,-4.262656,-4.2938976
1570714889,-1.3975372,-10.858597,-1.7224426,0.12738037,1.3251343,-0.22520447,0.23029923,-1.8902683,-4.3587666
1570714889,1.2073517,-13.306671,-1.1430359,-0.6992645,0.044677734,0.25630188,2.191958,-4.651246,-3.2972372
1570714889,1.0996094,-13.458694,-5.3640137,-1.759201,-0.33029175,0.10609436,3.0005074,-4.6044807,-7.475051
1570714889,-5.353958,-8.274048,-2.7076569,-3.093979,-0.142807,0.060287476,-3.0425167,-0.23841572,-5.0429544
1570714889,-4.184387,-7.755707,2.3489075,-3.4284668,-0.6157837,0.27760315,-2.7737489,1.5489311,1.7770264
1570714889,-1.3185272,-14.949081,1.4403076,-3.173874,0.5368347,0.12527466,0.2990303,-5.0317497,1.5500759
1570714889,0.9356079,-15.046051,3.747116,-2.4558868,1.3964996,-0.37965393,2.2917678,-6.584049,4.6030164
1570714889,-0.1262207,-10.793945,2.3345337,-2.220459,0.6273804,-0.82814026,1.6460077,-1.8488722,4.3413315
1570714889,-1.4849243,-9.912888,1.1326447,-2.5570831,-1.0642548,-0.8963165,-0.41873085,-0.9615917,3.514024
1570714889,0.5812683,-10.706558,-0.17578125,-2.7211304,-2.1455078,-0.7045746,1.5282835,-2.037737,2.876304
1570714889,-0.5751343,-8.193848,1.1338501,-2.4356384,-1.8823853,-0.7706146,0.8325794,-0.12301254,4.3032546
1570714889,-2.2809906,-5.9959717,2.0699768,-2.1373596,-2.2701416,-0.5884552,-1.1896566,2.16636,5.8433914
1570714889,-2.3324738,-4.7258453,3.3724213,-1.6068726,-2.4277954,-0.4446411,-1.029928,3.2766476,7.656347
1570714890,-2.029602,-3.3910828,3.4849548,-0.6694336,-2.1699982,-0.4446411,-0.7565962,4.4321995,7.989009
1570714890,-1.5459747,-0.8616028,2.5188904,0.54071045,-1.226181,-0.63319397,0.06757188,6.5342636,6.9991274
1570714890,-1.4071198,-0.2941742,0.9506836,1.8115692,-0.09913635,-0.64598083,0.14681458,7.787165,5.5815883
1570714890,-0.8348999,-2.2729797,-1.8289795,2.7063904,0.5900879,-0.74824524,0.40323508,6.172164,1.783201
1570714890,-2.361206,-11.781555,-18.07843,2.7042542,2.2881317,-0.85583496,0.18039417,-0.3988533,-9.669632
1570714890,-2.8759613,-34.459442,-13.735352,-0.1921997,-1.017395,0.72714233,-5.056466,-24.018284,-11.614739
1570714890,-2.2091675,-8.724167,-7.5379486,-0.7258911,-1.7897034,-0.15808105,-0.49542773,-1.7254982,-5.9264507
1570714890,-0.31176758,-0.3121338,-4.7822266,-0.5533142,-1.5521545,-0.537323,0.4875741,7.637512,-2.5507953
1570714890,-6.9760284,-5.123291,3.374817,0.74842834,0.068115234,-0.40309143,-3.9237146,5.446392,4.3173733
1570714890,-4.696747,-18.250687,-5.80455,1.5953217,0.23962402,0.9412689,-3.5054839,-9.170195,-2.4312632
1570714890,3.682953,-13.318634,6.1868134,-0.6374817,1.4700012,0.7378082,4.123725,-8.666109,2.5968387
1570714890,-0.63497925,-0.02961731,6.4441833,1.2075653,-1.9196625,-0.34451294,0.9770453,7.2205267,9.804292
1570714890,2.1865845,-2.0898285,2.8672485,2.525299,0.94589233,-0.1378479,3.0194788,8.354326,4.805668
1570714890,1.3905029,-15.360886,1.8736572,2.062973,2.8282166,0.52368164,2.688343,-6.0454626,3.0978925
1570714890,2.9371643,-14.040482,-0.5277252,1.3172913,0.39408875,-0.12719727,4.44841,-5.4512367,-0.13475144
1570714890,-3.0662994,-6.5849457,0.259964,1.2139587,-0.72976685,-0.73439026,-1.7318181,2.280489,0.5830133
1570714890,-3.630127,-7.0314636,0.76034546,1.4642944,1.6404419,-0.7173462,-2.4362884,2.332059,0.09714158
1570714890,-3.9677124,-8.038223,0.14263916,1.2576294,1.8417816,-0.2124176,-3.0556405,1.165101,-0.3161424
1570714890,-1.1401672,-9.469955,0.94111633,1.1542969,1.5626831,0.056030273,-0.7432993,-0.3833456,0.21454257
1570714890,4.1761627,-9.168289,1.9670258,0.8826599,0.37916565,0.02619934,5.060115,-0.12206936,1.119205
1570714890,1.6131744,-8.774445,1.3696747,1.2863922,1.2665405,-0.34770203,2.7915673,0.16331387,0.12039733
1570714890,-3.0040436,-7.4336853,1.6821136,1.3375244,0.5038147,-0.16340637,-2.0401535,1.4628963,0.28474963
1570714890,-2.8651886,-7.736557,2.0532227,1.1702728,-0.12895203,0.2808075,-2.0318565,1.2617378,-0.0072458982
1570714890,0.010253906,-8.465591,0.016952515,1.4120941,-0.033081055,0.45018005,0.88208544,0.369318,-1.9966421
1570714890,2.0884247,-9.096466,-0.82580566,1.2853241,0.20767212,0.42355347,3.102314,-0.40887547,-3.2985952
1570714890,0.8027344,-10.59523,-2.22641,0.8869171,0.29182434,0.15296936,2.1218147,-2.0267868,-4.9127703
1570714890,1.330658,-10.492279,0.6502228,0.30848694,0.52723694,0.23286438,1.6074026,-1.133894,-3.483992
1570714890,2.568451,-13.312653,-0.49661255,-0.0057678223,0.59754944,0.0059661865,3.9634624,-4.824913,-3.2428222
1570714890,-0.7235718,-11.800705,-1.7511749,-0.20285034,1.3187408,-0.29231262,0.693956,-3.1306553,-4.6757965
1570714890,-0.032836914,-12.755997,-1.4506989,-1.010315,0.1554718,0.056030273,1.4879701,-4.0327806,-3.8230965
1570714890,0.40768433,-12.787125,-5.1102295,-2.237503,-0.88848877,0.25949097,1.9252571,-3.953062,-7.1175823
1570714890,-5.839981,-8.852249,-1.7104645,-3.6106262,-0.077819824,0.1561737,-4.2668695,-0.06863403,-3.3018794
1570714890,-5.030731,-10.106812,2.9809723,-3.4838562,-0.15026855,0.19877625,-3.6622872,-0.90305996,2.7697687
1570714891,-2.5874634,-15.149002,1.5444489,-2.9789276,1.1823883,-0.0398407,-1.0320579,-6.0856457,2.1657615
1570714891,1.9639282,-12.964294,5.1213837,-2.4335175,1.2335205,-0.36688232,3.5089817,-4.1704893,6.423028
1570714891,0.3215027,-10.626358,2.3608704,-2.2801056,0.11073303,-0.66941833,1.6044033,-1.7161636,4.525382
1570714891,0.45558167,-10.014633,1.3122101,-2.5645447,-1.847229,-0.6257324,1.490924,-1.168561,3.8954399
1570714891,0.26045227,-9.327499,0.92555237,-2.5762634,-1.6086121,-0.67474365,1.4630041,-0.7827616,3.9717646
1570714891,-2.8017426,-6.9919586,2.6338196,-2.2087402,-1.8866425,-0.7514343,-1.6625392,1.3495064,6.3522024
1570714891,-2.558731,-5.677536,2.2662964,-1.8582611,-2.0261993,-0.76208496,-1.4440206,2.448597,6.2680326
1570714891,-2.4749298,-4.2446136,3.125824,-1.0539856,-1.9463043,-0.6811371,-1.2492712,3.6799288,7.332865
1570714891,-2.093048,-2.4884644,3.501709,-0.043060303,-1.7471008,-0.6214752,-0.7976129,5.3432674,7.7770505
1570714891,-1.7075806,-0.24510193,2.3297424,1.2097015,-0.80752563,-0.6118927,-0.45537066,7.5200615,6.530506
1570714891,-1.4633789,-0.6114044,0.31622314,2.271759,0.20979309,-0.50109863,-0.24315524,7.6090794,3.9961731
1570714891,-0.9522095,-5.43692,-6.1134033,2.9908142,0.8095398,-0.5916443,0.1297239,3.3034687,-2.6179008
1570714891,-8.624435,-30.104385,-19.925552,0.42884827,1.0449677,0.09651184,-6.8256135,-17.277124,-19.10377
1570714891,-1.3712006,-13.190552,-10.72464,-0.80578613,-1.607544,0.11462402,0.1227631,-7.9201803,-9.636654
1570714891,-2.2845917,-2.080246,-4.8133545,-0.85691833,-1.7588196,-0.36367798,-1.3157221,6.2009697,-2.1097672
1570714891,-3.7306824,-0.24749756,2.1489868,0.16467285,-0.8128662,-0.42440796,-1.9760709,9.292857,4.3623114
1570714891,-6.6875305,-13.767548,1.1529999,1.666687,-0.26104736,0.4096985,-6.055051,-4.623352,4.373038
1570714891,2.4667053,-20.000854,-9.211502,0.5620117,2.119812,0.24777222,3.4395308,-10.700369,-5.672612
1570714891,-1.8955383,-4.5989532,10.798035,0.17745972,0.41539,-0.504303,0.19703448,2.4962368,11.992746
1570714891,-4.404648,0.88256836,4.638962,1.8275452,-0.62857056,-0.26034546,-3.7152414,9.339494,7.2544026
1570714891,-0.9653778,-9.095261,3.0252686,2.413437,2.1539001,0.49917603,0.58008486,1.7795248,4.9780416
1570714891,5.6294403,-17.149353,-0.3469696,2.2206268,3.1627045,0.67388916,6.228777,-8.045922,0.68468314
1570714891,1.79393,-9.848236,-0.7815094,1.2885284,0.25559998,-0.47766113,4.0126486,-1.715476,-0.4891044
1570714891,-2.4617615,-6.289261,-0.6139221,1.282135,0.07237244,-0.1655426,-1.4224917,2.6719522,-0.3224526
1570714891,-3.7055511,-6.3084106,0.4586792,1.3460541,1.6138153,-0.42866516,-2.6675222,2.3128939,-0.31202176
1570714891,-1.7363129,-10.888519,-7.0866394,1.10849,-1.4797211,0.11141968,-1.9494883,0.46921062,0.21840942
1570714891,2.156662,-9.672272,-0.47505188,1.0722809,0.74775696,0.07627869,2.9424248,-0.71313477,-1.5658524
1570714891,1.6861877,-8.860626,2.560791,0.883728,0.61672974,-0.13145447,2.7976837,0.08952522,1.5232215
1570714891,-2.8053284,-7.7305756,2.0125122,0.9550934,0.20339966,-0.16235352,-1.6406541,1.1895123,0.6001507
1570714891,-1.2251587,-7.922104,1.6246643,1.0115509,-0.539093,0.13485718,-0.7793472,1.1686287,-0.13458455
1570714891,0.3023529,-8.382996,0.6849365,0.9827881,-0.14920044,0.23286438,1.0419905,0.4122362,-1.1443647
1570714891,1.591629,-9.218567,0.596344,1.0179443,-0.08314514,0.17747498,2.2637577,-0.23240471,-1.4388039
1570714891,0.8482208,-9.03302,0.47903442,1.0317993,0.27157593,-0.0068206787,1.981163,-0.43708324,-2.241194
1570714891,-1.3987274,-9.615997,-0.3469696,0.98599243,0.42817688,-0.2166748,-0.07484609,-1.2805319,-2.7521186
1570714892,-0.8564453,-9.996689,0.4874115,0.50341797,0.5453491,0.08265686,-0.65029544,-1.2099495,-2.844105
1570714892,1.7484436,-11.615158,0.24559021,0.06985474,0.54748535,0.24458313,2.6387782,-2.9850693,-2.4663668
1570714892,-0.06037903,-10.306732,-2.4418945,-0.24545288,0.4526825,0.23286438,1.0093998,-1.7642317,-5.1457257
1570714892,0.82188416,-13.218079,-3.8532715,-0.85266113,0.3365631,0.48745728,1.7792689,-4.2398634,-6.5696306
1570714892,0.09524536,-13.334198,-3.416336,-2.108612,0.09580994,0.25949097,1.8279132,-4.732744,-5.6862264
1570714892,-4.4262085,-9.013855,-0.6115265,-3.5083618,-0.48368835,0.21582031,-2.5767426,-0.8452034,-2.417284
1570714892,-5.9405365,-12.065277,2.050827,-3.173874,-0.85653687,0.5769501,-4.365201,-2.293312,1.8853793
1570714892,-2.1576996,-14.30864,1.4786072,-2.6124725,2.1144867,0.43099976,-1.5265253,-5.7276697,0.69905996
1570714892,1.3007202,-12.032944,4.992096,-2.2779846,1.9312592,0.11036682,2.9982371,-3.199586,5.7825375
1570714892,0.09284973,-9.769226,2.5488129,-1.9530792,0.5634613,-0.47021484,2.170228,-1.1247368,4.6016006
1570714892,0.9320221,-10.676636,0.13546753,-2.3131409,-0.76171875,-0.52453613,1.7253001,-1.69415,2.1435587
1570714892,0.15390015,-8.780426,1.5037537,-2.2790527,-0.97691345,-0.65237427,1.7519981,-0.50688267,4.073334
1570714892,-2.6006165,-6.08815,2.8840027,-2.0042114,-1.5500183,-0.5650177,-1.316693,2.1844816,5.927083
1570714892,-2.036789,-5.494385,3.1210327,-1.5014038,-2.1614838,-0.55648804,-0.76175773,2.7128925,6.4526443
1570714892,-1.6429443,-4.561844,3.0097046,-0.93362427,-2.2041016,-0.5692749,-0.3154298,3.6110792,6.6828136
1570714892,-1.7147675,-3.3060913,2.224411,0.0868988,-1.6650696,-0.55436707,-0.36457038,4.8650436,6.2282324
1570714892,-1.6034393,-3.0618744,0.9207611,0.6813202,-0.84588623,-0.70562744,-0.021470547,5.0153637,4.350379
1570714892,-2.131363,-2.5962067,-0.52653503,1.490921,0.09687805,-0.6374512,-0.8535603,5.87195,2.8067105
1570714892,-0.85046387,-8.168701,-6.132553,1.9734955,0.3631897,-0.67581177,0.058820605,1.7586308,-0.48713708
1570714892,-1.8105316,-14.503769,-9.853149,0.7047577,0.6667938,-0.1378479,-1.5968444,-6.4790916,-9.005796
1570714892,-2.5216217,-17.939453,-13.211014,-0.502182,-0.9193878,0.2658844,-1.0423132,-8.527348,-12.020814
1570714892,-2.2151642,-8.985138,-5.183258,-0.52349854,-1.0376282,-0.2912445,-1.2886533,-0.75912285,-3.1379876
1570714892,-1.8260956,-5.4405212,-3.0596008,-0.21669006,-0.6530762,-0.63212585,-0.19894874,2.8140182,-1.1655586
1570714892,-2.2786102,-4.264969,0.259964,0.24882507,-1.6672058,-0.17193604,-0.6032934,5.4729595,2.9465349
1570714892,-2.6951904,-12.584808,-0.5744171,1.2480469,-0.38035583,0.36602783,-1.7068688,-3.6383772,1.8322167
1570714892,-2.7406921,-17.85086,-5.4178925,0.15614319,2.1677551,0.37454224,-1.3945209,-9.121691,-4.337392
1570714892,-3.4230347,-4.8515472,7.51799,0.53538513,-0.8480072,-0.4126892,-2.106114,2.286581,9.758113
1570714892,0.5633087,0.73413086,4.383972,1.567627,-0.9907532,-0.17939758,1.3567027,9.352962,6.428448
1570714892,2.493042,-10.617981,3.8943634,2.0832062,2.213562,0.42460632,3.7324848,1.5983076,5.007027
1570714892,6.498535,-18.297379,-2.4945679,1.4983826,1.3442993,0.11462402,7.7146626,-9.690389,-1.5987372
1570714892,-1.7889862,-7.598892,-0.03453064,0.68452454,-0.24081421,-0.7780762,-0.5297535,1.0741138,0.16828507
1570714892,-3.9449615,-6.965622,1.4008026,1.1575012,0.4878235,-0.3381195,-2.9622216,2.6112604,1.6546814
1570714892,-5.1540375,-6.6902924,1.0201263,1.2064972,0.48143005,-0.35835266,-4.3574934,2.673995,1.5498623
1570714893,-1.5076752,-8.793594,0.3617096,1.3609619,0.6614685,0.003829956,-0.9383824,0.23792362,-0.027031958
1570714893,2.1865845,-9.163498,1.4558716,1.1042328,0.9629364,0.07627869,3.1255846,-0.20946598,0.7774714
1570714893,3.034134,-8.752899,2.5871277,1.0605621,0.8084717,-0.13571167,3.9519613,0.11952686,1.4970795
1570714893,-1.4071198,-7.507904,1.1314545,1.5260773,0.74668884,-0.24224854,-0.5287206,1.3311262,-0.22040117
1570714893,-2.2630463,-7.8538666,1.422348,1.2746735,0.46865845,0.14125061,-1.6704063,1.1016579,-0.7857523
1570714893,-0.5104828,-8.309967,1.7084503,1.3673553,0.29714966,0.35643005,0.3086629,0.44961452,-0.37762785
1570714893,1.1941833,-10.001465,0.32580566,1.3375244,0.2758484,0.37135315,2.0152278,-1.2241659,-1.8898168
1570714893,0.9858856,-10.743668,-1.838562,1.2416534,0.49528503,0.11462402,2.1379433,-2.1993456,-4.4746766
1570714893,-1.5388031,-9.425659,-2.1138916,0.6536255,1.0918274,0.019805908,-0.40425026,-0.98631096,-5.196542
1570714893,1.7185211,-11.860565,1.5109253,0.10714722,0.6785126,0.19664001,2.2013938,-2.7438765,-1.5106878
1570714893,2.60437,-12.323853,-1.273529,-0.105911255,0.97039795,0.048568726,4.0510063,-3.9664268,-3.9216506
1570714893,0.6674652,-12.116745,-1.052063,-0.38926697,1.0215302,-0.18258667,2.0606425,-3.5820293,-3.7949827
1570714893,0.40768433,-12.556076,-2.087555,-1.3160553,-0.3931427,0.09225464,1.8356999,-3.9383192,-4.4064827
1570714893,-2.9884796,-11.390106,-5.4621735,-2.5581512,-0.6072693,0.023010254,-1.3430456,-2.874917,-7.39279
1570714893,-5.697525,-7.1535645,1.0129395,-3.493454,0.3876953,0.23286438,-4.4023647,1.6743441,-0.61865366
1570714893,-2.6796265,-12.6362915,2.3094025,-3.227127,-0.04373169,0.22753906,-1.2537518,-3.420762,2.214562
1570714893,-1.0192566,-14.169769,2.9701996,-2.6540222,1.4785309,-0.037704468,0.3084215,-5.232092,3.1940699
1570714893,0.6973877,-10.33905,4.5156555,-2.2332458,0.74349976,-0.5660858,2.066068,-1.4776573,5.7880993
1570714893,-1.5627441,-9.520233,0.96266174,-2.2342987,0.24281311,-0.7503662,-0.4119928,-0.608099,2.8481355
1570714893,0.013839722,-10.536575,1.2870789,-2.429245,-1.720459,-0.72587585,0.91189003,-1.7971296,3.769954
1570714893,0.41966248,-9.459183,0.024139404,-2.430313,-1.5052795,-0.759964,1.4515681,-0.91609955,2.859615
1570714893,-1.5160522,-6.8961945,2.2902374,-2.1331024,-1.8206024,-0.72694397,-0.60206234,1.4514694,5.769599
1570714893,-2.1026306,-5.531494,2.387207,-1.775177,-2.0879822,-0.67900085,-1.1647049,2.5981789,6.2003145
1570714893,-2.3911285,-4.0399017,3.304184,-1.1275024,-2.1753387,-0.6065674,-1.3061804,3.7008495,7.2998238
1570714893,-1.9326477,-2.4501648,3.1916656,0.018722534,-1.7833099,-0.5788727,-0.7584394,5.4212604,7.309345
1570714893,-1.763855,-0.7155609,2.184906,1.139389,-0.939621,-0.6385193,-0.6229874,7.2250714,6.082035
1570714893,-1.4274597,-1.0040588,-0.38407898,2.252594,0.14161682,-0.56715393,-0.39603758,7.1781187,3.119386
1570714893,-0.42430115,-6.052231,-6.680832,2.7841492,0.6082001,-0.7152252,0.44263232,2.6578379,-3.4413567
1570714893,-6.843155,-25.191483,-18.181381,0.52153015,1.1355133,-0.08139038,-5.8595867,-15.576447,-16.574924
1570714893,0.0904541,-15.955856,-11.401001,-0.35943604,-1.8887787,0.19345093,1.0693525,-8.318973,-9.217158
1570714893,-2.4042969,-3.574234,-5.076721,-0.86117554,-2.2978363,-0.49790955,-1.8277904,4.115937,-2.5450962
1570714893,-2.2402954,-1.1501007,-0.97424316,0.016601562,-0.634964,-0.45635986,-0.43980074,8.292527,0.99723744
1570714893,-9.658737,-16.445465,-2.518509,1.471756,-0.24507141,0.38200378,-9.034403,-7.1212883,0.8478317
1570714894,1.6682434,-18.206406,-4.2878265,-0.34666443,0.75520325,0.7420654,2.3777132,-9.894655,-2.699216
1570714894,-0.6984253,-1.9162445,9.84874,0.42884827,-0.142807,-0.13571167,0.6986766,6.466078,12.647275
1570714894,-3.28656,-0.3839569,3.5447998,2.1673737,-0.26104736,-0.07499695,-2.301568,8.502389,5.768941
1570714894,1.2348938,-10.482712,4.8987274,2.591339,2.1475067,0.55563354,2.2735825,-1.0552464,6.251669
1570714894,7.1677246,-18.329697,-0.26197815,1.9021149,1.7171478,0.47254944,8.089013,-9.515948,0.65368366
1570714894,-0.24353027,-8.829514,-1.0508575,1.1148834,-0.38142395,-0.56288147,1.9220842,-0.6850252,-0.8186226
1570714894,-3.9006805,-6.045044,0.675354,1.5686951,0.77864075,-0.14743042,-2.8123386,2.9417353,0.7117583
1570714894,-3.2422638,-9.6914215,3.2455292,1.6294098,2.0431213,-0.50642395,-2.1695728,-0.9361191,2.517805
1570714894,-2.1972046,-8.033432,0.6573944,1.3385925,1.050293,-0.017471313,-1.335386,0.9323597,-0.04094547
1570714894,1.6383057,-9.058151,1.8748474,1.0243378,0.8393707,0.10076904,2.221568,-0.27302647,0.5878997
1570714894,2.769577,-8.989914,1.6294403,1.0573578,0.9309845,-0.1421051,3.9901686,-0.12217331,0.19286692
1570714894,-0.82891846,-7.8287354,0.97343445,1.2427216,0.92884827,-0.28485107,0.26865345,0.8890753,-0.35849762
1570714894,-2.2786102,-7.1655426,0.5233307,1.1575012,0.37384033,0.04005432,-1.4142797,1.5785275,-1.1781942
1570714894,-0.7953949,-8.167511,1.8509064,1.2150269,0.38130188,0.26055908,0.13299048,0.54695797,-0.15063453
1570714894,0.62675476,-8.466782,0.6957092,1.3535004,0.20021057,0.29145813,1.6185504,0.08005047,-1.6061764
1570714894,0.8314667,-9.491501,-2.104309,1.2107544,0.13522339,0.28720093,2.1153774,-0.7188263,-4.9490004
1570714894,-1.6800537,-9.584885,-2.399994,0.7420502,1.0055542,0.08798218,0.001935482,-1.4471664,-6.0174737
1570714894,1.9723053,-11.982666,2.3524933,0.1060791,0.464386,0.2424469,2.980742,-3.2064304,-0.96873975
1570714894,1.7424622,-12.486649,-1.8182068,-0.1485138,0.6145935,-0.049423218,3.622245,-4.3893414,-4.494431
1570714894,-0.6397705,-12.676987,-2.7866669,-0.3711548,1.1621399,-0.29338074,1.0514063,-4.0509024,-5.426805
1570714894,0.8194885,-13.300674,-2.004959,-1.648407,-0.3665161,0.2616272,2.2110043,-4.735918,-3.9966178
1570714894,-1.9877014,-11.90007,-4.8540497,-3.0566864,-0.8149872,0.13699341,0.2706468,-3.815957,-6.9554377
1570714894,-5.010391,-8.481155,3.4370728,-3.572281,-0.07356262,-0.07499695,-3.4091926,0.4176216,1.4121947
1570714894,-3.5618896,-14.236816,0.6502228,-3.302765,0.04574585,-0.09950256,-2.3080673,-4.6732616,1.207399
1570714894,-0.06277466,-13.273148,3.1006775,-2.4718628,2.0250092,-0.1697998,0.76458323,-4.5627537,3.3116982
1570714894,1.1295471,-10.307922,2.8876038,-2.206604,0.27903748,-0.70350647,3.1346924,-2.3219318,6.067238
1570714894,-1.2107849,-9.777618,0.8692932,-2.3685303,-0.46238708,-0.8206787,-0.014919043,-0.88118935,2.9805415
1570714894,-0.4697876,-9.381378,1.9227295,-2.507019,-1.9803925,-0.6065674,0.22463542,-0.75773716,4.5652432
1570714894,-0.5128784,-8.784012,2.0280762,-2.5677338,-2.2722778,-0.70350647,0.6545733,-0.54693985,4.9239044
1570714894,-1.3520508,-6.9548492,2.12146,-2.2321777,-2.293579,-0.72161865,-0.22828591,1.1443338,5.762705
1570714894,-2.0355988,-5.909775,2.9977264,-1.712326,-2.2562866,-0.7780762,-0.85693777,2.1320047,6.8866568
1570714894,-2.8975067,-3.8052826,3.905136,-0.7738342,-2.180664,-0.7226715,-1.7034998,3.9258194,7.933471
1570714894,-2.3001556,-1.2386932,3.0216675,0.3063507,-1.4669342,-0.67793274,-1.0534396,6.31807,7.1609836
1570714894,-1.8536377,0.045791626,2.0209045,1.6262054,-0.18754578,-0.60017395,-0.5645505,8.055427,6.009178
1570714895,-1.88237,-1.3428345,-0.49661255,2.7926788,0.7765198,-0.52453613,-0.7800505,7.157467,3.131017
1570714895,-3.0770721,-10.298355,-17.032166,3.0909576,1.5104828,-0.52986145,-1.6257004,0.07218838,-10.813192
1570714895,-0.7546997,-37.2415,-12.715408,-0.37754822,-1.3881073,0.6046448,-2.7333694,-27.54851,-10.906406
1570714895,-0.8097687,-7.973587,-7.4888763,-0.79193115,-1.4094086,-0.059020996,0.72218436,-2.477831,-7.200249
1570714895,-0.2171936,0.6132202,-3.3301392,-0.6246948,-1.3188629,-0.52134705,0.6897979,8.519494,-1.3698821
1570714895,-10.217773,-8.742126,3.9159088,0.94018555,0.41752625,-0.3658142,-7.527114,2.1938963,5.4880447
1570714895,0.7081604,-21.511597,-8.498032,0.5098114,0.077697754,0.93273926,-0.24442768,-12.732621,-6.339771
1570714895,4.7411957,-9.140747,6.2430725,-0.68434143,1.9355164,0.14445496,5.4477124,0.43677902,9.665449
1570714895,-5.24382,1.3745728,6.5076294,1.7380676,-1.5574799,-0.48831177,-3.9215508,9.929693,9.74678
1570714895,0.42684937,-5.456085,4.2618713,2.5988007,1.3666687,0.55670166,0.56599677,5.12796,5.058924
1570714895,3.0832062,-16.864456,3.0360413,2.2589722,2.6535187,0.82514954,3.5480042,-7.2783203,4.8042717
1570714895,3.6051483,-12.034149,-1.6853333,1.10849,0.060653687,-0.37753296,5.9150915,-4.3115816,-1.5720618
1570714895,-3.3152924,-5.873871,1.1745453,1.4025116,0.15440369,-0.5128174,-1.6581509,2.4744968,1.3587751
1570714895,-4.0790405,-8.507492,3.331726,1.7103729,1.9387207,-0.50535583,-2.8074088,0.7570524,2.0728102
1570714895,-3.1333313,-7.5893097,0.6526184,1.4930573,1.0406952,-0.16447449,-2.4360118,1.616312,0.46947712
1570714895,0.15031433,-9.326309,0.9075928,1.1542969,0.85214233,0.11781311,0.45244908,-0.38811588,-0.33295542
1570714895,2.9383545,-8.926468,3.2946167,0.8826599,0.731781,0.06881714,3.5775967,-0.16554832,2.076963
1570714895,0.83265686,-8.886963,0.41079712,1.3172913,0.91926575,-0.2539673,2.8142333,-0.31828594,-0.735322
1570714895,-2.603012,-7.6922607,1.1494141,1.2949219,0.6785126,-0.05795288,-1.5882077,0.9603214,-0.63418996
1570714895,-1.7434998,-7.6324005,2.2279968,1.1596222,0.17356873,0.32980347,-1.0551777,1.1253595,0.5658848
1570714895,0.38974,-9.158707,0.6669769,1.2970428,-0.10020447,0.42781067,1.4687276,-0.5402851,-1.9331028
1570714895,2.2512207,-9.553757,-1.4889984,1.2001038,-0.0043182373,0.36709595,3.2282991,-1.1246729,-3.7249022
1570714895,-0.6661072,-10.294754,-3.4749908,0.723938,0.47505188,0.028335571,0.9224007,-2.0815926,-6.3959913
1570714895,1.1642609,-10.682617,2.8540802,0.06666565,0.40048218,0.31489563,2.274215,-2.1218042,-0.36315322
1570714895,1.5150146,-13.073227,-1.2759247,-0.3125763,0.17144775,0.025146484,3.0578752,-4.797924,-3.9240625
1570714895,-2.1110077,-8.406937,-2.6106873,-0.12721252,1.4859772,-0.19856262,-0.31984675,-0.23562336,-5.5957627
1570714895,-0.2171936,-12.964294,-0.16500854,-0.98475647,0.2662506,0.51942444,1.0790597,-4.3414288,-2.6295915
1570714895,3.0963745,-12.131119,-6.1540985,-1.9189911,-0.5007324,0.655777,4.795228,-3.714509,-7.8364697
1570714895,-2.1409302,-10.85141,-0.7216644,-3.5222168,-0.18328857,0.18492126,-0.17980278,-2.2423992,-2.2659435
1570714895,-4.5171814,-9.7859955,3.28862,-3.3901215,-0.6157837,-0.17512512,-2.9858012,-0.25083256,3.2850125
1570714895,-3.7199097,-14.694107,0.18095398,-3.0130157,0.57518005,-0.2081604,-2.1104848,-5.3376417,0.83210033
1570714895,1.7664032,-13.890854,4.7454987,-2.2747803,1.2835846,-0.45422363,3.0278442,-5.6588993,6.684752
1570714895,0.7620392,-10.786774,2.7415466,-2.1054077,0.21192932,-0.95809937,2.199966,-2.0198765,4.4459105
1570714896,-1.5782928,-9.675858,0.35812378,-2.332306,-1.5745239,-0.9868622,-0.4798721,-0.97245693,2.83095
1570714896,-0.6469574,-9.328705,1.8832245,-2.270523,-2.0080872,-0.77168274,0.4490376,-0.7385721,4.818378
1570714896,-1.8656006,-7.4731903,2.308197,-2.093689,-2.0943756,-0.8249359,-0.8527883,0.88134193,5.507463
1570714896,-1.8009644,-6.4532623,2.138214,-1.6931458,-2.0986328,-0.74824524,-0.8892702,1.8486261,5.580618
1570714896,-1.863205,-5.2920685,3.4011536,-0.9677124,-2.0602875,-0.7919159,-0.77577806,2.7665215,7.1184025
1570714896,-1.9517975,-3.5383148,3.9266815,-0.10910034,-1.9803925,-0.7706146,-0.86378515,4.4467583,7.6878796
1570714896,-2.7981415,-0.96336365,2.9618225,0.9103546,-1.1430969,-0.67474365,-1.6737142,7.0384874,6.5428963
1570714896,-2.407898,-0.46417236,1.2296143,1.8808136,-0.1854248,-0.40841675,-1.377819,7.751111,4.4451714
1570714896,-1.1569214,-3.9190063,-1.3633118,2.6605835,0.20021057,-0.48512268,-0.2907626,5.2877617,1.8386552
1570714896,-4.9517365,-24.203873,-28.752975,0.9146118,1.3283234,-0.2955017,-3.413863,-14.017605,-26.222471
1570714896,-1.3161316,-17.715591,-12.261719,-1.1850128,-2.2818604,0.1327362,-0.26086468,-10.762951,-10.332307
1570714896,-1.9302521,-2.4717102,-5.2048035,-0.9740906,-1.3124695,-0.43824768,-1.0362238,5.797076,-2.5941734
1570714896,-0.4338684,1.6654816,-0.33859253,-0.3914032,-0.30259705,-0.5277405,0.6171753,9.955443,1.309716
1570714896,0.3215027,-2.6237335,2.268692,1.3023682,-1.8301849,-0.35090637,1.2767497,6.102524,5.068771
1570714896,-9.537827,-22.3376,5.6313477,2.829956,1.51474,0.85391235,-8.391654,-12.294811,8.358103
1570714896,6.4446716,-20.622147,-9.197128,-0.42549133,1.0279236,-0.30403137,7.6192927,-13.836988,-9.298656
1570714896,-1.6776581,2.2101593,6.126953,0.54922485,-0.85227966,-0.8164215,-0.7804361,10.639406,7.631731
1570714896,-3.1608734,2.526184,5.5272064,2.0704346,0.33442688,-0.089904785,-2.3818133,11.654468,7.10305
1570714896,0.57647705,-14.400818,6.821274,1.9820099,2.4585724,1.1788177,1.2934141,-4.674691,7.3065796
1570714896,9.552338,-19.834457,-2.9566498,1.7231445,0.19807434,0.032592773,10.533682,-11.518252,-2.2461731
1570714896,-1.440628,-7.5450134,-0.80426025,0.7420502,0.6572113,-0.7652893,-0.32476407,1.1320791,-1.2781559
1570714896,-4.6955566,-7.555786,4.33609,1.3737488,2.0718842,-0.7972412,-3.7253437,1.3662806,3.9754698
1570714896,-6.993988,-6.725006,1.6102905,1.2672119,0.89689636,-0.07286072,-6.459933,2.241252,1.0917517
1570714896,-0.03164673,-9.151535,0.94470215,1.0317993,0.38876343,0.27441406,0.39670795,-0.21092796,-0.04072672
1570714896,5.5157166,-9.483124,2.0723724,0.852829,0.8553467,0.12313843,6.099835,-0.6132469,0.9898181
1570714896,0.9942627,-8.368622,0.2420044,1.14151,1.1887665,-0.2720642,2.609244,0.126791,-1.1061902
1570714896,-2.2355042,-7.267288,1.9646301,1.139389,0.7456207,0.0027618408,-1.4459547,1.4757481,0.12887871
1570714896,-0.5799103,-7.41214,2.0436401,1.2011719,0.08302307,0.35643005,0.16831678,1.3020477,0.09452081
1570714896,0.5585327,-8.555374,1.0129395,1.4078369,0.15119934,0.3905182,1.4662089,0.097146034,-1.28124
1570714896,1.4192352,-8.475159,-0.9934082,1.3076935,0.19700623,0.3404541,2.426683,-0.004049301,-3.629376
1570714896,-0.6613159,-9.893738,-2.4347076,0.92633057,0.5389557,0.06455994,0.91242516,-1.6277323,-5.0829754
1570714896,1.315094,-11.579254,0.9387207,0.33190918,0.38876343,0.16682434,2.3288221,-3.0611858,-2.1937165
1570714896,2.224884,-12.618332,-1.6470184,-0.15383911,0.5613251,0.074142456,3.5819082,-4.3475904,-4.479798
1570714897,-1.5004883,-12.003021,-2.0612183,-0.25930786,1.4210052,-0.32107544,-0.100141644,-3.5764933,-5.0431523
1570714897,-0.81095886,-12.204132,-2.4011993,-1.1147156,-0.0011291504,0.19238281,0.35972488,-3.7348614,-4.960211
1570714897,1.1080017,-12.099991,-6.981308,-2.5751953,-0.459198,0.5535126,2.5226765,-3.4137783,-9.044303
1570714897,-2.5287933,-9.649521,1.4115753,-3.7576294,0.013793945,0.18386841,-0.50874734,-1.3246775,-1.1442615
1570714897,-3.6528778,-11.372147,2.940277,-3.5200806,-0.5689087,-0.040908813,-2.3198414,-1.7456656,3.0268312
1570714897,-3.2410736,-15.909164,2.189682,-2.8532257,1.5605469,-0.14743042,-2.0553231,-7.0646124,1.7076209
1570714897,1.2097473,-11.432007,5.5990295,-2.2609406,0.7019501,-0.58631897,2.2959766,-2.9229975,7.013977
1570714897,-0.4805603,-9.277222,0.39404297,-2.1011505,0.12989807,-0.86009216,1.0334454,-0.7593126,2.8642383
1570714897,1.0397644,-10.252869,1.6701508,-2.4356384,-1.7332458,-0.7045746,1.5864215,-1.4954586,3.8015063
1570714897,0.21495056,-9.375381,1.619873,-2.4409637,-2.0720062,-0.85902405,1.5689334,-1.1831675,4.1759653
1570714897,-2.3707733,-6.5167084,2.6721191,-2.190628,-2.452301,-0.7610321,-1.325526,1.5658512,6.196105
1570714897,-2.7478638,-5.411789,2.6661377,-1.712326,-2.2978363,-0.6672821,-1.8472269,2.6542892,6.255494
1570714897,-2.6868134,-4.364319,3.6082458,-0.9155121,-2.022995,-0.59484863,-1.6726551,3.4860277,7.487856
1570714897,-1.9960938,-2.6955566,3.2575073,0.16999817,-1.5500183,-0.66941833,-0.91053903,4.925439,7.355523
1570714897,-1.9709473,-0.82928467,2.411148,1.2469788,-0.574234,-0.7237396,-0.838218,7.113687,6.1923566
1570714897,-2.036789,-1.2698212,0.21806335,2.4954681,0.5602722,-0.56715393,-1.0921612,7.1177053,3.7522087
1570714897,-2.009262,-6.562195,-7.8851166,3.1410217,1.3102112,-0.57992554,-1.0556761,2.8859081,-3.3975332
1570714897,-4.969681,-30.83342,-20.479813,0.4086151,0.67211914,0.28720093,-5.3359003,-17.804161,-19.15237
1570714897,-1.0360107,-12.65065,-10.000397,-1.2798309,-1.1643982,-0.12080383,0.6244838,-7.0036526,-9.604376
1570714897,-1.0144653,-0.67845154,-4.455414,-0.9485321,-1.6437683,-0.60017395,-0.7892828,6.5271883,-2.1741848
1570714897,-0.59428406,1.7636414,2.3129883,0.35429382,-1.4360352,-0.37646484,0.17580521,10.904503,4.508646
1570714897,-6.461273,-11.803101,4.2534943,1.7316742,0.41859436,0.22647095,-5.3661785,-1.0476856,5.4580736
1570714897,-0.1956482,-24.940094,-11.766113,1.4483185,1.5722656,0.45018005,-0.57795656,-15.576133,-4.81886
1570714897,-0.39675903,-6.207855,5.6540985,-0.09738159,-0.50286865,-0.36260986,1.2487588,0.1832161,5.715075
1570714897,-2.3755646,1.019043,6.075485,1.32901,-0.68289185,-0.47872925,-1.1298497,9.568057,8.342916
1570714897,0.028213501,-7.0709686,4.43425,2.2153015,1.465744,0.27227783,0.2581761,3.4618282,5.8705587
1570714897,4.2431946,-16.511307,1.3325653,1.746582,1.9483032,0.47148132,4.1243906,-6.914936,3.6064641
1570714897,0.57528687,-10.838242,-2.4802094,1.2501678,0.9640045,-0.59910583,2.3592176,-2.899725,-2.605216
1570714897,-4.5327454,-7.261307,0.78189087,1.364151,1.6202087,-0.1421051,-3.6164012,1.5577345,0.32353383
1570714897,-5.6711884,-6.6364136,3.8237305,1.3439178,2.3712158,-0.24224854,-5.360713,1.947217,3.6223185
1570714897,-0.72236633,-9.056961,2.9151306,1.0818634,0.96932983,0.38946533,-1.2745185,0.4029684,2.0096312
1570714897,5.4283295,-9.168289,0.076812744,0.91567993,0.6039429,0.22221375,5.790303,-0.49801254,-0.19104332
1570714897,2.185379,-8.623611,1.0596313,0.8560333,1.371994,-0.14956665,3.5440152,0.10718441,-0.36875832
1570714897,-2.2367096,-6.8339386,1.4893799,1.0903778,1.0481567,-0.10269165,-1.2570633,1.848978,-0.050814748
1570714898,-1.2490997,-6.792038,1.5504303,1.1575012,0.38237,0.23606873,-0.8172362,1.9829426,9.914637E-4
1570714898,0.4220581,-7.3558807,2.2890472,1.344986,0.3365631,0.32873535,1.0391697,1.5153341,0.22729969
1570714898,1.6790161,-8.450027,0.29348755,1.5058441,0.117111206,0.304245,2.5155134,0.19195652,-1.7253551
1570714898,0.25445557,-10.066116,-1.5799866,1.282135,0.47398376,0.22753906,1.6739912,-1.5007963,-4.045121
1570714898,-0.84687805,-10.165466,-0.009384155,0.80062866,0.61672974,0.27548218,-0.23373461,-1.5825777,-3.6474154
1570714898,3.0568695,-13.623901,-0.63427734,0.13909912,0.13310242,0.210495,4.06443,-5.215892,-3.096387
1570714898,-1.0587616,-10.243286,-4.9665833,0.09542847,2.0154114,-0.23692322,0.9173993,-2.421176,-7.774775
1570714898,-2.938202,-11.190186,-2.5807648,-0.455307,1.7001038,0.107162476,-1.866877,-2.1766071,-5.8976183
1570714898,3.066452,-14.083588,-4.970169,-1.8358917,-0.2908783,0.5726776,4.4876666,-5.5870285,-7.051418
1570714898,-0.27226257,-12.299896,-1.6446228,-3.4231415,0.042541504,-0.061141968,1.5506755,-3.834899,-3.7067537
1570714898,-3.7905426,-9.560944,3.7590942,-3.625534,-0.7936859,-0.23158264,-2.0140443,-0.41641235,3.1662724
1570714898,-3.7498474,-15.4231415,1.0727997,-3.431656,0.048934937,-0.11227417,-1.6396569,-6.037051,1.4077291
1570714898,0.25086975,-14.164993,3.8799896,-2.508072,1.1653442,-0.23052979,1.5167453,-6.2627068,5.0862956
1570714898,1.6814117,-10.631149,2.9295044,-2.1427002,0.6508179,-0.80789185,3.4027133,-1.8205137,4.5732226
1570714898,-1.1413574,-9.6519165,2.4913635,-2.3088684,-1.1313782,-0.9399872,0.059268713,-0.9351177,4.1868963
1570714898,-0.49012756,-9.162308,1.8173828,-2.5783844,-2.5971832,-0.5746002,0.44559264,-0.52439404,4.4686995
1570714898,-0.42190552,-7.7341614,2.6613464,-2.4367065,-2.2957,-0.62254333,0.6887915,0.62147427,5.776429
1570714898,-1.2155762,-6.689087,2.5572052,-1.901947,-2.3319244,-0.74824524,-0.084988356,1.5093327,6.155069
1570714898,-2.1145935,-5.6116943,3.0803375,-1.1477356,-2.1881104,-0.9325409,-0.9005556,2.388708,6.938966
1570714898,-2.6042175,-3.2426453,3.4203033,-0.19645691,-2.0155487,-0.9676819,-1.4051764,4.653051,7.3058634
1570714898,-2.680832,-0.47853088,2.663742,0.87519836,-1.0887604,-0.8569031,-1.5019516,7.465948,6.3779235
1570714898,-2.7322998,-0.28700256,0.5855713,1.8818817,0.17996216,-0.57566833,-1.6699704,7.892844,4.0866036
1570714898,-1.906311,-4.7857056,-4.32135,2.6595154,1.1035461,-0.4872589,-1.0077268,3.8198328,-1.2159512
1570714898,-4.049118,-17.574326,-17.126724,1.504776,1.2995605,-0.26034546,-3.2051601,-8.111412,-14.707693
1570714898,3.9546967,-25.695465,-13.020676,-0.33494568,-1.9228668,0.05177307,3.8861945,-19.326393,-11.1485
1570714898,-1.8763733,-7.7820435,-6.1457214,-1.2457428,-0.7979431,-0.52879333,-0.7495978,-0.44331646,-4.2115293
1570714898,1.0110321,0.23973083,-1.9869995,-0.6044464,-1.0781097,-0.4627533,1.637466,8.591378,0.5188465
1570714898,-2.6437225,-6.5801544,0.42396545,1.2523041,-1.240036,-0.47659302,-1.6593473,2.4591513,3.2497213
1570714898,-4.01799,-21.322449,-8.189178,1.3076935,0.9256592,0.5833435,-3.5689921,-12.305971,-5.448552
1570714898,-2.1145935,-10.651489,7.684387,-1.0859528,1.2803802,0.118881226,-1.1776062,-3.1366072,8.870146
1570714898,-2.5084534,1.6511078,6.2035675,1.1734772,-2.595047,-0.10482788,-1.8133756,10.219225,8.728373
1570714898,2.1662292,-3.6245117,3.235962,2.3601837,0.7850342,0.121017456,2.5608246,6.609107,5.313961
1570714898,2.6366882,-16.860855,2.5045319,2.2770844,3.7390137,0.38200378,3.330779,-7.791623,3.9147315
1570714899,1.4683228,-12.338211,-1.0077667,1.2501678,-0.117248535,-0.18577576,2.4771733,-3.8826742,-0.58364004
1570714899,-3.9880676,-5.697891,0.6957092,1.2832031,0.07876587,-0.267807,-3.1880927,3.097268,0.976757
1570714899,-5.680771,-6.3012238,3.9913177,1.5686951,1.9312592,-0.4308014,-5.0024757,2.530139,3.656439
1570714899,-1.8440552,-8.28244,1.7431641,1.3023682,1.097168,0.21688843,-1.4669816,0.75156975,1.1713879
1570714899,2.5074005,-9.777618,0.098358154,1.2586975,0.7253876,0.093322754,3.1116946,-0.89891434,-0.759248
1570714899,2.9802551,-9.177872,1.7288055,0.7835846,0.94589233,0.105041504,3.7131486,-0.23974323,0.52028775
1570714899,0.29756165,-8.452423,0.14025879,1.218216,0.98316956,-0.20709229,1.1993017,0.3057871,-1.1628947
1570714899,-2.0655212,-7.6958466,1.7180328,1.20224,0.74775696,0.010223389,-1.284015,1.0251913,0.020743847
1570714899,-1.0683289,-7.3666534,1.908371,1.1489716,-0.02456665,0.32980347,-0.31633097,1.3471518,0.047297
1570714899,0.57289124,-8.909714,0.24798584,1.3769379,0.124572754,0.419281,1.410012,-0.23082924,-1.949657
1570714899,1.9028625,-9.453201,-0.23324585,1.2235413,0.20872498,0.37347412,2.9198074,-0.90732956,-2.7908022
1570714899,-0.52485657,-10.109207,-2.6166687,0.8634796,0.32591248,0.08798218,0.69055593,-1.8113871,-5.323925
1570714899,1.4539642,-11.32666,0.7866821,0.27226257,0.40792847,0.13699341,2.4581022,-2.7836008,-2.1984258
1570714899,2.4798737,-12.759598,-0.9072113,-0.17941284,0.48995972,0.010223389,3.715108,-4.4128056,-3.7083938
1570714899,0.40888977,-13.416794,-1.9283447,-0.39672852,1.163208,-0.37327576,1.6406308,-4.9450703,-4.636922
1570714899,-1.5627441,-11.5924225,-2.7124329,-1.1424103,0.16931152,-0.1144104,-0.3490014,-3.1682072,-5.110441
1570714899,-2.2594452,-10.704163,-6.2055817,-2.3845062,-0.88848877,0.5907898,-1.0551641,-1.9960022,-8.040835
1570714899,-3.171646,-8.420105,-1.6529999,-3.6404572,0.008453369,0.62701416,-1.8727007,0.2707367,-3.17307
1570714899,-2.0798798,-13.707687,2.1513824,-3.5072937,0.0031280518,0.22647095,-0.53770816,-3.9516287,2.2440944
1570714899,-2.4485931,-16.917114,2.04245,-2.9118195,1.2654724,-0.22625732,-0.9825109,-8.198169,2.6296768
1570714899,0.24128723,-11.400879,4.893936,-2.3813171,0.3269806,-0.6683502,1.6140481,-2.7941742,6.581971
1570714899,0.07728577,-9.820709,1.3888245,-2.2470856,0.1906128,-0.83665466,1.1312708,-0.91982937,3.7689433
1570714899,2.2117157,-11.342224,-0.21768188,-2.7179413,-2.0815887,-0.8387909,3.1529937,-2.6072626,2.530845
1570714899,0.07849121,-8.335098,1.0129395,-2.6476288,-1.5489502,-0.87394714,1.539706,-0.45642376,3.6775362
1570714899,-2.9286346,-5.4177704,3.0563965,-2.3376312,-2.2094269,-0.65130615,-1.9249674,2.6393929,6.910266
1570714899,-2.1301575,-3.8519592,2.5883179,-1.8518829,-2.2680054,-0.5330658,-1.179041,3.8323998,6.6007533
1570714899,-2.2809906,-2.8523865,3.28862,-0.7738342,-1.8674774,-0.49363708,-1.1460125,4.800091,7.5788827
1570714899,-1.7806091,-1.7498474,3.2036285,0.37345886,-1.4509583,-0.54797363,-0.6407598,5.648663,7.5843573
1570714899,-2.1804352,-0.43544006,2.1082916,1.6720123,-0.38781738,-0.6438446,-0.965142,7.372842,6.1831307
1570714899,-1.950592,-1.8599854,-1.4554901,2.653122,0.44841003,-0.52879333,-1.1091293,6.5765095,2.5757782
1570714899,-0.8492584,-8.949219,-13.419312,2.829956,1.2175293,-0.7610321,0.32033724,0.63566303,-7.7970076
1570714899,-6.31044,-34.21283,-16.134338,-0.40951538,-0.32496643,0.4139557,-7.7884035,-22.301739,-16.402168
1570714899,-0.32374573,-11.799515,-9.022354,-0.9772949,-1.4051514,-0.023864746,0.71691537,-4.1953135,-6.8771734
1570714900,-0.86242676,1.5649261,-4.7702484,-0.7471924,-1.7492218,-0.44889832,-0.3508528,9.154627,-2.2766938
1570714900,-2.8113098,0.14276123,2.3417206,0.4128723,-1.0376282,-0.38179016,-1.2372785,8.9082155,5.053572
1570714900,-9.01709,-17.697632,0.8166199,2.0714874,0.70088196,0.97109985,-8.656756,-7.672823,6.2454195
1570714900,1.8896942,-19.838043,-0.5325165,-0.45425415,1.4092865,0.68666077,1.2784693,-13.449244,-2.0946548
1570714900,1.8861084,-2.1018066,6.7530365,0.85069275,-1.3678589,-0.05369568,3.193808,6.185236,9.198534
1570714900,1.9232178,-1.079483,3.5831146,2.5625763,1.305954,-0.54371643,2.781251,8.091081,5.193468
1570714900,1.3976898,-11.748047,4.234329,2.3537903,3.7155762,0.27653503,2.561586,-2.3582153,5.3405066
1570714900,3.497406,-17.083511,-1.115509,1.8680267,0.8638611,0.30636597,4.7712545,-9.663673,0.22674358
1570714900,-2.2762146,-7.816757,-1.0891724,1.1649475,-0.73083496,-0.62254333,-0.6312259,0.2429514,-1.1963667
1570714900,-3.5762634,-7.0709686,1.7312012,1.5409851,1.7245941,-0.34024048,-2.8783169,2.4762049,0.7604661
1570714900,-4.222702,-6.7274017,0.081588745,1.6421967,2.149643,-0.3338623,-3.829383,2.4136105,0.29243618
1570714900,-0.48295593,-9.523834,1.319397,1.1116943,1.5797272,0.20091248,-0.37592185,-0.36541557,-0.07435435
1570714900,3.7523956,-9.163498,2.881607,0.7420502,0.56985474,0.17640686,4.104723,-0.10037422,1.7638062
1570714900,3.3489685,-9.426865,-0.6618042,1.1468506,1.0769196,-0.19004822,4.769722,-0.58672523,-1.7321755
1570714900,-2.1050262,-7.400177,2.1633453,1.1798706,1.229248,-0.1847229,-0.76899004,1.1569185,0.16799152
1570714900,-2.3420563,-6.736969,2.2662964,1.1159515,-0.12150574,0.2850647,-1.620295,2.0060406,0.582963
1570714900,-0.35964966,-7.5414276,-0.13987732,1.3002472,0.14801025,0.4150238,0.44102526,1.1398296,-2.1054525
1570714900,1.1510925,-9.13118,-0.0021972656,1.3279419,0.27371216,0.42355347,2.0506182,-0.5979786,-2.367623
1570714900,1.7113342,-10.542557,-1.4794312,1.0520325,0.2939453,0.20835876,3.2125936,-1.9386549,-3.8091877
1570714900,0.16348267,-10.286377,-0.58399963,0.4789276,0.8052826,0.1561737,0.76132894,-1.7634678,-4.51861
1570714900,1.5425415,-13.649033,-0.5827942,-0.26889038,0.11817932,-0.105895996,3.2767904,-5.367221,-2.7930422
1570714900,-2.361206,-8.883377,-3.8772125,-0.07926941,1.5211334,-0.3423767,-0.66848695,-1.1207857,-6.7955594
1570714900,-1.8524323,-11.398483,-1.7308197,-0.7440033,1.1621399,0.34791565,-1.1233301,-2.0305462,-5.301874
1570714900,4.587967,-13.614319,-5.4933014,-1.8987427,-0.38674927,0.6792145,5.6362233,-5.1240435,-7.129987
1570714900,1.6849976,-13.218079,-1.1681824,-3.3485718,-0.28555298,0.010223389,3.5819654,-4.669758,-3.079193
1570714900,-6.179962,-9.201813,3.9290771,-3.4891815,-1.1516113,-0.27526855,-4.4692507,-0.238101,3.3139272
1570714900,-5.522751,-15.374054,0.53289795,-3.1664124,0.82658386,0.041122437,-4.3352065,-5.7268457,0.61312056
1570714900,0.99905396,-14.572006,7.036743,-2.18956,1.9397888,-0.26567078,0.81466925,-6.489711,5.0477123
1570714900,0.12516785,-9.456787,1.4606476,-2.0628052,0.12564087,-0.84198,1.7930874,-0.94414616,3.1854606
1570714900,-1.0360107,-9.398132,1.1506042,-2.4324493,-1.5351105,-0.78126526,0.110482454,-0.6554308,3.045171
1570714900,-0.51408386,-9.19223,2.098709,-2.4398956,-2.2690735,-0.47233582,0.64320815,-0.69444084,4.808216
1570714900,-1.1784668,-7.3630524,3.2706757,-2.2406921,-1.8908997,-0.45210266,-0.0043637753,0.8559351,6.056488
1570714900,-2.1074219,-6.3862305,2.0280762,-1.855072,-1.8728027,-0.48512268,-1.0214404,1.899045,5.489423
1570714900,-1.9936981,-5.5841675,2.7212067,-1.1594543,-1.6746521,-0.6726074,-0.6926379,2.2059412,6.4311934
1570714901,-1.9075012,-3.5862122,2.9821625,-0.2752838,-1.6608124,-0.7120209,-0.63806415,4.308824,6.854971
1570714901,-2.1457214,-1.3428345,1.9909668,0.6962433,-1.0227203,-0.73332214,-0.7637178,6.1910477,5.8956223
1570714901,-2.3671875,-0.37797546,0.71006775,1.6379242,-0.0597229,-0.5746002,-1.2046726,7.6968737,4.415658
1570714901,-0.97735596,-4.2709503,-4.5128784,2.5647125,0.8510895,-0.53518677,0.0028088093,4.247904,-1.3276832
1570714901,-3.0028534,-15.618271,-18.085602,1.3524323,1.0875702,-0.2912445,-2.0053253,-6.3522596,-15.812449
1570714901,1.0756683,-23.959671,-13.477966,-0.13253784,-1.6480255,0.04963684,2.0830996,-16.116104,-11.122015
1570714901,-2.115799,-7.353485,-5.8524323,-1.0614471,-1.2794495,-0.41481018,-1.2299368,0.7831106,-3.581165
1570714901,-0.026855469,1.0465698,-1.8888397,-0.293396,-1.2293701,-0.5330658,0.85044813,9.429302,0.5615432
1570714901,-8.618454,-9.989502,3.0049133,1.3375244,-0.77557373,-0.15808105,-7.3626857,-0.67221546,5.7771273
1570714901,-2.412674,-22.049088,-10.576202,0.59609985,1.0545502,0.7495117,-2.259327,-13.373847,-7.519861
1570714901,-0.3716278,-4.9042206,11.105698,-0.28274536,-0.3143158,0.19770813,0.92992973,3.0209808,13.240164
1570714901,0.3143158,1.2668457,5.4601746,1.3492432,-1.5159302,-0.13998413,1.2425642,9.950354,7.5565004
1570714901,2.4583282,-5.2908783,3.9398499,2.4464722,2.183731,-0.013214111,3.6731453,4.703437,5.6811304
1570714901,3.1801758,-19.337662,0.038497925,1.9159698,2.8324738,0.42355347,3.9912653,-10.404579,1.5407199
1570714901,0.39930725,-10.283981,0.30186462,0.8336487,-0.66477966,-0.41481018,2.8019032,-3.5039482,0.43650585
1570714901,-3.420639,-5.621277,1.4055939,1.471756,0.093673706,-0.23797607,-2.4283528,3.2204456,1.7967397
1570714901,-4.49205,-8.246521,2.7511292,1.7551117,1.6830597,-0.5000305,-3.5618522,0.5743637,2.553402
1570714901,-2.1421356,-8.585297,0.7830963,1.3513794,0.75627136,-0.014282227,-1.4898746,0.40514565,0.21821547
1570714901,1.3952942,-9.375381,-0.74679565,1.3013,1.0044861,0.03366089,2.1446946,-0.51349735,-1.4382057
1570714901,3.4531097,-9.492706,1.6102905,0.9529724,1.1727905,-0.07499695,4.2755113,-0.7885895,0.30387986
1570714901,0.43881226,-8.701416,1.1290588,1.3034363,1.2143402,-0.2582245,1.44999,0.060811043,-0.15610123
1570714901,-1.8009644,-7.7078247,0.18095398,1.1745453,0.112854004,0.03579712,-0.9924091,0.9900713,-1.4052837
1570714901,-0.7295532,-7.5917053,1.1134949,1.125534,-0.11190796,0.34577942,0.06379312,1.0865507,-0.8588351
1570714901,0.66625977,-9.040192,0.7232361,1.3971863,-0.037353516,0.41609192,1.5834419,-0.40610313,-1.4552944
1570714901,0.17185974,-9.080902,-0.68574524,1.2246094,0.2108612,0.32766724,1.2765772,-0.55242634,-3.246453
1570714901,-1.4669647,-8.85704,-1.451889,0.836853,0.6902313,0.23072815,-0.3925271,-0.44316292,-4.3317614
1570714901,3.465088,-13.271942,1.2451782,0.16360474,0.32270813,0.29252625,4.549454,-4.809038,-1.5600104
1570714901,2.1446838,-11.513412,-2.3796387,-0.13146973,1.1568146,-0.17726135,3.7292433,-3.3091154,-5.0570965
1570714901,-2.8208923,-12.006607,-3.0895233,-0.31469727,1.3954315,-0.3466339,-1.4426879,-3.4325,-5.710818
1570714901,1.6407013,-13.073227,-3.0667877,-1.7698517,-0.62750244,0.339386,2.8070393,-4.5815496,-5.1893635
1570714901,0.48191833,-12.29512,-4.839691,-3.1216736,-0.654129,0.433136,2.0958667,-3.660717,-6.7275863
1570714901,-5.539505,-9.234131,2.4279175,-3.7288666,-0.30685425,0.12741089,-3.9914618,-0.43980408,1.3789884
1570714901,-4.4824677,-14.209274,0.74838257,-3.2686768,-0.037353516,-0.05369568,-3.0740263,-5.0900955,1.0880892
1570714902,-0.73313904,-13.828598,2.8038025,-2.5954285,2.2700195,-0.092041016,0.37838292,-5.07543,3.3603392
1570714902,1.3952942,-10.244476,3.9266815,-2.109665,0.2843628,-0.68751526,3.0114481,-2.0312405,7.141415
1570714902,1.1774292,-8.885773,1.3493195,-2.126709,-1.033371,-0.8760681,2.1769743,-0.17657852,3.4326527
1570714902,0.95835876,-8.958801,0.46107483,-2.4473572,-2.149765,-0.7003021,1.9358394,-0.33641243,2.9845932
1570714902,-1.2359314,-7.6623383,2.4518585,-2.2183228,-2.0954437,-0.75782776,-0.13644731,0.6733246,5.4824977
1570714902,-3.1584778,-5.961258,1.9155579,-1.8103333,-2.066681,-0.7354584,-2.13861,2.2756414,5.460355
1570714902,-3.2063599,-6.18631,1.8425293,-1.2883453,-1.8376465,-0.77593994,-2.1744952,1.8767233,5.629098
1570714902,-3.1572723,-4.592972,2.4949493,-0.6268158,-1.6949005,-0.62680054,-2.0786133,3.2749023,6.410753
1570714902,-2.225937,-1.9437866,2.0891266,0.24775696,-1.177185,-0.5426483,-1.1059456,5.891912,5.991035
1570714902,-2.0044708,-1.1848297,1.1517944,1.3194122,-0.06930542,-0.47233582,-0.9191798,6.8326197,4.8651433
1570714902,-1.6261902,-2.3675537,-1.0736084,2.1844177,0.7679901,-0.38604736,-0.7244229,5.8962803,2.177069
1570714902,-0.26628113,-8.4739685,-8.33522,2.557251,0.8979492,-0.60017395,0.47824055,0.2829752,-5.055971
1570714902,-3.3404388,-27.328308,-18.348969,0.5300598,-0.24613953,-0.10694885,-2.8839526,-17.901089,-15.604634
1570714902,-2.6640778,-11.373352,-8.140091,-0.94000244,-1.2996826,0.085861206,-1.7449224,-4.9064693,-7.0646706
1570714902,-1.3819733,-3.0151825,-4.139389,-0.6193695,-1.9612122,-0.41375732,-0.64369553,5.155795,-1.6284752
1570714902,-6.821594,-6.535858,1.2236328,0.31806946,-0.05758667,-0.37220764,-4.6008167,3.7585602,2.5413253
1570714902,-4.2370605,-16.719604,-7.0184174,0.8219452,-0.7233734,0.54711914,-3.9900196,-7.861497,-3.813127
1570714902,3.3345947,-10.331863,2.6613464,-0.375412,1.3091431,0.32022095,3.4229336,-4.1221952,2.872422
1570714902,-0.33570862,-1.194397,9.496796,0.9753418,-0.5145874,-0.4201355,0.7629043,7.3380337,12.252188
1570714902,-0.7295532,-3.40065,1.3122101,2.478424,1.0087433,-0.0909729,-0.22707438,5.9344006,3.739108
1570714902,0.255661,-14.747971,2.8780212,2.477356,3.2862854,0.44059753,0.82184386,-5.5806255,3.9764833
1570714902,4.1701813,-13.688538,0.2527771,1.3002472,0.7136688,0.12208557,5.0568924,-5.201806,0.9793561
1570714902,-1.5016785,-6.933304,0.4119873,1.3545685,-0.4900818,-0.20495605,-0.29203868,1.724783,0.8717034
1570714902,-3.8611755,-7.1212463,-0.933548,1.7401886,1.3442993,-0.04837036,-3.2220714,1.9016304,-0.9916736
1570714902,-2.3791656,-7.5438232,1.5588226,1.5431213,2.0803986,-0.19216919,-2.073087,1.1648254,0.82541
1570714902,0.8565979,-8.743317,2.912735,1.249115,0.6358948,0.060287476,1.2731786,0.4166832,2.5832186
1570714902,2.3086853,-9.346649,0.29109192,1.1298065,0.6295166,0.05923462,2.9608874,-0.5722828,-0.70378435
1570714902,1.9710999,-9.030624,0.5161438,1.1521759,1.1653442,-0.21987915,3.0018706,-0.35822868,-0.77703464
1570714902,-1.5411835,-7.65036,1.5528259,1.2277985,1.1056824,-0.1421051,-0.539295,0.97296333,-0.20510817
1570714902,-1.8907471,-7.693466,1.7359924,1.1148834,0.18209839,0.23712158,-1.3321924,1.1143055,-0.03720212
1570714902,0.1586914,-8.128006,0.536499,1.1947784,0.114990234,0.35217285,0.7836083,0.4126892,-1.5432396
1570714902,1.37854,-9.627975,0.8010559,1.3439178,0.33442688,0.33406067,2.22547,-1.0248652,-1.6682899
1570714902,2.405655,-9.19104,-0.9658661,1.0978394,0.23641968,0.26481628,3.4553516,-0.7135439,-3.5411909
1570714903,-1.1030579,-10.173859,-2.5807648,0.6493683,0.7456207,-0.019607544,0.31356776,-1.9400616,-5.8034787
1570714903,0.6566925,-12.522568,0.85372925,-0.11869812,0.45054626,0.025146484,1.7002164,-3.7760754,-1.9604359
1570714903,-1.7028046,-11.475098,-3.7982025,-0.43507385,0.7019501,-0.12294006,-0.45918596,-3.3318396,-6.4092584
1570714903,-1.361618,-10.406097,-4.18367,-0.56396484,1.3517609,0.24671936,-0.5610888,-1.1831083,-7.274865
1570714903,4.1474304,-15.596725,-4.120224,-1.9552002,0.051071167,0.62168884,4.919155,-6.9293814,-5.516735
1570714903,0.39093018,-13.093582,-2.7519379,-3.4508362,-0.3430786,0.016616821,2.92771,-5.015134,-5.2659206
1570714903,-5.7597656,-8.512283,4.2307434,-3.6340637,-0.73934937,-0.078186035,-4.203884,0.15812397,3.523744
1570714903,-4.2119293,-13.450317,0.7507782,-3.2782593,0.44947815,0.097579956,-2.7153769,-4.3538866,1.0994114
1570714903,1.9519501,-13.986618,4.8819733,-2.2822418,1.4700012,-0.29338074,3.1355214,-6.0388002,6.428981
1570714903,1.3438263,-11.0034485,1.4989624,-2.1171265,0.7584076,-0.79512024,3.086226,-2.2996368,3.4817858
1570714903,-1.2060089,-10.142731,1.8257751,-2.5112762,-1.415802,-0.92082214,-0.16739672,-1.4632196,4.05565
1570714903,-0.8779907,-9.88295,2.0137177,-2.4228516,-2.1678772,-0.63212585,0.00952965,-1.1665564,4.9422646
1570714903,-1.1724854,-7.404953,2.0915222,-2.3312378,-2.0613556,-0.60868835,-0.2525769,0.65467834,5.2579575
1570714903,-0.9653778,-6.511917,2.2423553,-1.8231201,-2.2104797,-0.57673645,-0.013599753,1.6916847,6.0438123
1570714903,-1.4849243,-5.6990967,3.292221,-1.12323,-2.1753387,-0.7397156,-0.17877722,2.0360909,6.914997
1570714903,-2.005661,-3.2115173,3.9075317,-0.2156372,-2.1550903,-0.77700806,-0.7575958,4.325248,8.030195
1570714903,-2.1576996,-0.7526703,3.000122,0.9529724,-1.2624054,-0.7610321,-0.84992003,6.955451,6.853183
1570714903,-2.2462769,-0.006881714,1.6222687,1.9010468,-0.33987427,-0.6481018,-1.0875785,8.012267,5.5092516
1570714903,-1.8213043,-3.7214813,-3.265503,2.7032013,0.7264557,-0.5660858,-0.761039,5.398587,0.046210527
1570714903,-4.5303497,-23.160004,-27.668396,0.8549652,1.451889,-0.44889832,-1.8320153,-7.373851,-21.797487
1570714903,0.5740814,-21.121338,-13.339111,-0.42121887,-2.1231384,0.17108154,1.40623,-17.892878,-11.096808
1570714903,-2.7095642,-4.384674,-5.3795776,-0.7951355,-1.0908966,-0.34024048,-1.7208407,3.012312,-3.2824938
1570714903,-0.9474335,1.0956573,-0.18655396,-0.14744568,-1.0855713,-0.4861908,-0.194067,9.5032425,1.4883258
1570714903,-5.081024,-7.978363,2.435089,1.2565613,-0.9897003,-0.22946167,-3.4744244,2.530778,4.4778795
1570714903,-1.6010437,-25.216629,-7.5247803,1.5292664,2.4660187,0.6248779,-1.2493596,-13.186505,-1.5153117
1570714903,-2.5479584,-6.8686523,8.479263,-0.43400574,-0.43681335,-0.066467285,-0.502023,-3.7441978,5.8573065
1570714903,-1.6752625,2.2376862,7.392288,1.3130188,-1.7694702,-0.27738953,-0.63336635,10.65054,9.706333
1570714903,1.7771759,-5.19751,6.7326813,2.7830963,1.6947784,0.04005432,2.3107374,5.2184734,7.8634195
1570714903,4.4598694,-18.014862,1.9670258,2.4858856,2.8495178,0.57055664,3.6102734,-7.542451,4.78511
1570714903,1.14151,-11.002243,-2.8656616,1.5527039,0.82658386,-0.3743286,4.281781,-3.9866886,-3.2564304
1570714903,-4.483658,-7.278061,2.9378815,1.1649475,1.2377777,-0.5927124,-3.5879445,1.5685015,2.377965
1570714903,-6.2613525,-5.1987,3.901535,1.266159,1.210083,-0.35409546,-5.527131,3.7747993,3.8713078
1570714903,-1.4537964,-8.809158,-0.61750793,1.249115,1.2931671,0.22114563,-0.93866634,0.07309818,-1.7288738
1570714903,4.079193,-9.262863,3.2227936,0.82299805,1.193039,0.13378906,4.819914,-0.46300697,1.7758266
1570714904,4.7328186,-9.344269,1.2715149,0.9114227,0.6827698,-0.056884766,5.9706783,-0.44610023,0.6163541
1570714904,-0.7367401,-7.839508,0.5640259,1.1404572,1.2782593,-0.30189514,0.7102325,0.5633316,-1.3814491
1570714904,-2.5455627,-6.6627502,3.197647,1.1798706,0.46012878,0.14231873,-1.7086275,2.003275,1.1428679
1570714904,-0.5284424,-7.6156464,2.2854614,1.3247375,0.08409119,0.37561035,0.36696935,1.0070066,0.07592392
1570714904,1.5269775,-9.601639,-0.00340271,1.3843994,0.035095215,0.4065094,2.5269198,-1.1767426,-2.5308776
1570714904,1.2971344,-10.292358,-2.1222687,1.1329956,0.32270813,0.2616272,2.5302854,-1.8354807,-5.02763
1570714904,-2.1660767,-9.68544,-2.4526672,0.677063,0.9586792,0.12953186,-0.9679277,-1.4797459,-5.7519484
1570714904,2.1602478,-13.157028,1.0835724,-0.016418457,0.3834381,0.24458313,3.38666,-4.740201,-1.9412928
1570714904,1.3629761,-11.907257,-1.6841278,-0.3679657,0.7264557,-0.115478516,3.1068292,-4.1504364,-4.3237696
1570714904,-0.26148987,-12.80867,-1.1478271,-0.49153137,0.99276733,-0.06434631,0.96329,-3.8206034,-3.997781
1570714904,1.1103821,-13.294693,-2.0731812,-1.6079254,-0.5603943,0.13806152,2.6484385,-4.8028975,-4.346568
1570714904,-3.6277313,-9.631561,-4.6984253,-2.7722626,-0.46238708,0.06668091,-2.0217488,-1.225461,-6.7589197
1570714904,-4.9601135,-7.0075226,1.8736572,-3.5957184,-0.25465393,0.29252625,-3.5723882,1.8372154,0.5566567
1570714904,-2.3396606,-11.6714325,1.2379913,-3.2612152,0.091552734,0.29678345,-0.92846715,-2.0999727,1.1956491
1570714904,0.14312744,-15.058029,2.6493683,-2.7381744,1.5722656,-0.089904785,1.6473892,-6.3506927,3.1292439
1570714904,0.9140625,-10.940002,4.382782,-2.014862,0.4335022,-0.664093,2.5057192,-2.3445492,5.9208894
1570714904,-1.6070251,-10.112793,1.2320099,-2.2172546,-0.02243042,-0.7972412,-0.2912798,-1.3517122,3.031485
1570714904,-0.491333,-10.153503,1.4917755,-2.2342987,-1.6043549,-0.78019714,0.57718694,-1.5438862,3.9117112
1570714904,0.7560425,-9.6124115,0.15342712,-2.221527,-1.880249,-0.8579712,1.979605,-1.3378973,2.8653424
1570714904,-1.4537964,-6.75972,2.0209045,-1.931778,-2.0432434,-0.93040466,-0.4194842,1.5048065,5.2773314
1570714904,-2.8328552,-5.827179,3.3017883,-1.5184479,-2.501297,-0.8931122,-1.8125541,2.3008747,6.9018264
1570714904,-3.2051544,-4.9161835,3.6309967,-1.2276306,-2.5662842,-0.8217468,-2.1179128,2.9512444,7.3420396
1570714904,-2.4928894,-2.3663635,3.3879852,-0.0036468506,-1.6512146,-0.5383911,-1.3917776,5.55622,7.210388
1570714904,-2.1122131,-0.8723755,2.5955048,0.9316559,-0.70526123,-0.52667236,-0.97576535,7.249197,6.0890713
1570714904,-1.1868439,-0.83047485,-0.29310608,2.033142,0.21618652,-0.4584961,-0.16573274,7.3846436,2.9940264
1570714904,-0.12261963,-5.9756165,-7.8132935,2.734085,0.9608002,-0.63319397,0.7002484,3.4096746,-2.879902
1570714904,-5.3838806,-26.85904,-16.786758,0.28398132,0.9618683,0.32128906,-5.288362,-17.328936,-14.962885
1570714904,-0.34768677,-14.572006,-8.900253,-0.6055145,-1.1398926,-0.17086792,0.71971107,-6.9254217,-6.977358
1570714904,-1.4693604,-1.7019653,-5.629776,-0.81536865,-1.8621368,-0.6385193,-0.87943965,6.3972454,-3.0587118
1570714904,-1.8392639,0.8694,1.006958,0.29037476,-1.115387,-0.52027893,-0.9231596,9.71818,3.3888857
1570714904,-8.778854,-16.702835,0.8704834,1.9383392,-0.47836304,0.5385895,-8.276489,-7.423602,3.8831704
1570714904,1.157074,-22.11972,-7.396698,-0.16662598,2.4777374,0.6280823,1.9157462,-13.724134,-6.137912
1570714904,0.22932434,-1.8599854,9.259766,0.56307983,-1.1409607,-0.17939758,1.0638795,6.383972,11.475954
1570714905,0.4052887,0.3678131,5.8037415,2.255783,-0.7915497,-0.47872925,1.2882736,9.298623,7.6567655
1570714905,0.6255646,-11.3003235,4.73114,2.52742,2.757904,0.4938507,1.5074422,-1.8412561,5.6459823
1570714905,4.568817,-18.510468,-1.3226013,1.8936005,1.4976959,0.64512634,5.387741,-9.893019,-0.7641276
1570714905,-0.63497925,-8.402145,-0.680954,1.2107544,-0.48262024,-0.5895233,0.50395995,0.25079823,-0.9962782
1570714905,-3.2458649,-7.3127747,2.169342,1.298111,1.3826447,-0.39883423,-2.4046972,1.7701855,1.6711228
1570714905,-4.891876,-6.7896423,0.1330719,1.3971863,1.3421783,-0.42973328,-4.2108984,2.1502285,-0.065081894
1570714905,-1.5782928,-8.764862,0.88246155,0.9742737,1.4369812,0.12420654,-1.4919006,0.32115364,-0.66562754
1570714905,3.4962158,-9.223358,3.477768,0.66108704,0.6699829,0.12208557,3.8516297,-0.45760727,2.1777937
1570714905,3.9223785,-9.763245,0.021743774,0.7889099,0.64656067,-0.113342285,5.223013,-0.9145651,-1.1269382
1570714905,-1.0827026,-7.934082,0.7651367,1.0637512,1.3996887,-0.32214355,-0.16539448,0.6967869,-0.95945716
1570714905,-2.266632,-7.285248,3.158142,1.0136871,0.09580994,0.14871216,-1.5929788,1.4226446,1.4270163
1570714905,-0.8636322,-7.515091,1.224823,1.0882568,-0.21418762,0.35749817,-0.10431653,1.1087179,-0.7120478
1570714905,0.41966248,-8.878586,0.94111633,1.3215485,0.24176025,0.38414,1.2825403,-0.2738762,-1.4306929
1570714905,1.4192352,-9.690216,-0.21289062,1.122345,0.08834839,0.32022095,2.410008,-0.8239088,-2.5749114
1570714905,1.4192352,-9.690216,-0.21289062,1.122345,0.08834839,0.32022095,2.410008,-0.8239088,-2.5749114
1570714905,0.6674652,-11.148285,0.77471924,0.2552185,0.58903503,0.18919373,1.143302,-2.1137714,-2.701163
1570714905,0.9224396,-11.657059,-2.3401337,-0.20924377,1.1205902,-0.08351135,2.4950767,-3.7467575,-4.7991734
1570714905,-1.1976166,-11.473907,-2.2443695,-0.18048096,1.5818481,-0.22413635,0.15503824,-2.9106617,-5.0044184
1570714905,1.53656,-13.135483,-2.9650269,-1.3842316,-0.12043762,0.35856628,2.5406234,-4.7061014,-4.8502426
1570714905,0.38494873,-12.406448,-5.6441345,-2.5805206,-0.36437988,0.28399658,2.0088906,-3.8984852,-7.620122
1570714905,-3.6121674,-8.506287,2.1226501,-3.60849,-0.1662445,0.11355591,-2.066496,0.1028347,0.60499465
1570714905,-3.9317932,-11.42363,1.4594574,-3.3975677,-0.14173889,-0.016403198,-2.5423837,-2.2608528,1.4887985
1570714905,-2.1050262,-15.816986,2.059204,-2.7104797,2.1645508,-0.18791199,-0.8758044,-6.9581995,2.5646536
1570714905,2.1159515,-10.905273,4.446228,-1.9903564,0.3919525,-0.6704712,3.3319263,-2.9018612,6.707037
1570714905,-0.17289734,-9.739304,0.43354797,-2.2300415,-0.041610718,-0.85476685,1.20552,-0.83712864,2.217936
1570714905,-0.51408386,-10.16069,1.3936157,-2.363205,-1.3881073,-0.6864624,0.3168773,-1.4689627,3.8200657
1570714905,-0.60505676,-8.851059,1.1709595,-2.3450928,-1.6970215,-0.5511627,0.4755053,-0.4929018,4.1015983
1570714905,-1.7889862,-7.1691284,2.1705322,-2.047882,-2.2147522,-0.6608887,-0.803072,1.0144424,5.848386
1570714905,-1.5699158,-5.921753,2.6817017,-1.7027435,-2.166809,-0.5873871,-0.6693425,1.9915752,6.418811
1570714905,-1.8260956,-4.748596,3.7351532,-1.1988678,-2.243515,-0.5660858,-0.699203,3.1164093,7.702861
1570714905,-2.053543,-2.3795319,3.60466,0.07092285,-1.8184662,-0.57780457,-0.79316306,5.4019694,7.6325293
1570714905,-2.1062164,-0.34805298,2.675705,1.251236,-0.75320435,-0.54797363,-1.0450145,7.4624853,6.5401506
1570714905,-1.4537964,-1.0687103,-0.100372314,2.2824097,0.22257996,-0.49258423,-0.34102333,7.1136723,3.3288133
1570714906,-1.8332825,-7.9484406,-9.794495,2.8651123,0.79356384,-0.69818115,-0.68197703,1.6061268,-5.3591948
1570714906,-3.2003784,-28.418869,-15.50705,0.04109192,-0.28981018,0.34152222,-4.500781,-17.769596,-16.138178
1570714906,-1.6357574,-12.842194,-9.273743,-0.53201294,-1.0887604,-0.09843445,0.39692408,-6.704093,-7.8965755
1570714906,-1.4370422,-2.3424225,-5.1090393,-0.81004333,-1.9164734,-0.6939087,-0.98241216,5.097108,-2.774512
1570714906,-6.081787,-5.365097,1.4414978,0.4363098,-0.42936707,-0.72906494,-3.3456502,5.1892138,2.982847
1570714906,-4.1532593,-18.99768,-6.436615,1.3694763,-1.0940857,0.74632263,-5.462223,-9.80074,-1.7573314
1570714906,3.4674835,-11.83902,0.59394836,-0.8771515,1.6383209,0.35110474,4.965557,-5.2268724,0.230613
1570714906,-3.5822449,1.789978,10.532288,0.79530334,-0.77770996,-0.42546082,-1.4250283,9.676155,14.045418
1570714906,-0.9103241,-1.3739624,2.7511292,2.5039978,0.103271484,0.11569214,-1.2716396,8.464292,4.4811606
1570714906,3.1382751,-17.002121,1.8161926,2.5487366,3.9446106,0.32022095,3.7858007,-6.50488,2.9379897
1570714906,5.288269,-14.956268,-2.1174774,0.98599243,1.2367096,-0.040908813,7.2639894,-7.7014627,-1.4931438
1570714906,-2.586258,-6.6675415,2.1884918,0.63764954,-1.368927,-0.22839355,-1.5618117,1.6740522,2.785056
1570714906,-4.040741,-6.1168823,0.45988464,1.0413818,-0.21951294,-0.04837036,-3.1758485,2.8277702,0.7610528
1570714906,-3.2374878,-9.011475,2.5380402,1.5090332,1.6404419,-0.21560669,-2.3925476,-0.26880932,2.1347172
1570714906,-0.15853882,-9.43045,2.833725,1.2341919,0.5730438,0.07733154,0.54682416,-0.5477953,2.4530094
1570714906,1.9507599,-8.593674,0.048080444,1.1170197,-0.09913635,0.06561279,2.7499418,0.22912693,-0.23336977
1570714906,1.8454132,-9.171875,2.2818604,1.0168762,0.7413635,-0.13464355,2.9531527,-0.040449142,0.7907594
1570714906,-0.9151001,-8.809158,1.6581726,1.3609619,0.7264557,-0.26994324,0.22417414,-0.16263485,0.63371074
1570714906,-2.349228,-7.958023,0.26715088,1.2778778,0.35147095,0.032592773,-1.5249993,0.7293558,-1.4879627
1570714906,-1.3867645,-7.5258636,1.947876,1.2480469,0.24069214,0.29464722,-0.69470835,1.0194674,-0.10653484
1570714906,0.74168396,-9.249695,0.8992157,1.3929138,-0.040542603,0.42674255,1.397714,-0.41125488,-1.1038492
1570714906,1.8908997,-9.3203125,-1.4806213,1.249115,0.14482117,0.29785156,3.0264544,-0.7780142,-3.8635845
1570714906,-1.5328064,-8.956406,-2.1581879,0.8847809,0.6785126,0.02619934,0.057487726,-0.8726797,-4.897955
1570714906,0.9020996,-11.291946,1.3995972,0.3383026,0.6625366,0.22007751,1.528811,-2.457982,-1.7846646
1570714906,2.9407501,-12.353775,-1.2711334,-0.16130066,0.8564148,0.03366089,4.405431,-4.2478456,-3.8201883
1570714906,-0.1381836,-11.852188,-1.6637726,-0.22415161,1.6617432,-0.46488953,1.538538,-3.3942137,-4.5282793
1570714906,0.10722351,-12.238846,-0.68574524,-1.2073975,-0.07676697,0.05923462,1.2755268,-3.8433352,-3.1087515
1570714906,-1.4310608,-12.258011,-5.9398193,-2.426056,-0.857605,0.26802063,0.0681088,-3.6744757,-7.8104563
1570714906,-5.5023956,-9.380173,-1.3597107,-3.5328674,0.046813965,0.27441406,-4.2002983,-0.8291464,-3.5406258
1570714906,-3.4493713,-12.119141,2.2507477,-3.2463074,-0.1385498,0.0048980713,-1.9985992,-3.169324,2.191781
1570714906,-1.7674408,-13.9543,1.4702301,-2.8777313,1.2601471,-0.1421051,-0.6941892,-4.969734,1.5247931
1570714906,1.5545197,-12.287933,4.8795776,-2.141632,0.78396606,-0.67367554,3.0734174,-3.7784138,6.402295
1570714906,0.046173096,-9.560944,-0.31225586,-2.2747803,-0.41125488,-0.7098999,1.0080571,-0.7654238,1.4928889
1570714906,0.5118408,-9.5334015,0.6645813,-2.430313,-1.2027435,-0.7684784,1.4868569,-0.84236526,2.6654594
1570714907,-0.25190735,-9.372986,0.9219513,-2.5187378,-1.7545471,-0.80470276,0.7660846,-0.97747517,4.0408607
1570714907,-2.210373,-7.6683197,1.114685,-2.446289,-2.0293884,-0.7045746,-1.2912779,0.57247066,4.5676026
1570714907,-2.7969513,-6.637619,1.3876343,-2.077713,-2.0592194,-0.69818115,-1.9065504,1.2815638,5.167467
1570714907,-2.115799,-4.4445343,2.3405304,-1.34375,-1.9484253,-0.50535583,-1.3069293,3.0692902,6.3487034
1570714907,-2.3863373,-2.9074554,2.06279,-0.53733826,-1.657608,-0.47872925,-1.1873839,4.629487,6.491402
1570714907,-2.294159,-1.0172272,1.4917755,0.4309845,-0.9982147,-0.5128174,-1.1421274,6.479967,5.8309617
1570714907,-1.80336,-0.7670288,-0.13388062,1.6720123,-0.21844482,-0.32533264,-0.59918,7.0820813,3.881451
1570714907,-0.9151001,-3.6412659,-2.9757996,2.429428,0.76586914,-0.38285828,0.11774385,4.595186,0.6810343
1570714907,-4.4740906,-11.476303,-11.824768,1.9702911,1.5264587,-0.36367798,-2.080055,-1.1511927,-8.255368
1570714907,-3.1381226,-27.98671,-17.959915,0.11993408,-1.099411,0.4416504,-3.6360753,-18.09448,-15.427519
1570714907,-2.0547485,-9.344269,-5.9877014,-0.4233551,-1.0887604,0.19877625,-0.75505173,-1.437087,-3.5193894
1570714907,-3.5834503,-3.031952,-3.6282196,-0.016418457,-1.6885071,-0.33598328,-2.1763933,5.370716,-0.77767944
1570714907,-10.926468,-11.786346,-0.00579834,0.9018402,0.7136688,0.35110474,-9.849617,-3.0383673,3.205262
1570714907,-1.574707,-11.38652,0.7579498,-0.23693848,1.3496246,0.8666992,-0.29396164,-3.1073341,3.2650383
1570714907,4.1438446,-6.2689056,7.9477386,0.8134155,0.50167847,0.37028503,5.688007,1.934598,10.445685
1570714907,1.4288177,-4.297287,2.7439423,1.9713593,1.4636078,-0.504303,2.9083107,4.2871017,5.2324734
1570714907,1.5976105,-9.277222,1.3529205,2.2802887,2.1730804,-0.04197693,2.8298087,-0.322011,3.4327943
1570714907,4.0803986,-14.653397,-1.443512,1.3023682,1.1397705,0.22860718,5.18096,-6.005497,0.14742398
1570714907,-0.11305237,-9.303558,0.22525024,0.6397705,-0.57211304,-0.33065796,1.1480503,-0.66024494,1.2657993
1570714907,-3.3679657,-6.6483917,-1.273529,1.4280701,0.31526184,-0.42973328,-2.2862487,2.0702477,-0.3785311
1570714907,-3.6995697,-6.5238953,-0.4271698,1.9884033,2.8761444,0.17001343,-2.9209676,2.484702,-0.15708524
1570714907,-1.1796722,-8.615234,4.0451965,1.6741486,2.1805267,-0.03237915,-0.052001655,0.22904491,4.1201887
1570714907,2.7156982,-9.255676,-0.42477417,1.204361,-0.45812988,0.069885254,3.5151763,-0.45955086,-0.5746841
1570714907,2.540924,-8.798386,-1.0353088,1.0999756,0.75520325,-0.115478516,3.4137623,0.08391285,-2.5896904
1570714907,-0.0687561,-7.8862,1.611496,1.1873169,0.8830414,-0.35728455,0.88156796,0.87986374,0.58478767
1570714907,-2.5575256,-7.305603,0.86808777,1.3353882,0.28222656,-0.09950256,-1.7169223,1.4284878,-0.3268323
1570714907,-1.1784668,-7.8095856,0.98420715,1.3215485,0.0031280518,0.26802063,-0.4548546,0.97189426,-0.7018113
1570714907,0.943985,-9.418488,1.8269653,1.4408569,-0.14920044,0.37986755,1.7992918,-0.67281723,-0.100681305
1570714907,1.4647369,-9.532211,-0.5169525,1.3353882,-0.025634766,0.27227783,2.4555383,-1.0835705,-2.7135186
1570714907,-0.72117615,-9.867401,-1.4171753,1.0222015,0.3919525,0.06455994,0.3214984,-1.4316826,-3.9558501
1570714907,0.54296875,-10.651489,0.6968994,0.49169922,0.44841003,0.13059998,1.4443345,-2.0465202,-2.1735663
1570714907,2.8892822,-13.87648,-0.63905334,-0.14425659,0.40792847,-4.272461E-4,4.0635633,-5.5475874,-3.2963614
1570714907,-0.71398926,-9.940414,-0.6713867,-0.016418457,1.401825,-0.28378296,0.5538899,-1.5412178,-3.3979366
1570714908,-0.87919617,-12.672195,-0.14225769,-0.36476135,0.3078003,0.1870575,0.14785182,-4.1012383,-2.7608697
1570714908,2.2572174,-12.723679,-3.1900787,-1.3064575,-0.6850281,0.45550537,3.334836,-4.1293793,-4.634024
1570714908,-2.0966492,-11.101608,-4.43985,-2.3546753,-0.061843872,0.19026184,-0.14855433,-2.8787584,-6.6642237
1570714908,-6.3164215,-7.1583557,0.517334,-3.4018402,-0.20779419,0.4704132,-4.883688,1.5652409,-0.8162023
1570714908,-2.9118652,-9.793167,0.9423065,-3.0769348,-0.15666199,0.47361755,-1.5948272,-0.68802357,0.89056516
1570714908,0.83865356,-14.340958,1.8233795,-2.6412354,1.1568146,-0.043045044,2.271104,-5.4615326,1.8554058
1570714908,1.8968811,-11.736069,2.4710083,-2.4707947,0.9821167,-0.5362549,3.4415681,-3.028473,3.6513126
1570714908,-0.58351135,-10.155899,3.706421,-2.140564,-0.27702332,-0.6587677,0.62047684,-1.634018,5.841728
1570714908,0.6291504,-9.678253,0.38804626,-2.3695984,-1.9857178,-0.52134705,1.6755496,-1.0126057,2.8421018
1570714908,0.17784119,-9.422073,0.8130188,-2.3397675,-1.8216705,-0.6214752,1.4355949,-0.96545124,3.538213
1570714908,-2.6963959,-7.2924347,1.9574585,-1.9850311,-2.3468323,-0.7418518,-1.3521018,0.89410114,5.4249563
1570714908,-2.8268738,-6.3622894,2.323761,-1.5951538,-2.165741,-0.7514343,-1.5973303,1.7262497,5.88266
1570714908,-2.5204163,-5.0155487,3.2263794,-0.88993835,-1.9217987,-0.67474365,-1.21506,2.931301,7.0074515
1570714908,-2.0104523,-2.8799133,2.943863,0.15614319,-1.4136658,-0.69818115,-0.7010826,4.815704,6.7885056
1570714908,-2.266632,-1.0651093,2.4255219,1.0957184,-0.51138306,-0.7279968,-0.95935154,6.9241056,6.0308337
1570714908,-3.0327759,-1.7271118,0.299469,2.205719,0.33016968,-0.5181427,-1.802926,6.7100534,3.7792776
1570714908,-1.4346466,-6.830353,-4.9510193,2.8086548,0.40792847,-0.5319977,-0.682042,2.483428,-0.5237584
1570714908,-9.892166,-22.944519,-17.123138,0.4224701,1.9472351,-0.113342285,-7.134355,-11.993495,-18.153393
1570714908,-1.1712799,-13.552078,-11.313614,-0.76530457,-1.8568115,0.19345093,-0.31457776,-8.731052,-10.165849
1570714908,-0.028060913,-3.9561157,-4.723572,-0.70991516,-1.0418854,-0.2081604,0.85592115,4.366729,-2.4840808
1570714908,-0.8169403,-2.6752167,-0.06086731,0.114608765,-0.24293518,-0.3338623,0.50732344,6.0901356,2.1806235
1570714908,-3.0543213,-15.597916,-1.4387207,1.2789307,0.05532837,0.2062378,-3.1972485,-6.286621,2.375191
1570714908,0.19340515,-15.550034,-6.045166,-0.39245605,0.9608002,0.6195526,0.74247706,-7.105014,-5.6153717
1570714908,-0.63497925,-4.091385,10.823181,0.3841095,-0.3228302,-0.1463623,0.6424577,4.1791553,12.93985
1570714908,-2.8615875,-0.18045044,3.8596497,2.3378143,-0.093811035,-0.5096283,-1.8830802,8.408758,7.3768578
1570714908,-0.73075867,-10.236099,2.2459564,2.5167694,2.691864,0.5918579,-0.031394064,0.71713257,3.1778092
1570714908,7.4418488,-17.267868,-0.32421875,1.5559082,1.6063538,0.6898651,7.7858067,-8.733842,0.08803809
1570714908,0.552536,-9.708176,0.35931396,1.0083618,-0.80752563,-0.47659302,1.9436462,-1.0830412,0.51752156
1570714908,-3.3931122,-6.6986694,0.69810486,1.4152832,0.7722473,-0.21453857,-2.4604778,2.4925165,0.21541438
1570714908,-3.3392334,-6.835144,3.0695648,1.4994507,1.4945068,-0.50216675,-2.6978486,1.8308544,2.9035733
1570714908,-1.5423889,-9.039001,0.7028961,1.2299347,0.9916992,-0.05581665,-1.0563083,0.14336395,-0.15089881
1570714908,1.9495544,-9.024643,1.4678345,0.9135437,0.67637634,0.03366089,2.3584208,-0.120508194,0.05502963
1570714908,3.1418762,-8.719376,0.96984863,0.87519836,0.8095398,-0.094177246,4.0107903,0.09981537,-0.32886672
1570714909,-0.70321655,-8.12561,1.6330414,1.0520325,0.92033386,-0.220932,0.56245387,0.44017887,0.11007309
1570714909,-2.282196,-7.535446,1.8939972,1.0328674,0.24281311,0.08692932,-1.6457222,1.3036461,-0.007196188
1570714909,-0.8061676,-8.180679,2.2028503,1.1170197,0.16931152,0.32128906,-0.12790877,0.42377758,0.12390995
1570714909,0.5561371,-9.441223,1.2188416,1.315155,-0.041610718,0.40437317,1.3227475,-0.75282,-0.9570534
1570714909,1.904068,-9.763245,-1.2914734,1.2416534,-0.10446167,0.37879944,2.8806908,-1.2014208,-3.7321982
1570714909,-0.8755951,-10.874161,-3.5731506,0.8411102,0.5602722,0.016616821,1.064558,-2.839734,-6.0813484
1570714909,1.0002594,-11.66185,0.9506836,0.09010315,0.6060791,0.25523376,1.6390264,-2.7082796,-2.5029318
1570714909,2.0094147,-12.613541,-1.0568542,-0.30830383,0.47610474,0.023010254,3.5056298,-4.831196,-3.3868434
1570714909,-1.6525269,-9.25209,-3.2535248,-0.20710754,1.0982208,-0.0909729,-0.059232473,-0.36628723,-5.802066
1570714909,1.0409546,-12.765579,-1.1023407,-1.2073975,-0.25039673,0.47787476,1.9403112,-4.2757463,-3.166513
1570714909,0.8673706,-12.94754,-4.7175903,-2.3408356,-0.5465393,0.24884033,2.698901,-4.460869,-6.7710695
1570714909,-4.231079,-9.125198,0.21208191,-3.5200806,-0.04373169,-4.272461E-4,-2.0889173,-0.89601135,-2.0919113
1570714909,-5.4712677,-10.073303,2.612259,-3.2686768,-0.1342926,-0.05581665,-4.109509,-0.71081066,2.7003984
1570714909,-2.7849731,-14.398422,0.94351196,-2.8148804,1.3560181,-0.029190063,-1.5423079,-5.452819,1.3445741
1570714909,2.0572968,-12.495026,4.0619507,-1.9679871,1.3368378,-0.6576996,3.4143996,-4.263444,5.707268
1570714909,-0.5128784,-10.368973,2.2375793,-2.160797,0.3642578,-0.8856659,0.85140395,-1.7042923,3.5627503
1570714909,-0.54400635,-9.984711,1.1673584,-2.5624084,-1.9686737,-0.699234,0.17077655,-1.3140211,3.5550642
1570714909,-0.8253174,-9.495102,1.6533813,-2.3600006,-1.6309814,-0.65023804,0.45145386,-1.1064005,4.3101377
1570714909,-2.2690277,-7.159546,2.363266,-2.2396393,-2.022995,-0.5884552,-1.2819359,1.011158,5.8088737
1570714909,-2.1433258,-6.0630035,2.0125122,-1.712326,-1.8930359,-0.59484863,-1.2392133,2.034113,5.5812244
1570714909,-2.2774048,-4.6360626,2.8780212,-0.96131897,-1.7460327,-0.6108246,-1.283561,3.199708,6.665521
1570714909,-1.7423096,-2.8021088,3.1282196,0.16041565,-1.5063477,-0.6204071,-0.63800895,5.05601,7.0527477
1570714909,-1.6477356,-0.6042328,2.1717377,1.23526,-0.55293274,-0.5511627,-0.7067754,7.1590486,6.004697
1570714909,-1.2275543,-1.1704559,0.61190796,2.1034546,0.23855591,-0.4446411,-0.30693102,7.11489,4.114361
1570714909,-1.0180511,-6.550232,-6.0583344,2.8182373,0.19914246,-0.5895233,0.08849341,3.4995756,-0.19239664
1570714909,-8.401779,-26.74173,-20.86528,0.0741272,1.272934,-0.018539429,-5.571245,-14.898176,-22.106098
1570714909,-0.11305237,-14.4032135,-11.213058,-0.8196411,-2.1689453,0.17747498,1.1886249,-9.268559,-9.90514
1570714909,-3.0363617,-3.1325073,-5.9290466,-0.9815521,-1.5468292,-0.4169464,-2.2036135,4.304472,-3.35354
1570714909,-1.1341705,0.924469,-0.61273193,-0.082473755,-0.42616272,-0.4308014,-0.2659229,9.658162,1.5122576
1570714909,-6.342758,-10.682617,5.9030914,1.4387207,-0.37184143,-0.014282227,-5.323019,-1.7057362,8.153727
1570714909,-0.88638306,-19.499268,-11.991165,1.125534,1.371994,0.71009827,-0.07428098,-10.531857,-9.407021
1570714909,-1.5292206,-11.888107,5.953369,0.06666565,-0.36012268,-0.11973572,0.015849829,-6.472907,6.9158716
1570714909,-0.22317505,0.1511383,3.785431,1.4728088,-0.7159271,-0.43824768,0.5089338,8.234319,6.409002
1570714909,1.1558838,-3.5598755,4.5623474,2.3282166,2.116623,0.08905029,1.5052896,6.5148277,5.2388
1570714910,2.6726074,-17.196045,1.145813,1.9702911,2.1112976,0.5140991,2.8444598,-7.451683,2.691983
1570714910,2.1303253,-10.938797,-0.28471375,0.99664307,-0.40486145,-0.504303,3.3962417,-2.4304686,0.010384768
1570714910,-3.8623657,-5.9085846,1.1721497,1.4025116,0.47505188,-0.1655426,-2.942346,2.9495287,1.2090719
1570714910,-5.267761,-8.906128,2.449463,1.6059723,2.053772,-0.6140137,-4.1025605,-0.32882118,1.4424006
1570714910,-3.2219238,-7.6443787,0.8716736,1.1958466,1.0076752,0.07839966,-2.6699636,1.3389301,0.15055215
1570714910,1.4587402,-9.788391,1.4570618,1.0669556,1.0098114,0.13378906,1.640385,-0.88245773,0.2810213
1570714910,4.4490967,-9.513046,0.68133545,0.8347168,1.0098114,0.06349182,5.255133,-0.68146896,-0.56804013
1570714910,1.8849182,-9.213776,0.53289795,1.026474,1.2473602,-0.27952576,3.3499875,-0.56470203,-0.9145081
1570714910,-2.294159,-7.537842,1.9203339,1.1372528,0.7914276,-0.10055542,-1.2711439,1.0074968,0.20183527
1570714910,-1.5603485,-7.3870087,1.947876,1.1361847,0.011657715,0.30636597,-1.116179,1.365838,0.091956854
1570714910,0.04736328,-8.3554535,0.86569214,1.364151,0.21192932,0.38946533,0.8542178,0.540473,-1.2538297
1570714910,1.8549805,-9.673462,-0.6187134,1.2874603,0.23323059,0.36495972,2.8753152,-1.2747517,-3.2150319
1570714910,0.48191833,-10.83226,-2.9386902,0.9316559,0.4143219,0.023010254,1.7910256,-2.4515734,-5.608719
1570714910,-0.37760925,-10.177444,-0.2966919,0.2743988,0.88623047,0.069885254,0.6463493,-1.7612743,-3.5637376
1570714910,0.66986084,-11.783951,-0.49661255,-0.14958191,0.5602722,0.11462402,1.8077687,-3.2405396,-2.6388159
1570714910,0.5896454,-12.523758,-1.5787811,-0.41270447,0.95228577,-0.13891602,1.9113514,-4.0735846,-4.3889685
1570714910,1.165451,-12.574036,-2.427536,-1.0497284,0.06918335,0.13378906,2.440286,-4.1331396,-4.8569417
1570714910,-0.09867859,-11.629532,-5.7985687,-2.397293,-0.28448486,0.28292847,1.3999826,-3.0187683,-7.849674
1570714910,-2.71315,-10.046967,0.7244415,-3.6447144,-0.23016357,0.20835876,-1.2441041,-1.3451996,-0.9673388
1570714910,-3.3356476,-12.855362,1.9849854,-3.3847961,-0.47624207,-0.0717926,-1.8221294,-3.7828875,1.7749875
1570714910,-2.6616821,-15.176544,1.5121307,-2.8468323,1.6830597,-0.19963074,-1.4417497,-6.359764,1.8554024
1570714910,1.1762238,-11.348206,6.33165,-2.1139374,0.88090515,-0.62467957,2.5441995,-2.7526312,8.122673
1570714910,-0.11663818,-9.507065,1.7766876,-2.1661224,-0.006454468,-0.78019714,0.9589268,-0.65159225,3.6030602
1570714910,0.1946106,-9.778809,1.8999939,-2.3717194,-1.5510864,-0.5873871,0.86888254,-1.028676,3.890218
1570714910,0.38734436,-9.03302,0.4479065,-2.397293,-1.9707947,-0.6353302,1.3830473,-0.5916252,3.2781117
1570714910,-1.3364868,-6.756134,3.3939667,-2.2513428,-2.3308563,-0.57780457,-0.37400734,1.5183191,6.7401876
1570714910,-2.819687,-5.1999054,2.4698029,-1.7986145,-2.181717,-0.6150818,-1.7730838,2.8510265,6.2291355
1570714910,-3.0435486,-4.091385,3.1665192,-0.8942108,-1.6927643,-0.6449127,-1.9580485,3.8133593,7.07277
1570714910,-2.0727081,-2.7386627,3.2814484,0.17851257,-1.4701233,-0.60975647,-0.9252025,5.0781984,7.239788
1570714910,-2.1026306,-0.83047485,2.1585693,1.2938538,-0.5976715,-0.50749207,-0.94190276,7.0858665,6.04747
1570714910,-1.8141327,-1.9892731,-0.5564575,2.2589722,0.32484436,-0.38711548,-0.776991,6.427128,3.0397947
1570714910,-1.9134827,-6.6316376,-6.9920807,2.8161163,0.6103363,-0.49258423,-0.71357125,2.70257,-2.2112062
1570714910,-6.9197693,-27.780807,-14.126801,-0.11869812,0.028701782,0.20091248,-6.373637,-18.482288,-12.917796
1570714911,-0.4338684,-11.137512,-10.473251,-0.5117798,-1.6533508,0.13378906,0.7127936,-4.436799,-8.89399
1570714911,-2.0020752,-3.407837,-5.2275543,-0.9432068,-1.3625336,-0.29763794,-1.0888782,4.835993,-2.7346513
1570714911,-0.22677612,0.6994171,-1.4638672,-0.13679504,-0.9651947,-0.3977661,1.0703871,8.980422,0.867363
1570714911,-7.392624,-5.2836914,9.9552765,1.8541718,0.9128723,-0.12612915,-5.8969507,3.6205397,11.786814
1570714911,-5.8651123,-25.732574,-8.207138,1.8648376,0.5954132,1.0499268,-6.2439957,-14.407021,-2.8182967
1570714911,3.445938,-10.762833,-1.7140503,-0.2507782,0.31526184,-0.1974945,5.364935,-3.4374466,-1.1059047
1570714911,1.7053528,0.8490448,8.847961,1.3236847,0.20233154,-0.5937805,3.0801487,9.398053,10.917911
1570714911,0.010253906,-4.0710297,2.3896027,2.4017181,1.7150116,-0.19111633,1.0354922,6.0661564,4.060836
1570714911,3.485443,-18.10823,4.1792755,1.9511108,2.103836,0.64086914,3.5738792,-8.092215,5.059602
1570714911,2.3793182,-11.850998,-1.4339294,0.9604187,-0.46878052,-0.4915161,3.7197585,-3.286542,-1.3492833
1570714911,-3.6875916,-7.7018433,1.4822083,1.2416534,0.5325775,-0.361557,-2.524139,1.3016405,0.8109089
1570714911,-6.80365,-6.6986694,3.3137665,1.4845276,1.9717407,-0.72055054,-5.6401014,1.7144642,2.9980311
1570714911,-5.2102966,-7.547409,0.47543335,1.1564331,1.3304596,0.10823059,-5.1577225,1.5550699,-0.6213357
1570714911,2.4236145,-9.028229,2.567978,0.8911743,0.7498779,0.28186035,2.4937596,-0.14950943,1.2963405
1570714911,5.281082,-9.161102,1.0847626,0.8570862,0.8905029,0.018753052,6.291933,-0.47979927,-0.14688551
1570714911,0.78956604,-8.306381,0.8992157,1.1447144,1.4380493,-0.3690033,1.9177248,0.3596754,-0.687456
1570714911,-2.697586,-6.74057,1.9801941,1.1457825,0.47717285,0.008102417,-1.7810905,1.8696566,0.22042668
1570714911,-1.1018524,-7.238556,1.5240936,1.221405,0.13310242,0.339386,-0.34369653,1.3882542,-0.45621252
1570714911,0.43162537,-8.3554535,0.43832397,1.4834595,0.23536682,0.38519287,1.2686945,0.47966003,-1.7355263
1570714911,1.7711945,-9.426865,-1.1538086,1.2917175,0.39620972,0.3170166,2.885977,-0.9337177,-3.877473
1570714911,-0.7235718,-10.565308,-2.933899,0.89012146,0.75627136,0.019805908,0.9626179,-2.3479433,-5.6573486
1570714911,0.92723083,-11.958725,0.26715088,0.17532349,0.7392273,0.10290527,2.1394694,-3.5802565,-2.8852684
1570714911,0.6291504,-12.2651825,-3.2319794,-0.06436157,1.2143402,-0.07499695,2.4268594,-4.4334354,-5.5986114
1570714911,-1.7279358,-11.016617,-3.5180817,-0.5192261,1.4050293,-0.094177246,-0.22071612,-2.4471903,-6.5246944
1570714911,3.5297241,-13.413208,-3.6904755,-1.7378998,-0.3888855,0.49812317,4.3956523,-5.1467104,-5.5488415
1570714911,2.1722107,-11.831833,-3.2379608,-3.067337,-0.5966034,0.14445496,3.9255533,-3.2574463,-5.328456
1570714911,-4.464508,-10.882538,2.7846527,-3.5072937,-0.9321747,-0.33918762,-2.6169903,-1.7231703,1.8545119
1570714911,-4.417816,-16.340118,-0.3002777,-3.416748,0.12350464,-0.21560669,-3.0012803,-7.1242704,-0.10579743
1570714911,-0.93066406,-13.013382,7.822052,-2.3312378,1.3442993,-0.22839355,-0.41835105,-4.346427,6.147498
1570714911,0.6028137,-12.740433,8.2230835,-2.2598724,1.1046143,-0.2912445,0.93344057,-4.0498104,8.033379
1570714911,0.6028137,-12.740433,8.2230835,-2.2598724,1.1046143,-0.2912445,0.93344057,-4.0498104,8.033379
1570714911,0.6028137,-12.740433,8.2230835,-2.2598724,1.1046143,-0.2912445,0.93344057,-4.0498104,8.033379
1570714911,0.6028137,-12.740433,8.2230835,-2.2598724,1.1046143,-0.2912445,0.93344057,-4.0498104,8.033379
1570714912,0.6028137,-12.740433,8.2230835,-2.2598724,1.1046143,-0.2912445,0.93344057,-4.0498104,8.033379
1570714912,0.6028137,-12.740433,8.2230835,-2.2598724,1.1046143,-0.2912445,0.93344057,-4.0498104,8.033379
1570714912,0.6028137,-12.740433,8.2230835,-2.2598724,1.1046143,-0.2912445,0.93344057,-4.0498104,8.033379
1570714912,0.6028137,-12.740433,8.2230835,-2.2598724,1.1046143,-0.2912445,0.93344057,-4.0498104,8.033379
1570714912,0.6028137,-12.740433,8.2230835,-2.2598724,1.1046143,-0.2912445,0.93344057,-4.0498104,8.033379
1570714912,0.6028137,-12.740433,8.2230835,-2.2598724,1.1046143,-0.2912445,0.93344057,-4.0498104,8.033379
1570714912,-6.7916718,-25.365067,-25.958939,0.81980896,2.0516357,-0.20921326,-2.4253306,-10.034872,-23.876701
1570714912,-0.38000488,-17.405533,-11.629639,-0.6268158,-2.3511047,0.118881226,0.8492905,-13.354412,-9.601419
1570714912,-1.8440552,-4.2637634,-6.8424377,-0.96343994,-0.94921875,-0.48086548,-0.8712386,4.0135107,-4.448472
1570714912,0.63394165,1.1160126,0.8788605,-0.19645691,0.019119263,-0.5746002,1.4793932,9.650419,2.1622946
1570714912,-5.5347137,-8.28244,2.0855408,1.4845276,-0.8245697,-0.22732544,-4.042203,2.4396667,5.20208
1570714912,-0.59428406,-26.11325,-11.638031,0.7835846,1.3496246,0.8049164,-1.4061124,-14.922538,-6.390559
1570714912,-2.1816406,-6.8088074,10.204285,-0.40844727,-0.39953613,-0.0909729,0.30701923,-1.4007797,11.256235
1570714912,-1.6357574,2.4292297,6.4046783,1.506897,-1.624588,-0.30722046,-1.0352602,10.983385,8.574124
1570714912,1.497055,-6.3167877,6.0898438,2.6488647,2.4457855,0.14338684,1.9148607,4.1092014,7.6574955
1570714912,4.0839844,-19.506454,2.1513824,2.5316925,3.0370026,0.6898651,3.4770286,-10.1588,3.3214278
1570714912,1.4611359,-11.531372,-3.4091492,1.3886566,0.0340271,-0.29870605,3.5618424,-3.799407,-3.4103885
1570714912,-4.19516,-6.543045,1.655777,1.3023682,0.86813354,-0.11973572,-3.109566,2.3486185,1.1327183
1570714912,-5.7274475,-6.2365875,4.540802,1.3140869,1.8982391,-0.45103455,-5.0923376,2.4559536,4.346361
1570714912,-1.9924927,-8.259689,-0.45950317,1.2064972,0.9363098,0.23286438,-1.8862659,0.9101362,-1.0283055
1570714912,3.6805573,-9.056961,0.967453,0.9987793,1.0726624,0.1359253,4.110145,-0.2581854,-0.6309103
1570714912,3.7775269,-9.168289,2.5907135,0.7750702,0.6476135,0.041122437,4.9218063,-0.23213577,1.1934325
1570714912,-0.18008423,-8.039429,-0.17936707,1.1851959,0.989563,-0.2539673,1.0633023,0.43496513,-1.720032
1570714912,-2.1996002,-6.982376,2.7355652,1.1819916,0.5730438,0.027267456,-1.2872608,1.722744,0.92154205
1570714912,-0.98573303,-7.099701,1.580368,1.2597656,-0.054397583,0.33087158,-0.04066372,1.550827,-0.53086543
1570714912,0.055740356,-9.268845,0.556839,1.3822632,0.20767212,0.3915863,0.81161094,-0.24214745,-1.8908763
1570714912,1.473114,-9.794373,-0.76116943,1.2128906,0.06278992,0.35217285,2.6843991,-1.4448061,-3.6335154
1570714912,-0.6972351,-9.661499,-2.6956787,0.7335205,0.5826416,0.060287476,0.6839113,-1.3874302,-5.7826467
1570714912,2.149475,-12.556076,1.6509857,0.26161194,0.15652466,0.16362,3.2593422,-4.0348988,-1.3881352
1570714912,1.3845215,-12.802689,-2.7782745,-0.3711548,0.5868988,-0.07713318,2.4652612,-4.2143955,-5.932796
1570714912,-1.6728668,-10.451584,-2.1055145,-0.16448975,1.5019684,-0.28378296,-0.108799934,-1.702508,-4.941113
1570714912,-0.41711426,-12.354965,-2.1007233,-1.3586578,-0.22483826,0.4096985,0.8540883,-3.8913517,-4.5486794
1570714912,0.3143158,-11.925217,-6.0667114,-2.554947,-0.4709015,0.47148132,1.8759753,-3.3689032,-8.191156
1570714912,-2.7849731,-9.152725,2.181305,-3.562683,-0.09700012,0.20410156,-1.0885075,-0.47856903,0.534325
1570714913,-2.5371704,-12.993027,2.327362,-3.1898499,-0.20458984,0.009155273,-0.9920099,-3.9243565,2.0967147
1570714913,-1.6201935,-14.7395935,1.9263306,-2.6210022,1.1802521,-0.13998413,-0.44807255,-6.0144787,1.7754179
1570714913,1.4228363,-10.904083,3.1198425,-2.1863708,0.34721375,-0.62680054,2.9088302,-2.1233673,4.4084086
1570714913,-1.2263489,-10.266022,1.8509064,-2.187439,-0.1342926,-0.85476685,0.02804315,-1.4701824,3.4483407
1570714913,-1.2490997,-10.256454,1.8604889,-2.3440247,-1.6480255,-0.75782776,-0.08844113,-1.45471,4.238413
1570714913,-0.64575195,-9.037811,1.9179535,-2.3386993,-1.8866425,-0.65556335,0.47093225,-0.4628172,4.453063
1570714913,-1.7865906,-7.130829,2.5416412,-2.1490784,-2.3202057,-0.6449127,-0.75488067,1.1778784,5.721717
1570714913,-1.356842,-6.352707,2.9247131,-1.6665192,-2.3148804,-0.6960449,-0.23011017,1.8908024,6.340857
1570714913,-2.2534637,-4.7462006,3.893158,-0.8697052,-2.2019653,-0.72587585,-1.0812838,3.310607,7.5209284
1570714913,-2.3743744,-2.8260498,3.4478455,0.06880188,-1.8227234,-0.70669556,-1.0539602,4.9436264,7.2847214
1570714913,-2.7035675,-0.292984,2.074768,1.1788025,-0.6104584,-0.6257324,-1.5018967,7.814723,5.4988728
1570714913,-2.6903992,-1.3476257,-0.84017944,2.1524506,0.47930908,-0.41908264,-1.6019651,7.0540113,2.3140762
1570714913,-3.0160217,-8.215393,-10.139252,2.5359497,0.9490814,-0.3690033,-2.0216494,0.6428747,-7.0803695
1570714913,-5.2893066,-26.197052,-14.196228,-0.422287,-0.5699768,0.4065094,-4.995837,-17.007347,-12.69863
1570714913,0.034194946,-13.322235,-10.936523,-0.691803,-1.2474823,-0.094177246,1.2450141,-5.3105593,-8.94876
1570714913,-1.3520508,-2.9888458,-4.6637115,-0.9858093,-0.6306915,-0.58525085,-0.54673946,5.1767406,-2.326474
1570714913,-3.147705,-3.8339996,0.04208374,0.31381226,0.03616333,-0.6129608,-1.8872852,5.1843643,2.4508102
1570714913,-3.0064392,-23.335983,-9.813644,0.7612152,-1.2059479,0.44378662,-2.7668078,-14.121552,-6.723527
1570714913,4.6729584,-8.779236,10.58017,-0.865448,1.6500397,0.16575623,5.923132,-1.2495441,12.024779
1570714913,-6.405014,1.5026703,5.7007904,1.4962463,-1.687439,-0.6896515,-5.279375,9.984207,8.5483055
1570714913,-0.6218109,-3.3360138,3.8871765,2.6786957,1.0843811,0.35749817,-8.8989735E-4,5.8997173,5.219047
1570714913,1.9615326,-17.7527,5.3656006,2.65419,3.7155762,0.6611023,2.7200673,-8.453795,6.6199045
1570714913,4.771118,-12.995422,-1.2220459,1.5303345,0.32591248,-0.068603516,6.0973053,-4.717369,-0.8281063
1570714913,-2.4174652,-6.520294,1.2176361,1.061615,-0.7659912,-0.30403137,-1.3147144,2.2418385,1.3432281
1570714913,-3.7845612,-7.245743,0.79267883,1.8083801,1.5999603,0.11248779,-3.1362255,2.3876886,0.29398662
1570714913,-2.610199,-7.7185974,1.2200317,1.6517792,1.9696045,-0.21987915,-2.0804162,1.2060003,1.2345409
1570714913,0.9751129,-9.574112,1.1482086,1.0712128,1.0598755,0.11781311,1.7082798,-0.63268566,0.2172606
1570714913,2.9611053,-9.19223,0.3712921,0.7388458,0.57624817,0.14764404,3.8912835,-0.3896799,-0.68088865
1570714913,2.5828247,-9.175476,1.4151611,0.8879852,0.7605438,-0.105895996,3.6123953,-0.38702583,0.13679457
1570714913,-0.7846222,-8.169907,0.038497925,1.0701447,0.9171295,-0.2720642,0.25795567,0.5569525,-1.523267
1570714913,-2.2462769,-7.661133,1.6091003,1.0541687,0.64016724,0.030471802,-1.341651,1.0585022,-0.23433399
1570714913,-0.8708191,-8.530228,1.2104645,1.0552368,0.028701782,0.34577942,-0.0431571,0.23380089,-0.60943556
1570714913,0.11679077,-9.027023,0.23242188,1.1851959,0.07130432,0.40118408,0.97457767,-0.15263939,-1.9466016
1570714914,2.3685455,-9.046188,-0.34217834,1.1596222,-0.112976074,0.38200378,3.354835,-0.4305153,-2.9455173
1570714914,0.5513458,-10.512634,-2.2671204,0.8720093,0.1362915,0.04005432,2.4925935,-2.1923876,-4.6918726
1570714914,-1.1377716,-9.817123,-2.2479706,0.6717377,0.47184753,0.034729004,0.23095906,-1.6209097,-5.58257
1570714914,-1.1377716,-9.817123,-2.2479706,0.6717377,0.47184753,0.034729004,0.23095906,-1.6209097,-5.58257
1570714914,-1.1377716,-9.817123,-2.2479706,0.6717377,0.47184753,0.034729004,0.23095906,-1.6209097,-5.58257
1570714914,-1.1377716,-9.817123,-2.2479706,0.6717377,0.47184753,0.034729004,0.23095906,-1.6209097,-5.58257
1570714914,-1.1377716,-9.817123,-2.2479706,0.6717377,0.47184753,0.034729004,0.23095906,-1.6209097,-5.58257
1570714914,-1.1377716,-9.817123,-2.2479706,0.6717377,0.47184753,0.034729004,0.23095906,-1.6209097,-5.58257
1570714914,-1.1377716,-9.817123,-2.2479706,0.6717377,0.47184753,0.034729004,0.23095906,-1.6209097,-5.58257
1570714914,-1.1377716,-9.817123,-2.2479706,0.6717377,0.47184753,0.034729004,0.23095906,-1.6209097,-5.58257
1570714914,-1.1377716,-9.817123,-2.2479706,0.6717377,0.47184753,0.034729004,0.23095906,-1.6209097,-5.58257
1570714914,-1.1377716,-9.817123,-2.2479706,0.6717377,0.47184753,0.034729004,0.23095906,-1.6209097,-5.58257
1570714914,0.2233429,-10.1978,2.6936646,-2.1927643,-0.7659912,-0.6896515,1.2396362,-1.3975353,4.5327587
1570714914,0.2233429,-10.1978,2.6936646,-2.1927643,-0.7659912,-0.6896515,1.2396362,-1.3975353,4.5327587
1570714914,0.2233429,-10.1978,2.6936646,-2.1927643,-0.7659912,-0.6896515,1.2396362,-1.3975353,4.5327587
1570714914,0.2233429,-10.1978,2.6936646,-2.1927643,-0.7659912,-0.6896515,1.2396362,-1.3975353,4.5327587
1570714914,0.2233429,-10.1978,2.6936646,-2.1927643,-0.7659912,-0.6896515,1.2396362,-1.3975353,4.5327587
1570714914,0.2233429,-10.1978,2.6936646,-2.1927643,-0.7659912,-0.6896515,1.2396362,-1.3975353,4.5327587
1570714914,0.2233429,-10.1978,2.6936646,-2.1927643,-0.7659912,-0.6896515,1.2396362,-1.3975353,4.5327587
1570714914,0.2233429,-10.1978,2.6936646,-2.1927643,-0.7659912,-0.6896515,1.2396362,-1.3975353,4.5327587
1570714914,0.2233429,-10.1978,2.6936646,-2.1927643,-0.7659912,-0.6896515,1.2396362,-1.3975353,4.5327587
1570714914,0.2233429,-10.1978,2.6936646,-2.1927643,-0.7659912,-0.6896515,1.2396362,-1.3975353,4.5327587
1570714914,0.2233429,-10.1978,2.6936646,-2.1927643,-0.7659912,-0.6896515,1.2396362,-1.3975353,4.5327587
1570714914,-3.0758667,-9.006683,-6.5323944,-0.88887024,-0.12150574,-0.4073639,-1.7198398,-1.4667435,-5.8684855
1570714914,-1.2921906,-1.1010284,-2.8728485,-0.6332092,-1.9079437,-0.65982056,-1.4939095,6.386879,-0.7405596
1570714914,-0.5056915,-2.9685059,-1.6494141,0.4554901,-1.2368317,-0.32107544,0.49457687,7.0589705,0.07069707
1570714914,-4.753006,-18.685242,-0.1302948,1.3439178,0.27796936,0.42141724,-4.1918793,-8.415128,2.8454409
1570714914,-0.30578613,-15.800232,2.1669464,-0.8217621,1.3048859,0.4565735,-0.12771457,-9.831887,-0.32678056
1570714914,-1.7470856,0.12121582,7.889084,1.0041046,-1.9814606,-0.3935089,-0.7639157,7.662404,10.664593
1570714914,0.46875,-1.455368,5.229126,2.4485931,0.31098938,-0.038772583,0.9192689,8.447179,6.6990805
1570714914,0.32629395,-14.965851,7.5347443,2.6275635,3.2947998,0.6621704,1.4738015,-5.070794,9.11411
1570714914,4.2431946,-15.872055,-3.7180023,1.9638977,1.1738586,0.3596344,5.756996,-8.712743,-3.543234
1570714914,-2.9058838,-7.5126953,0.71006775,1.2863922,0.26731873,-0.32107544,-1.4283909,0.976676,-0.54547536
1570714915,-4.7949066,-6.7034607,5.9701385,1.0722809,1.1823883,-0.62361145,-3.9701703,1.6701956,4.828032
1570714915,-3.2207184,-7.9077454,-1.8014526,1.1468506,1.114212,0.05923462,-3.0045114,1.2988234,-2.2444081
1570714915,1.4060669,-9.548965,1.2535553,1.04245,1.9429779,0.04219055,1.4082451,-0.74201965,-1.4113547
1570714915,3.8553467,-8.695435,3.3544617,0.45655823,0.5176544,0.1678772,4.4633245,-0.04955864,2.443894
1570714915,1.9052582,-9.095261,-1.1825409,0.836853,0.45161438,-0.115478516,3.1254306,-0.4437437,-2.4237459
1570714915,-1.4681702,-7.6324005,2.5200958,0.94018555,1.2207336,-0.12187195,-0.11776739,0.93146324,-0.20173311
1570714915,-1.7063904,-6.9991455,2.4243164,1.0104828,0.18103027,0.20091248,-0.95746356,1.6342678,0.79546714
1570714915,-0.67089844,-7.178711,1.1134949,1.1905212,0.21618652,0.38093567,0.19543308,1.5265207,-1.2526336
1570714915,1.4563446,-8.818741,0.41079712,1.3013,-0.026687622,0.47680664,1.9205717,-0.41991997,-1.5329704
1570714915,1.8442078,-10.327087,-1.5727997,0.99131775,0.16291809,0.22114563,3.7463307,-1.3153572,-3.6650276
1570714915,-0.7463074,-9.706985,-0.18894958,0.5886383,0.80207825,0.12208557,-0.4070108,-1.0966797,-4.7581625
1570714915,2.4415588,-13.500595,0.14263916,6.2561035E-4,0.34934998,0.05496216,3.571426,-4.9652195,-2.2282646
1570714915,-1.6884308,-9.15033,-3.8496857,-0.1410675,1.5871887,-0.28378296,0.7304516,-2.049324,-6.624977
1570714915,-2.5479584,-10.776001,-0.42956543,-0.48727417,1.069458,0.21902466,-1.6759186,-1.344451,-4.1250806
1570714915,3.4986115,-13.632278,-4.945038,-1.312851,-0.70739746,0.74313354,3.9794536,-5.590886,-5.923486
1570714915,2.659439,-12.562073,-4.247116,-2.7360382,0.06492615,0.36709595,4.835464,-4.118639,-6.9358206
1570714915,-5.7789307,-8.387772,3.2311707,-3.60849,-0.92684937,-0.04837036,-2.5484319,-0.3914833,1.2818171
1570714915,-5.3515625,-13.034927,0.60472107,-3.2303314,-0.13748169,-0.0398407,-3.783467,-3.0594568,1.3371147
1570714915,-2.029602,-14.659393,2.1070862,-2.6465607,1.9451141,-0.0909729,-1.1542705,-6.189336,2.1915114
1570714915,2.6127472,-11.109985,5.08667,-1.9530792,0.79888916,-0.7642212,4.505993,-3.2588167,7.2420807
1570714915,0.5860596,-10.35701,1.3708649,-2.110733,-0.5838318,-1.0220184,2.426023,-1.6711006,3.3645031
1570714915,-0.72836304,-9.7704315,1.200882,-2.2758484,-1.4733276,-0.921875,0.34065616,-1.2569246,2.793528
1570714915,-1.1054382,-8.416504,2.442276,-2.2332458,-2.037918,-0.8025665,0.09118885,-0.20437622,4.9929256
1570714915,-1.945816,-6.6424103,2.3369293,-1.9615936,-2.511963,-0.7610321,-0.96674323,1.5503769,5.9353476
1570714915,-1.9410248,-6.0630035,2.4063568,-1.3586578,-2.1369781,-0.8057709,-0.87179947,2.0238028,5.6975174
1570714915,-2.5515442,-4.6444397,3.8548584,-0.6055145,-2.0411072,-0.8377228,-1.4357355,3.110546,7.2618923
1570714915,-2.8927155,-2.1245422,3.4645996,0.35855103,-1.607544,-0.7972412,-1.7691275,5.3447313,7.1748824
1570714915,-3.0088348,-0.017654419,2.5488129,1.4280701,-0.49328613,-0.49684143,-2.0942025,8.025573,6.0894294
1570714915,-2.009262,-1.9354095,-0.39126587,2.364441,0.66786194,-0.2582245,-1.3297887,7.2031803,3.0885115
1570714915,-1.0348206,-10.945984,-13.249329,2.7447357,1.1291199,-0.49897766,-0.45454693,0.4498453,-4.607207
1570714915,0.9535675,-36.519653,-14.637955,-0.8420105,-0.92578125,-0.045166016,-2.460283,-25.496666,-17.096817
1570714915,-1.3628235,-8.081314,-6.2929688,-1.0337524,-1.2432251,-0.30082703,0.15965402,-1.8825369,-6.179801
1570714915,-0.5356293,-0.02961731,-3.3971863,-0.7738342,-1.2038116,-0.57566833,-0.51364243,6.9493246,-1.8967352
1570714915,-0.7295532,0.23852539,3.2311707,0.49490356,-1.4275208,-0.19537354,-0.27702934,9.889417,4.565007
1570714916,-5.8268127,-9.169479,5.6385345,1.8168945,0.4345703,0.17747498,-2.764546,2.2855482,5.6226234
1570714916,-4.0155945,-28.086075,-15.143127,2.0917358,1.1621399,0.8858795,-5.2269387,-15.159775,-2.6078186
1570714916,0.029403687,-8.076538,4.2115936,-0.09844971,-0.5007324,-0.267807,2.442335,-5.173465,1.0270691
1570714916,-0.7259674,2.2341003,7.276169,1.441925,-0.20246887,-0.6715393,1.38654,9.889182,8.890656
1570714916,-0.9582062,-1.6313477,5.237503,2.109848,1.2207336,0.13166809,-0.8187821,9.708754,6.4538918
1570714916,2.1937714,-17.49054,3.9470367,2.1226196,1.9845276,0.8922577,1.6729472,-6.6275206,5.588662
1570714916,4.944702,-12.678192,-3.5037231,1.5111694,0.89689636,-0.443573,8.117283,-6.830778,-3.9619143
