time,ax,ay,az,gx,gy,gz,la_x,la_y,la_z,fox,foy,foz
1570714945,-2.9311066,4.2515106,9.370911,-0.85276794,-0.65341187,0.27119446,-1.5244553,0.75421715,-0.29238796
1570714945,-2.9311066,4.2515106,9.370911,-0.85276794,-0.65341187,0.27119446,-1.5244553,0.75421715,-0.29238796
1570714945,-2.9311066,4.2515106,9.370911,-0.85276794,-0.65341187,0.27119446,-1.5244553,0.75421715,-0.29238796
1570714945,-2.9311066,4.2515106,9.370911,-0.85276794,-0.65341187,0.27119446,-1.5244553,0.75421715,-0.29238796
1570714945,-0.9289551,1.52211,6.155487,-0.03677368,0.62384033,-0.89953613,1.9723942,-1.3369844,-3.3289404
1570714945,-1.4048004,0.5716095,8.167221,-0.57580566,0.48216248,-1.9871674,0.9094584,-2.4598515,-1.823906
1570714945,1.8028412,0.5787964,8.999207,0.6652374,2.3836517,-2.4835815,4.656063,-2.2580025,-0.55162144
1570714945,0.9798279,0.84036255,8.168411,1.0679016,3.0004425,-2.7200775,4.860876,-2.12301,-0.3592682
1570714945,0.9798279,0.84036255,8.168411,1.0679016,3.0004425,-2.7200775,4.860876,-2.12301,-0.3592682
1570714945,0.9798279,0.84036255,8.168411,1.0679016,3.0004425,-2.7200775,4.860876,-2.12301,-0.3592682
1570714945,0.9798279,0.84036255,8.168411,1.0679016,3.0004425,-2.7200775,4.860876,-2.12301,-0.3592682
1570714945,-7.21492,-5.222351,11.507736,-1.8360138,2.8385315,-3.508377,-0.142488,-4.63875,3.6426797
1570714945,-5.562332,-3.9612122,8.5568695,0.52142334,4.964798,-4.0410004,3.6898365,-2.0143528,5.366499
1570714945,-10.445297,-5.491699,1.8609009,-0.16033936,3.660904,-5.0455475,-0.89854527,-1.9990902,-1.3213305
1570714945,-15.474319,-7.8493958,9.9874115,-0.42559814,1.5303802,-4.607727,-6.8780584,-3.1393957,4.6049037
1570714945,-14.747681,-6.846222,8.4216,1.2255554,3.0718231,-3.8801422,-6.4711647,-1.0991158,7.0800657
1570714945,-14.3993225,-7.269394,3.9354706,2.0085297,2.8534393,-3.745926,-6.7466283,-1.0498171,2.2258036
1570714945,-17.321457,-6.6307373,2.0787659,2.3387604,3.2177582,-2.9895935,-8.630491,0.058285713,0.38614368
1570714945,-18.692139,-5.4617767,-1.6771393,1.9606018,2.2505035,-1.421524,-11.707142,1.5261598,-3.1664827
1570714945,-17.685974,-4.7411194,-2.7521362,1.0647125,0.37457275,-0.014297485,-10.66835,2.227841,-4.409833
1570714946,-13.891754,-4.9404297,-3.296814,-0.5150757,-1.3000336,1.3023682,-7.0067697,3.1074953,-6.1399546
1570714946,-8.351578,-5.380371,1.2874756,-0.6652832,-0.863266,1.5122223,-1.3962183,1.6894178,-1.4194221
1570714946,-4.46698,-6.581665,4.0061035,0.1816101,0.6547394,0.8613434,3.2644591,-0.108615875,1.5569649
1570714946,-4.704605,-6.8671722,3.7570953,1.1595154,1.655014,0.44802856,3.194252,-0.8476691,1.1794848
1570714946,-6.2835846,-6.3967133,3.0891113,1.4908142,2.418808,0.54922485,1.9454479,-0.5447626,0.8291311
1570714946,-12.099701,-4.4167023,2.2637177,1.2543182,2.3825989,1.493042,-2.2102509,1.3058558,0.783146
1570714946,-10.94928,-2.3786469,1.7758942,0.77282715,0.63237,1.9905243,-2.4198332,3.4148345,1.1585232
1570714946,-8.455719,-3.3333282,5.5443726,0.75790405,-0.736496,1.7050323,0.28362465,1.7064285,3.9412954
1570714946,-7.9080505,-3.1657257,1.3347626,0.7653656,0.16151428,1.3194122,1.9060755,1.0490799,0.2503016
1570714946,-7.4495544,-3.4494476,0.13407898,0.47135925,0.066711426,1.444046,2.5234098,0.45701432,-1.3144383
1570714946,-4.471176,-6.605011,6.036377,0.46496582,-0.3583374,0.4118042,4.2128706,-2.5138447,2.75548
1570714946,-3.7726593,-8.6831665,2.632431,1.2394104,1.3237152,-0.6332245,6.58241,-5.5975504,2.720366
1570714946,-7.5920105,-3.4769745,-1.6813354,0.11769104,1.0872345,-0.8665161,1.7615976,0.004373789,-3.5969577
1570714946,-10.990585,-5.649124,0.8062439,-0.47886658,0.5844269,-1.7453613,-1.2368708,-1.7462468,-1.302489
1570714946,-8.110352,1.3006439,0.23762512,-0.01121521,0.9562073,-2.9139557,0.29352283,6.76315,0.39964706
1570714946,-7.72908,1.1043243,0.5351105,-0.01121521,0.9562073,-2.9139557,0.29352283,6.76315,0.39964706
1570714946,-3.3387146,-3.3034058,0.029327393,1.6697845,-1.1104126,-5.2894897,4.1175985,3.9190354,-0.5531831
1570714946,-5.6898193,-16.357193,-4.5316315,-5.493164E-4,0.24993896,-4.34993,0.35231924,-8.694991,-3.7499301
1570714946,-6.1501007,-15.785568,-5.7897797,-0.2689972,0.24887085,-4.1017303,0.35231924,-8.694991,-3.7499301
1570714946,-13.4608,-14.926651,2.1314392,-0.16033936,-0.464859,-0.4574585,-8.951733,-5.812608,1.3493128
1570714946,-13.4608,-14.926651,2.1314392,-0.16033936,-0.464859,-0.4574585,-8.951733,-5.812608,1.3493128
1570714946,-8.647858,-10.87207,0.6871338,-0.60775757,-0.08029175,0.64616394,-5.236622,-1.4827776,-1.592211
1570714946,-9.331406,-12.995132,3.5446167,-1.012558,0.61958313,1.2032928,-5.163067,-4.1305704,2.5351586
1570714946,-6.60141,-10.397415,0.36271667,-0.5491638,0.22329712,0.8677368,-2.0367413,-1.1532774,-0.02535659
1570714946,-2.0679932,-9.9006195,-1.2629395,-1.7507935,1.2225189,0.90289307,2.6782389,-0.91035366,-2.3272529
1570714946,-1.288681,-9.859329,-0.37049866,-1.7294769,1.2331696,0.85176086,3.5950274,-0.99393463,-0.8855591
1570714946,-4.383789,-10.246582,-0.30047607,-1.4045715,0.8134613,-0.22416687,0.90910673,-1.3516245,0.4090789
1570714946,-4.2586823,-10.302246,-0.0018005371,-1.3790131,0.8454132,-0.258255,0.90910673,-1.3516245,0.4090789
1570714946,-5.2313232,-10.038284,1.3712769,-0.85595703,1.4600677,-0.97624207,0.4065032,-1.2346592,3.3572564
1570714946,-6.356598,-7.818863,-1.0875702,-0.27859497,2.8491821,-0.6981964,-2.0940342,0.7423649,1.0464914
1570714946,-3.4680023,-7.514801,-0.022750854,0.091049194,2.2046967,-0.3914032,0.6682987,1.6725063,1.9810839
1570714946,-1.6717529,-7.5764465,-2.7682953,-0.663147,1.1937561,0.82832336,3.8778253,2.1396103,0.29519796
1570714947,-1.783081,-9.247604,-1.8704681,-0.8186798,-0.37005615,0.55667114,2.357596,-0.61203766,0.39347863
1570714947,-1.783081,-9.247604,-1.8704681,-0.8186798,-0.37005615,0.55667114,2.357596,-0.61203766,0.39347863
1570714947,-2.1853027,-7.1053925,-0.039505005,0.14006042,-0.11437988,-0.3093872,2.4981742,1.689434,2.8164709
1570714947,-1.4413147,-7.4711,-1.3144226,0.52993774,0.7761688,-0.38500977,3.011848,0.8036232,2.211081
1570714947,-1.4413147,-7.4711,-1.3144226,0.52993774,0.7761688,-0.38500977,3.011848,0.8036232,2.211081
1570714947,-4.202423,-6.956955,-1.905777,1.3235626,1.2406311,-0.37861633,0.23864508,2.4635,0.6734178
1570714947,-4.202423,-6.956955,-1.905777,1.3235626,1.2406311,-0.37861633,0.23864508,2.4635,0.6734178
1570714947,-8.479065,-8.906433,-6.4487762,0.7802887,-1.0219879,-0.4159088,-3.698543,1.0107622,-4.0193796
1570714947,-7.2077484,-12.920914,-8.40126,-0.32440186,-0.22198486,0.19342041,-4.0944223,-3.6114836,-6.572179
1570714947,-0.7745209,-7.8601685,-3.779251,-0.10920715,0.16365051,-0.16983032,3.2916508,0.74794865,-2.254454
1570714947,-0.7745209,-7.8601685,-3.779251,-0.10920715,0.16365051,-0.16983032,3.2916508,0.74794865,-2.254454
1570714947,-2.5109253,-9.801865,1.751358,0.9624481,-0.37750244,-0.6694336,0.6651585,-0.19138908,3.5771623
1570714947,-2.0979156,-9.9796295,1.8543091,1.0178375,-0.22091675,-0.6992645,0.6651585,-0.19138908,3.5771623
1570714947,0.31843567,-11.813583,-1.3347626,-0.115600586,-0.28909302,-3.096115,2.8096788,-2.172246,0.8393582
1570714947,0.31843567,-11.813583,-1.3347626,-0.115600586,-0.28909302,-3.096115,2.8096788,-2.172246,0.8393582
1570714947,0.86968994,-9.261368,3.648758,0.5011902,-2.407898,-3.6362,2.8428023,0.13938618,2.7939649
1570714947,-0.020355225,-6.3823395,2.379837,1.8562012,2.1876526,-4.960327,-0.91464055,3.7160358,3.61958
1570714947,-0.020355225,-6.3823395,2.379837,1.8562012,2.1876526,-4.960327,-0.91464055,3.7160358,3.61958
1570714947,-1.9183502,-9.312241,4.8201294,2.6775208,1.3397064,-4.0239563,-5.7819834,0.5758114,3.8246455
1570714947,-1.9183502,-9.312241,4.8201294,2.6775208,1.3397064,-4.0239563,-5.7819834,0.5758114,3.8246455
1570714947,0.54467773,-9.930557,3.2860413,3.0908356,1.5005493,-2.0532227,-5.0152836,-1.3475485,1.7679782
1570714947,5.577286,-19.612106,8.922592,0.94540405,4.014572,1.0424347,-1.6341438,-11.105553,5.70151
1570714947,4.6513367,-7.8374176,2.4702148,0.3136902,3.5543823,1.7859955,1.347553,-0.14593124,-0.8232465
1570714947,4.996704,-6.5086365,-0.15322876,0.6545868,2.3634186,1.5015717,1.7119844,2.1541042,-2.6286044
1570714947,5.151123,-8.804672,3.0687714,1.0061188,-3.6617126,1.0158081,2.2079268,0.19751644,-0.9301274
1570714947,5.1170044,-8.770554,3.1046753,1.08815,-3.7266998,1.0211334,2.2079268,0.19751644,-0.9301274
1570714947,4.755478,-9.119507,2.9167328,1.9637909,-4.175171,0.8144684,1.6515591,-0.029305458,-0.85326934
1570714947,4.392761,-9.583984,1.7280121,2.0341034,-4.159195,0.5044861,0.9002702,-0.7734451,-2.008165
1570714947,4.034836,-11.629837,2.767105,0.92836,-3.315506,-0.1687622,0.006278515,-2.9482641,-1.3737919
1570714947,2.300827,-12.801804,3.3620605,0.013290405,-0.67897034,-0.434021,-1.5156884,-4.003536,-0.3291874
1570714947,-0.15861511,-14.199417,3.0148926,-1.108429,2.0747375,-0.340271,-3.8544517,-5.440321,-1.1647162
1570714947,-0.8164215,-13.742722,3.0328522,-0.8144226,2.0555573,-0.27316284,-4.725013,-5.4475193,-0.60344625
1570714947,-1.0612335,-16.197372,-2.230194,-1.4098969,-1.4651489,-0.0856781,-4.5731034,-6.4970207,-7.32328
1570714947,-1.2419891,-16.60379,-1.5706024,-1.5760803,-1.5471649,-0.06542969,-5.0456285,-7.2400284,-6.0308084
1570714948,4.0228577,-10.259155,0.94869995,-2.7414856,1.4121399,0.7079468,-0.5002792,-2.1332932,0.5418427
1570714948,5.6161957,-11.315002,1.1366425,-3.5191193,0.2616577,-0.23588562,1.8679864,-1.2270222,-1.4730874
1570714948,5.6161957,-11.315002,1.1366425,-3.5191193,0.2616577,-0.23588562,1.8679864,-1.2270222,-1.4730874
1570714948,8.164825,-11.86087,5.399521,-1.8083038,-2.3226776,0.102874756,3.9864616,-2.8223295,4.4878087
1570714948,4.1707,-11.319183,4.9799347,-1.4993896,0.60679626,0.11991882,1.3493989,-1.5593948,6.490727
1570714948,-1.9841919,-11.939285,-0.36750793,-1.6218872,1.9468994,0.35214233,-3.8569617,-1.6716642,2.3416343
1570714948,3.1633453,-11.673523,2.8317413,-1.8200226,-0.5799103,1.0562897,-1.1835122,-2.5561714,3.7912967
1570714948,3.588913,-11.322174,3.0909119,-1.9020538,-0.47657776,1.0222015,-1.1835122,-2.5561714,3.7912967
1570714948,3.7451324,-6.1022186,3.1986542,-2.1183014,1.3247833,1.0062256,0.9451785,3.3800478,6.114849
1570714948,3.7451324,-6.1022186,3.1986542,-2.1183014,1.3247833,1.0062256,0.9451785,3.3800478,6.114849
1570714948,3.9228973,-4.687851,1.3617096,-1.1009827,1.5953674,0.9870453,0.98724794,4.7261,4.5700026
1570714948,3.4045563,-4.22995,1.2635345,0.4670868,0.49813843,0.39794922,0.74743915,5.304825,4.081277
1570714948,3.3003998,-4.313156,1.6370392,0.51823425,0.47151184,0.37557983,0.74743915,5.304825,4.081277
1570714948,2.4696198,-7.989456,0.59376526,1.2287598,0.64834595,0.14335632,-0.2645526,1.9017992,3.239966
1570714948,3.0855255,-9.291901,-1.9602509,1.4130554,0.60679626,0.16253662,-0.04402709,0.6795769,1.4480083
1570714948,4.4777527,-11.233002,-3.9677887,1.7486115,0.6451416,-0.026016235,1.4839008,-1.1033792,-1.5304538
1570714948,0.10594177,-19.497787,-12.823349,0.5800171,0.83369446,0.010192871,-3.3119814,-9.800245,-13.432553
1570714948,3.281845,-8.741837,-4.0025024,-0.037841797,1.0041351,-0.19433594,-0.4213326,-0.05653858,-4.3202324
1570714948,7.5567017,-7.2490387,0.6398468,0.4074402,1.0989532,-0.5927429,3.5882063,2.67803,1.179374
1570714948,12.673111,-17.871521,4.4855347,0.9549866,-1.8315887,-0.37649536,9.397907,-8.061342,4.4043217
1570714948,12.020096,-16.84082,4.6818542,0.9549866,-1.8315887,-0.37649536,9.084421,-8.377128,4.9453464
1570714948,4.8841705,-5.466568,3.249527,1.4759064,-0.019577026,-0.29978943,1.4199462,4.260849,4.2518725
1570714948,3.8690338,-5.3659973,1.9123688,1.3917389,0.3585968,-0.43295288,0.08114147,4.052883,1.8737023
1570714948,0.10774231,-10.421356,3.454239,0.02607727,0.68029785,-0.40419006,-3.4422965,0.3009882,2.298667
1570714948,-1.2186432,-12.715607,7.645279,-0.35316467,1.303482,-0.21989441,-4.376994,-2.3600273,4.7044044
1570714948,-3.6457672,-15.338455,7.7883453,0.47454834,2.2387848,0.4938202,-7.9916816,-6.107463,7.696287
1570714948,-1.5364838,-10.587753,-1.2970581,2.2151947,-0.85687256,0.9359131,-4.958729,-0.7243166,-2.8503919
1570714948,-0.8996277,-11.447281,-1.6322479,2.5315704,-1.6686096,1.3236694,-4.604656,-1.4741802,-3.2648382
1570714948,2.7724915,-10.313019,-0.8236084,2.6423645,-3.0545197,1.9500427,-1.1481411,-1.2445774,-3.425589
1570714948,4.3412933,-10.934326,-4.043808,3.0088196,-4.347748,1.5356598,1.2987952,-1.398385,-6.436388
1570714948,5.4761353,-8.443146,-0.3651123,1.3214417,-3.3059235,0.6845093,2.7385917,0.8022356,-4.5533032
1570714948,3.8899841,-8.513779,1.7028809,0.19544983,-0.67897034,0.028305054,1.0885739,0.9173994,-1.5326061
1570714948,3.7696686,-8.807663,1.5448608,0.052703857,-1.1934967,-0.62576294,0.7244992,0.74493694,-1.4575539
1570714948,3.20224,-11.585541,4.4807434,0.29026794,-2.3205566,-0.6886139,-0.3114679,-2.1053925,1.1822486
1570714949,1.727417,-12.269089,4.1970367,0.5704193,1.0669861,-0.57676697,-1.939254,-3.0682573,1.9061241
1570714949,1.1258698,-11.8333435,2.4247284,0.25616455,2.6968536,-0.4159088,-2.6909535,-2.8578453,-0.47254348
1570714949,-0.18495178,-12.814362,-9.824005,0.5746918,2.0331879,-0.14852905,-3.6285567,-3.8252058,-11.743092
1570714949,-0.18495178,-12.814362,-9.824005,0.5746918,2.0331879,-0.14852905,-3.6285567,-3.8252058,-11.743092
1570714949,0.12390137,-13.127411,-3.7654877,-1.2756805,-1.9860535,0.100738525,-3.0917504,-3.9254484,-10.048143
1570714949,0.22924805,-14.689026,2.2313995,-2.890625,2.4230804,0.44163513,-3.5534482,-5.8993025,1.4941456
1570714949,0.22924805,-14.689026,2.2313995,-2.890625,2.4230804,0.44163513,-3.5534482,-5.8993025,1.4941456
1570714949,6.2596436,-12.624619,4.592682,-3.1526794,-0.18469238,0.2541504,2.2650497,-2.460744,2.8626006
1570714949,6.2596436,-12.624619,4.592682,-3.1526794,-0.18469238,0.2541504,2.2650497,-2.460744,2.8626006
1570714949,6.4835052,-16.512207,6.755234,-1.9680939,-3.0374756,-0.19433594,2.8372967,-7.3507404,4.256474
1570714949,7.2089386,-9.273346,4.66391,-0.7611542,0.7804413,0.22431946,5.9957485,0.7244644,6.579264
1570714949,-1.8890228,-11.28447,-1.8950043,-1.586731,1.4579468,0.138031,-3.2450795,-0.49058437,-1.2945147
1570714949,1.9464874,-9.542694,2.6617584,-2.7361603,0.8858948,0.46507263,-0.76381445,0.15237522,4.6139755
1570714949,2.0811615,-9.542694,2.6617584,-2.7361603,0.8858948,0.46507263,-0.76381445,0.15237522,4.6139755
1570714949,3.2465363,-6.4128723,2.98378,-2.3292236,0.83369446,0.65148926,0.47748923,2.3651285,5.798729
1570714949,4.4621887,-3.502121,2.6695404,-0.5406494,1.1351624,0.53430176,1.9948411,5.935546,6.058632
1570714949,3.7271729,-3.3255463,1.8130035,0.6215515,0.60466003,0.102874756,1.8170633,6.459366,4.8251076
1570714949,1.8058319,-7.2274933,0.077804565,1.6101227,0.2872162,-0.19113159,-0.34703255,3.0219593,2.9553027
1570714949,1.8058319,-7.2274933,0.077804565,1.6101227,0.2872162,-0.19113159,-0.34703255,3.0219593,2.9553027
1570714949,2.0326843,-19.437332,-13.653534,1.2713623,0.026229858,0.022979736,-0.06417799,-6.742426,-9.735228
1570714949,2.0326843,-19.437332,-13.653534,1.2713623,0.026229858,0.022979736,-0.06417799,-6.742426,-9.735228
1570714949,0.41659546,-14.120407,-9.302078,-0.13903809,1.0062714,0.40327454,-2.97798,-7.384239,-9.519001
1570714949,5.4958954,-3.8989563,0.26275635,-0.27539062,1.7125397,-0.22416687,2.4168558,5.800741,1.4404593
1570714949,5.838257,-4.000107,0.39265442,-0.19337463,1.6656647,-0.29660034,2.4168558,5.800741,1.4404593
1570714949,8.634689,-12.4223175,3.4111328,1.1243591,-1.2669983,-1.4918213,5.6330595,-1.7818289,4.441404
1570714949,10.412979,-13.863632,4.6381683,1.293747,-2.3663483,-0.64494324,6.7410364,-4.136039,5.6172786
1570714949,4.158127,-8.492828,-3.743927,1.791214,-0.35513306,-0.042007446,0.6413932,0.59192085,-4.350094
1570714949,4.3831787,-8.002014,-3.2944183,1.5621796,-0.52345276,-0.0622406,0.6413932,0.59192085,-4.350094
1570714949,2.2978363,-6.246475,1.6591797,-0.44903564,-1.515213,-0.74827576,-0.643414,3.7860794,0.9536397
1570714949,-0.9457092,-9.984421,7.171829,-0.534256,-0.6779175,-0.48194885,-4.1198025,0.5272598,6.273318
1570714949,0.1197052,-14.803345,6.0106506,0.48840332,1.3695221,-0.164505,-2.6414702,-4.259528,6.638778
1570714949,-3.2076263,-13.02565,4.2461243,0.67056274,1.6614075,0.59609985,-6.8032475,-4.5334635,3.8911464
1570714949,-0.038909912,-8.842987,-0.27653503,2.1139984,0.7580719,0.47039795,-3.1025095,1.5132456,0.53700006
1570714950,0.98521423,-9.789886,-1.9907837,2.284439,-1.7730103,1.4259338,-2.356007,-0.27384567,-3.9371881
1570714950,3.2303772,-8.758591,-0.21966553,1.5611267,-2.8031158,1.0744019,0.42364812,1.292139,-2.8999846
1570714950,3.0538025,-10.921753,3.2363586,1.8306274,-2.7061768,0.67492676,0.24269342,-0.9628639,0.46705055
1570714950,3.8750153,-10.717041,2.5408478,2.5454254,-1.8987122,0.57585144,1.2978637,-1.2098112,0.17959666
1570714950,3.8085785,-10.063431,-0.47824097,2.4538116,-1.1594086,0.3649292,1.0994325,-0.7024574,-2.6841903
1570714950,4.178482,-9.102158,-1.5490417,0.23806763,-0.9665985,-0.5075226,2.1544259,0.47493458,-5.913354
1570714950,2.3469238,-10.25856,0.70329285,-0.52253723,-0.7162628,-0.85266113,-0.20835948,-0.51261425,-3.4169142
1570714950,0.02633667,-13.589493,3.1920624,-0.47354126,0.28082275,-0.879303,-3.1573558,-4.2393494,-0.05171013
1570714950,-0.5117645,-13.499115,3.20224,-0.3084259,0.50346375,-0.7067261,-3.7459295,-4.2339296,0.015356541
1570714950,-1.5095367,-13.384781,1.8237762,0.26150513,0.967926,-0.0899353,-4.83186,-4.099365,-1.1757028
1570714950,-1.1773529,-11.439499,-1.3730774,0.47242737,0.7388916,0.16040039,-4.5843277,-2.5646658,-3.8603356
1570714950,1.0959473,-12.302612,-6.806717,0.032470703,-0.84835815,0.24668884,-2.3239803,-2.7721815,-9.849418
1570714950,0.47883606,-15.643112,-2.9562378,-2.2003326,-0.94636536,0.18383789,-2.5521955,-5.464834,-7.005294
1570714950,0.18495178,-13.532623,0.5009918,-4.1252594,2.3623505,0.39050293,-2.7555752,-4.054641,-1.3727952
1570714950,3.0340576,-13.20163,3.6571503,-3.6895752,1.1511536,0.58010864,-0.62211347,-3.0018291,2.5953817
1570714950,8.720886,-12.664734,3.4877472,-2.0884705,-2.6369324,-1.18396,5.990007,-2.4612913,3.8056893
1570714950,5.522827,-15.883133,4.4137115,-1.9755554,-2.9842072,-1.137085,4.2738585,-4.6611853,5.06936
1570714950,6.1363373,-9.796478,3.1040802,-0.6844635,0.82411194,0.37451172,6.099392,0.8007574,6.3452435
1570714950,-1.5885468,-11.103104,-3.5553894,-1.3651581,1.7327881,0.30314636,-2.8255806,-0.8767271,-0.9134557
1570714950,-3.047821,-12.435486,0.5237274,-1.7390747,0.5141144,0.8485565,-8.334315,-3.354354,1.1806029
1570714950,2.6779175,-5.6706696,3.854065,-2.1033936,1.3247833,0.66960144,0.19945025,3.3937187,7.0434055
1570714950,2.6779175,-5.6706696,3.854065,-2.1033936,1.3247833,0.66960144,0.19945025,3.3937187,7.0434055
1570714950,5.491104,-3.312378,2.6072845,-0.17845154,1.0265045,0.7036896,2.9100273,6.211875,6.057106
1570714950,5.491104,-3.312378,2.6072845,-0.17845154,1.0265045,0.7036896,2.9100273,6.211875,6.057106
1570714950,3.2938232,-5.115814,1.7489624,1.376831,0.60040283,0.048553467,1.0268006,4.873596,4.902425
1570714950,3.1651306,-5.6503143,0.9283447,1.5249023,0.5375519,-0.004714966,0.96080637,4.52413,4.3558397
1570714950,2.3786469,-9.974838,-2.2786865,1.99469,-0.08029175,0.022979736,-0.019288778,0.3184414,0.18808627
1570714950,2.7257996,-19.612701,-16.932388,1.2788239,0.12530518,-0.07821655,2.242927,-6.429222,-11.890804
1570714950,2.5570068,-7.7620087,-4.0659485,-0.045303345,0.84754944,0.2157898,0.02267766,1.671772,-3.5038304
1570714950,2.7754822,-7.3897095,-3.601471,-0.05595398,0.85606384,0.18595886,0.02267766,1.671772,-3.5038304
1570714950,9.707291,-16.20456,3.3937836,1.408783,-0.62145996,-1.5450897,7.310054,-4.0329256,4.3070855
1570714950,9.740814,-16.652863,3.4422607,1.3832245,-0.72584534,-1.4673309,6.98983,-5.854268,4.3609376
1570714950,3.7493134,-6.6624603,2.0775757,1.1414032,-1.4566193,-0.3605194,0.8884165,3.4365435,2.920691
1570714950,3.7493134,-6.6624603,2.0775757,1.1414032,-1.4566193,-0.3605194,0.8884165,3.4365435,2.920691
1570714951,1.2952576,-7.2651978,3.324356,0.38293457,-0.11651611,-0.42337036,-1.330338,3.047536,2.9826891
1570714951,0.17477417,-11.7070465,4.842865,0.5342102,1.4845734,-0.35092163,-2.8984604,-0.82279205,5.399562
1570714951,0.17477417,-11.7070465,4.842865,0.5342102,1.4845734,-0.35092163,-2.8984604,-0.82279205,5.399562
1570714951,-2.7329865,-12.042831,2.190689,1.3320923,0.82092285,0.43203735,-6.3148184,-2.814474,2.468083
1570714951,-2.7329865,-12.042831,2.190689,1.3320923,0.82092285,0.43203735,-6.3148184,-2.814474,2.468083
1570714951,0.39624023,-9.430756,-2.1356354,1.9723053,-1.308548,1.3268585,-2.9338272,0.06962013,-3.5803514
1570714951,1.6304474,-8.671204,-1.2108612,1.5419464,-1.7591553,1.4664154,-1.6162918,1.088028,-3.2349377
1570714951,2.9747925,-10.404007,1.8148041,1.3683014,-1.9381256,0.81874084,0.36649346,-0.3225565,-0.4070127
1570714951,4.2239685,-9.560043,1.6807251,2.0053406,-1.8326569,0.54389954,1.6921749,-0.079574585,-0.30891466
1570714951,4.1808777,-8.948334,1.0259094,2.2098694,-1.8315887,0.22857666,1.8465829,0.7638416,-1.5144284
1570714951,4.0108795,-9.297882,0.73501587,2.1044006,-1.8965759,-0.044128418,1.5774851,0.58711624,-2.4773738
1570714951,3.2243958,-10.625473,0.049682617,0.5437927,-0.2645874,-0.7259064,1.5145531,-0.60141754,-3.5228708
1570714951,2.8730469,-10.897812,0.03591919,0.42341614,-0.13356018,-0.7536011,0.6088958,-1.1387405,-3.5650606
1570714951,0.82180786,-12.3355255,1.1749573,-0.6642151,1.2416992,-0.8089905,-1.8464699,-2.9446478,-2.5627248
1570714951,-0.5524597,-12.700638,2.106903,-0.581131,1.874466,-0.62683105,-3.3106756,-3.1169624,-1.4498391
1570714951,-2.3271637,-14.383759,-1.5562286,0.051635742,1.8979034,-0.42869568,-4.969509,-4.8884583,-4.3686404
1570714951,-3.8241425,-16.74086,-0.5638275,-2.158783,-0.9122772,0.5683899,-6.670249,-6.9694633,-4.9170046
1570714951,-3.8241425,-16.74086,-0.5638275,-2.158783,-0.9122772,0.5683899,-6.670249,-6.9694633,-4.9170046
1570714951,5.538986,-10.549454,-0.65960693,-3.354004,2.3122864,0.38729858,2.852664,-0.3860607,-2.441752
1570714951,8.495224,-12.236771,2.7892456,-2.8725128,-0.67684937,-1.4183197,5.8433623,-1.6377335,2.2958481
1570714951,8.495224,-12.236771,2.7892456,-2.8725128,-0.67684937,-1.4183197,5.8433623,-1.6377335,2.2958481
1570714951,7.466919,-13.515274,5.0571594,-1.8519897,-2.010559,0.22431946,3.7632165,-5.3518076,4.847187
1570714951,2.261917,-9.332596,0.14724731,-1.8690338,1.2853699,-0.032409668,0.08823371,0.5843544,1.9169089
1570714951,1.8890228,-9.345169,-0.45489502,-1.9989929,1.4004211,-0.11123657,0.08823371,0.5843544,1.9169089
1570714951,1.1713562,-11.121063,2.9951477,-2.2024536,0.013442993,0.4853058,-2.1050587,-1.5571785,5.0537186
1570714951,2.3822327,-6.937805,3.273468,-2.2514648,0.9412842,0.59928894,0.20028424,2.3812265,6.0756626
1570714951,2.3822327,-6.937805,3.273468,-2.2514648,0.9412842,0.59928894,0.20028424,2.3812265,6.0756626
1570714951,3.6912537,-3.9474335,2.8957825,-0.5619507,0.983902,0.6994171,1.1418817,5.366975,6.4484544
1570714951,4.22995,-3.3740234,2.418747,-0.14863586,0.874176,0.6099396,1.7602198,5.9278193,6.160969
1570714951,3.5488129,-4.091095,3.2621002,0.8133087,0.59828186,0.1689148,2.6957927,6.6419725,4.920347
1570714951,1.1168976,-9.608536,-4.6788635,1.8476715,-0.018508911,0.19023132,-1.1551292,1.0783205,-0.9715667
1570714951,1.1168976,-9.608536,-4.6788635,1.8476715,-0.018508911,0.19023132,-1.1551292,1.0783205,-0.9715667
1570714951,1.8351593,-16.986862,-15.443207,1.2425995,-0.47232056,0.12844849,-0.17818356,-5.0630646,-12.21175
1570714952,1.4520874,-14.715958,-8.948929,0.08679199,0.77297974,0.34895325,-1.1355779,-6.464122,-8.367061
1570714952,4.897339,-4.6950226,-0.08558655,-0.39790344,1.4824371,-0.016433716,2.60077,4.8040276,0.9440669
1570714952,9.321228,-16.880325,3.2052307,1.4897461,-1.6558228,-1.5919647,6.8469224,-6.2027016,4.3171954
1570714952,9.171585,-17.013199,3.1908722,1.4535217,-1.8752747,-1.4321747,6.8469224,-6.2027016,4.3171954
1570714952,3.7816467,-9.081207,1.822586,2.076706,-1.4917755,-0.34347534,1.2073617,1.4679928,3.0373785
1570714952,3.7816467,-9.081207,1.822586,2.076706,-1.4917755,-0.34347534,1.2073617,1.4679928,3.0373785
1570714952,4.016266,-8.330032,-0.26097107,1.1243591,-0.734375,-0.36264038,1.3734798,1.6054878,0.18983546
1570714952,-0.7457886,-9.807251,8.039734,-0.3861847,0.40333557,-0.6555939,-3.2470884,1.1307163,7.053508
1570714952,-0.73561096,-13.093887,7.784149,-0.05595398,2.6957855,-0.4649048,-4.05064,-2.638524,8.217649
1570714952,-3.2231903,-11.312607,0.97624207,0.6417999,2.7319946,0.6951599,-7.2773294,-2.740882,2.5618176
1570714952,-3.2231903,-11.312607,0.97624207,0.6417999,2.7319946,0.6951599,-7.2773294,-2.740882,2.5618176
1570714952,1.5664062,-8.8962555,-2.008133,2.2684631,-2.6997833,1.7945099,-1.7824326,0.44931984,-4.1287003
1570714952,1.8016357,-8.646652,-1.7794952,2.206665,-2.774353,1.7913208,-1.0977743,0.9606209,-3.8291712
1570714952,2.7820587,-11.089935,0.035308838,2.1139984,-3.2164307,1.1670685,0.6421664,-0.8884611,-2.2381892
1570714952,4.913498,-9.997589,-1.7339935,2.2418213,-2.6561127,0.6866455,2.8064106,-0.6539278,-4.079858
1570714952,3.2537231,-8.653839,-1.067215,0.79093933,-1.1402435,-0.012176514,1.5432885,1.0063744,-4.581169
1570714952,2.1446075,-10.609299,1.9063873,-0.7718048,0.14021301,-0.7589264,-0.0045833588,-0.59148693,-1.3376937
1570714952,2.1446075,-10.609299,1.9063873,-0.7718048,0.14021301,-0.7589264,-0.0045833588,-0.59148693,-1.3376937
1570714952,0.8750763,-12.184692,3.3488922,-0.13796997,-0.20599365,-0.54374695,-1.7258964,-2.3991842,0.4530244
1570714952,-0.024536133,-12.087723,3.0496216,0.45111084,0.0017242432,-0.17622375,-2.6896198,-2.4638796,0.2924676
1570714952,-1.0109558,-12.710815,2.585144,0.5672302,1.8712616,-0.16769409,-3.628111,-3.0579844,-0.1595695
1570714952,-1.0109558,-12.710815,2.585144,0.5672302,1.8712616,-0.16769409,-3.628111,-3.0579844,-0.1595695
1570714952,-3.525467,-15.73349,-7.9822693,-1.9127045,-0.544754,0.1103363,-5.608968,-5.6244373,-13.374914
1570714952,-3.624817,-16.175232,-5.883148,-2.1832886,-0.57244873,0.16998291,-5.903451,-5.935587,-11.603886
1570714952,3.3620605,-10.918152,2.1697388,-3.5628052,1.9809875,0.6568146,0.9696102,-0.78941536,0.9091623
1570714952,3.7169952,-10.836151,2.331955,-3.547882,1.8883057,0.61846924,0.9696102,-0.78941536,0.9091623
1570714952,3.862442,-19.006363,4.553772,-1.9617157,-2.2385254,-1.2702484,2.4087663,-7.3708963,4.7906747
1570714952,3.862442,-19.006363,4.553772,-1.9617157,-2.2385254,-1.2702484,2.4087663,-7.3708963,4.7906747
1570714952,11.50473,-11.016922,5.969345,-0.6908417,-0.62358093,1.0158081,9.306666,-0.78982735,8.355575
1570714952,-7.9427643,-14.584274,0.81762695,-1.4386597,0.8123932,0.48104858,-8.328385,-2.823063,4.382727
1570714952,-7.9427643,-14.584274,0.81762695,-1.4386597,0.8123932,0.48104858,-8.328385,-2.823063,4.382727
1570714952,2.5899353,-7.4064636,2.6557617,-2.4836884,1.5399628,0.5790558,0.8019575,2.21838,5.322152
1570714952,2.7587128,-6.9874725,2.7850494,-2.4389496,1.5399628,0.58543396,0.8019575,2.21838,5.322152
1570714953,4.285019,-3.8002014,2.1362305,-0.7654114,1.4803162,0.5353699,2.4839182,5.859309,5.883497
1570714953,4.74411,-2.9706116,1.5861511,0.015426636,0.8635254,0.40115356,3.1120348,6.743891,4.9433246
1570714953,3.0178986,-3.8971558,2.4923706,1.010376,0.27442932,0.055999756,1.6562654,6.1642437,5.681966
1570714953,2.126648,-5.8963165,1.6819305,1.6921539,0.20092773,-0.06010437,0.48280478,4.3444796,4.8263254
1570714953,1.9692383,-13.603851,-7.2514343,1.7901459,-0.19215393,0.06985474,-0.40768147,-2.0126371,-2.978475
1570714953,1.1911163,-19.612701,-17.159836,1.043396,-0.8675232,0.030441284,0.3298533,-9.108088,-14.016738
1570714953,-1.0905609,-14.817108,-9.316437,-0.27113342,0.7250366,0.44802856,-2.851026,-7.473975,-8.820196
1570714953,4.021057,-4.754883,0.09875488,-0.16886902,1.4345093,-0.030288696,2.2993035,4.8979206,1.7262062
1570714953,4.5567627,-4.202423,0.07241821,0.15071106,1.5048218,-0.18473816,2.7965732,5.8475227,1.9904368
1570714953,7.978073,-6.4691315,2.5031433,1.3651123,0.42570496,-1.0348206,5.073425,4.6812153,3.5390906
1570714953,8.883682,-19.612701,3.4757843,1.9968109,-2.9213562,-1.1765137,6.396266,-7.641446,3.9183376
1570714953,2.9484558,-12.265503,2.3211823,2.3675232,-1.2222595,-0.49473572,2.8017352,-1.4672966,6.724033
1570714953,2.9484558,-12.265503,2.3211823,2.3675232,-1.2222595,-0.49473572,2.8017352,-1.4672966,6.724033
1570714953,2.1338348,-4.8793793,-1.3503265,0.2913208,0.29574585,-0.24972534,-0.64477587,4.423065,-2.2372274
1570714953,-0.86190796,-9.850342,9.269745,-0.6833954,0.8912201,-0.44786072,-3.0997727,2.1043892,5.9926887
1570714953,-0.86190796,-9.850342,9.269745,-0.6833954,0.8912201,-0.44786072,-3.0997727,2.1043892,5.9926887
1570714953,-1.885437,-11.688492,0.91638184,0.39572144,2.2153473,0.6663971,-4.860932,-2.7057009,0.9214564
1570714953,-1.885437,-11.688492,0.91638184,0.39572144,2.2153473,0.6663971,-4.860932,-2.7057009,0.9214564
1570714953,-1.012146,-9.975449,-2.1697388,1.8093262,-1.7623444,1.4003754,-3.6186044,-0.09125614,-3.7673864
1570714953,1.4281464,-8.136093,-0.3262024,1.5536652,-2.584732,1.7306061,-1.036906,1.8278751,-2.5373585
1570714953,2.7299957,-10.234009,0.25198364,2.0032043,-3.0907288,1.1521606,1.0522616,0.42829227,-1.6733389
1570714953,3.4284973,-10.3160095,1.5107422,1.8881531,-2.9288177,0.8208618,1.4046271,-0.5388346,-1.7374043
1570714953,2.874237,-9.323029,0.45968628,1.8817596,-1.6526337,0.2722473,1.3568133,0.45283222,-2.1399705
1570714953,2.7132263,-8.909424,-0.59077454,1.230896,-0.9335785,0.07518005,0.7889546,0.7698946,-3.8126395
1570714953,2.4845886,-10.315414,1.2934723,0.0143585205,0.12423706,-0.67477417,0.7534528,-0.38779068,-2.4529877
1570714953,1.0612335,-11.808197,1.3084259,-0.1401062,1.1159973,-0.65452576,-0.99565434,-2.1521893,-1.9057486
1570714953,-0.746994,-12.542023,0.9289551,0.0058288574,0.07310486,-0.24758911,-2.9006364,-2.880683,-2.4594066
1570714953,-0.81103516,-12.5103,0.9337311,0.013290405,0.033691406,-0.22096252,-2.9006364,-2.880683,-2.4594066
1570714953,-0.75956726,-12.076355,-0.4004364,0.31582642,-0.23049927,0.20301819,-3.2684548,-2.3039207,-3.019701
1570714953,-0.75956726,-12.076355,-0.4004364,0.31582642,-0.23049927,0.20301819,-3.2684548,-2.3039207,-3.019701
1570714953,0.15681458,-13.594284,-3.4350739,-0.12945557,-0.85580444,0.22006226,-1.9470675,-3.2287817,-6.3599467
1570714953,-0.7811127,-14.910492,-2.6910858,-3.1207123,0.80067444,0.5662689,-3.0530972,-5.990469,-5.8724957
1570714953,0.68055725,-11.988968,1.5610199,-4.225403,2.256897,0.36279297,-1.314002,-1.7770729,0.06509209
1570714953,0.68055725,-11.988968,1.5610199,-4.225403,2.256897,0.36279297,-1.314002,-1.7770729,0.06509209
1570714954,6.3236847,-14.247299,6.7097473,-1.9883423,-2.0169525,-1.7293854,5.146388,-2.374755,4.475319
1570714954,6.3236847,-14.247299,6.7097473,-1.9883423,-2.0169525,-1.7293854,5.005437,-3.1253233,5.954554
1570714954,1.9524689,-10.01973,-3.0142975,-1.249054,1.4643402,0.44056702,1.2360681,0.42768192,-0.7594732
1570714954,0.9977875,-10.41478,-3.8600464,-1.3662262,1.4888306,0.39901733,1.2360681,0.42768192,-0.7594732
1570714954,-2.6096802,-12.897568,0.075424194,-1.953186,0.8123932,0.72605896,-5.8689404,-2.7795696,1.6965284
1570714954,2.6384125,-7.043747,3.7768555,-2.5177765,1.0361023,0.44802856,0.6202841,1.939084,6.9194202
1570714954,2.4289246,-6.169861,3.533844,-2.255722,1.1607361,0.44908142,0.93588006,3.332118,6.831335
1570714954,2.1080933,-5.1636963,3.446457,-1.0487823,0.9530029,0.67385864,0.44745946,4.422229,6.9300323
1570714954,3.605072,-3.5464172,3.2130127,0.39678955,0.45765686,0.5193939,2.058599,6.1198883,6.7420464
1570714954,2.8862152,-3.2369537,3.0304565,1.1488647,0.57484436,0.008071899,1.7410166,6.591339,6.5601635
1570714954,1.4077911,-8.1809845,-1.4460907,2.4143982,-0.20599365,-0.07609558,-0.2596779,2.5745373,1.5648909
1570714954,1.4077911,-8.1809845,-1.4460907,2.4143982,-0.20599365,-0.07609558,-0.2596779,2.5745373,1.5648909
1570714954,-1.470047,-17.827225,-10.012558,0.09851074,0.7570038,0.37771606,-3.788283,-9.415351,-10.528983
1570714954,-1.470047,-17.827225,-10.012558,0.09851074,0.7570038,0.37771606,-3.788283,-9.415351,-10.528983
1570714954,2.3810272,-4.4717712,-1.0319061,-0.52679443,1.1660614,0.32765198,0.6948788,4.5884085,-0.66524327
1570714954,10.551254,-7.9595184,2.7329865,1.3470001,-0.9410248,-1.5919647,9.026623,3.6145144,4.0673995
1570714954,6.7648163,-14.56633,5.5718994,1.5504608,-2.422821,-1.676117,5.370173,-2.5901594,6.4910235
1570714954,8.130707,-16.126144,4.475357,1.486557,-2.1607666,-0.21244812,6.5406237,-7.4987383,5.5377464
1570714954,2.5390472,-10.519531,-2.9933472,1.7997437,0.010253906,-0.32429504,0.053675413,-1.1532612,-2.0623698
1570714954,2.5743713,-6.703766,-0.6392517,0.33287048,-0.6086731,-0.4393463,0.40482068,2.5403872,-1.5332578
1570714954,-0.6482239,-7.9798737,6.0854645,-0.39364624,0.0688324,-0.59487915,-2.8996801,2.9398413,5.0193133
1570714954,0.4112091,-10.777496,3.8965607,0.17201233,1.2928314,-0.35412598,-2.6556652,-0.33827782,4.3543415
1570714954,-1.7064667,-14.737503,3.6822815,0.3147583,2.0257263,-0.14959717,-4.2896857,-4.884987,3.7789748
1570714954,-1.0229187,-9.273941,-1.9668427,1.8838959,-1.4150696,1.1202087,-3.636667,0.2616825,-3.7849724
1570714954,-1.0229187,-9.273941,-1.9668427,1.8838959,-1.4150696,1.1202087,-3.534476,0.47657585,-3.5545301
1570714954,0.44950867,-8.199539,-0.15861511,1.4481964,-1.9200134,1.4163513,-2.0003173,1.9213848,-2.0461075
1570714954,1.2378082,-11.027695,0.4524994,1.6601868,-2.501648,1.1425781,-0.50468624,-0.6732683,-1.4354136
1570714954,1.8968048,-11.297638,1.5717926,1.6878815,-2.7328033,1.0275269,-0.35458958,-1.3322201,-1.399121
1570714954,2.8604736,-10.052658,0.10594177,1.9105225,-1.9050903,0.52046204,1.1158278,-0.103878975,-2.6159308
1570714954,4.676468,-9.391861,-0.8523407,1.392807,-1.3064117,0.14868164,2.8166294,0.3307705,-3.996305
1570714954,2.7928314,-9.854538,0.77871704,0.3136902,-0.75567627,-0.6161804,1.5185742,0.24063587,-3.2400188
1570714954,1.0959473,-11.684296,2.553421,-0.09643555,0.12423706,-0.7770386,-0.9125099,-1.8629837,-1.034409
1570714955,-1.4119873,-13.336899,1.6202698,-0.08683777,1.2683258,-0.45957947,-3.5724683,-3.5531025,-1.7697189
1570714955,-1.5245056,-13.393768,1.5646057,-0.07725525,1.302414,-0.43721008,-3.5724683,-3.5531025,-1.7697189
1570714955,-0.22505188,-10.935516,-5.8406525,0.11343384,-0.72158813,0.2157898,-2.9216144,-1.2358627,-8.871351
1570714955,0.17118835,-11.101318,-6.0417633,0.11343384,-0.72158813,0.2157898,-2.9216144,-1.2358627,-8.871351
1570714955,-1.375473,-17.794907,-1.2378082,-3.1026,1.3237152,-0.022827148,-3.2168062,-7.8795824,-3.596046
1570714955,-1.375473,-17.794907,-1.2378082,-3.1026,1.3237152,-0.022827148,-3.2168062,-7.8795824,-3.596046
1570714955,2.6354218,-12.70842,3.9947205,-3.4456177,0.60253906,0.40008545,-0.34423482,-2.3306332,3.112217
1570714955,3.0561981,-12.70842,3.9947205,-3.4456177,0.60253906,0.40008545,-0.34423482,-2.3306332,3.112217
1570714955,3.5709534,-14.05217,8.787918,-1.6634369,-2.582611,-1.1307068,2.2285001,-3.361517,8.666436
1570714955,3.213623,-14.364014,9.756973,-1.5718231,-2.3312073,-1.0326996,2.2285001,-3.361517,8.666436
1570714955,-2.9352875,-11.867462,-2.8951874,-1.4557037,1.0371704,0.5865021,-4.0058746,-1.5048351,-3.4704876
1570714955,-3.233368,-11.874039,-2.0542297,-1.4557037,1.0371704,0.5865021,-4.7810965,-1.6599436,-1.3432677
1570714955,2.3385315,-8.133102,3.949829,-2.4602509,1.6987,0.57266235,1.034574,1.4970093,6.525395
1570714955,2.3385315,-8.133102,3.949829,-2.4602509,1.6987,0.57266235,1.034574,1.4970093,6.525395
1570714955,2.1691437,-5.870575,4.1455536,-1.5249481,1.6006927,0.81874084,0.86837566,4.1146727,6.9121943
1570714955,3.6254272,-4.5489807,3.0705566,-0.4884491,1.3301086,1.0168762,2.0014782,4.9009085,6.631374
1570714955,2.4301147,-4.3825836,1.8896179,1.3715057,0.46298218,0.053878784,1.2871131,5.960081,5.049297
1570714955,2.4301147,-4.3825836,1.8896179,1.3715057,0.46298218,0.053878784,1.2871131,5.960081,5.049297
1570714955,2.928711,-16.743256,-13.443436,1.8018646,0.20625305,-0.044128418,1.2452221,-3.1963787,-5.956747
1570714955,2.928711,-16.743256,-13.443436,1.8018646,0.20625305,-0.044128418,1.5985854,-5.7975817,-10.481029
1570714955,-0.23822021,-10.163391,-5.659897,-0.4468994,1.2619324,0.78463745,-2.3397126,-0.38780785,-4.293213
1570714955,0.052078247,-9.233246,-5.044586,-0.4650116,1.2363739,0.78463745,-1.5815427,-0.38780785,-4.293213
1570714955,3.7241821,-1.8124084,-1.640625,-0.018661499,0.9849701,0.13056946,2.354475,7.757064,0.118006945
1570714955,10.948685,-11.805801,6.1961975,2.3920288,-1.597229,-2.34404,9.998894,-0.05768776,7.9280753
1570714955,10.23761,-12.8532715,6.0782776,2.4804382,-1.7026978,-2.4526978,9.998894,-0.05768776,7.9280753
1570714955,4.0061035,-19.612701,2.9867706,2.1118622,-2.057434,-0.5693054,3.1382601,-9.454386,4.1838946
1570714955,2.3139954,-10.81102,-3.6499634,1.310791,-1.7900543,0.15400696,-1.2081537,-2.2036,-5.823017
1570714955,-0.90560913,-7.360382,5.744293,-0.30203247,0.10079956,-0.5618439,-2.3239284,3.2154818,5.0604973
1570714955,-0.90560913,-7.360382,5.744293,-0.30203247,0.10079956,-0.5618439,-2.3239284,3.2154818,5.0604973
1570714955,0.56622314,-13.502701,4.770447,0.47668457,2.847046,-0.34880066,-1.8477683,-2.7912836,4.8276796
1570714955,-0.41479492,-14.550156,3.858261,0.37760925,3.197525,-0.33494568,-2.7525947,-4.1403027,3.8626368
1570714955,-1.2168579,-10.799652,-1.2581482,1.4790955,1.4739227,0.37664795,-3.8486829,-1.0376902,-1.5767848
1570714955,1.2743073,-8.387482,-1.4999695,1.0189056,-1.1753845,1.7359314,-1.4251266,1.2039509,-3.5227196
1570714955,1.2743073,-8.387482,-1.4999695,1.0189056,-1.1753845,1.7359314,-1.4251266,1.2039509,-3.5227196
1570714956,2.7587128,-8.5646515,0.7080841,0.9326172,-3.0843506,0.8176727,1.2400172,2.1838388,-1.1226512
1570714956,3.3973694,-10.63205,2.7485504,1.709198,-4.143219,0.407547,1.5525354,-0.7984991,0.48006725
1570714956,3.4093475,-10.530304,2.8119965,1.7507324,-4.081436,0.37451172,1.5525354,-0.7984991,0.48006725
1570714956,3.0921173,-10.33696,2.530075,2.2226562,-2.1234741,0.15826416,0.8463321,-0.5421438,0.16110611
1570714956,2.8712463,-10.47464,1.1737518,1.2319489,0.064575195,-0.5362854,0.9171641,-0.5875912,-2.4243126
1570714956,2.8712463,-10.47464,1.1737518,1.2319489,0.064575195,-0.5362854,0.9171641,-0.5875912,-2.4243126
1570714956,-0.60453796,-12.344498,1.2060852,-0.101760864,4.092346,-0.9954071,-2.277723,-2.753477,-2.1365368
1570714956,-3.0927124,-12.984955,-10.537476,-0.37765503,1.795639,-0.7642517,-4.747663,-3.319847,-14.187254
1570714956,-3.2160187,-13.233948,-10.417175,-0.4650116,1.3887024,-0.71951294,-4.747663,-3.319847,-14.187254
1570714956,-4.1569366,-17.666214,3.533844,-3.225113,-0.59375,0.7036896,-5.9871407,-7.7431097,-0.6608324
1570714956,-4.1569366,-17.666214,3.533844,-3.242157,-0.41159058,0.7420349,-6.1059656,-7.7582235,0.38837934
1570714956,0.94151306,-12.453445,3.1998444,-2.7244415,2.035324,0.78463745,-1.6385564,-2.5879984,2.3611555
1570714956,8.079834,-12.21402,2.0009613,-2.4549255,0.5993347,-1.1967468,6.7547874,-1.0863934,1.5946146
1570714956,8.079834,-12.21402,2.0009613,-2.4549255,0.5993347,-1.1967468,6.7547874,-1.0863934,1.5946146
1570714956,9.059067,-10.223846,4.1329956,-1.1457214,-2.0446472,0.18916321,7.683057,-0.48363876,3.562478
1570714956,1.122879,-10.275909,1.0744019,-1.9457245,1.0605927,-0.18261719,0.025372982,-0.18639755,2.342243
1570714956,-5.3899536,-12.243942,2.6479797,-1.8956604,1.3982849,-0.3317566,-6.203148,-1.3956099,4.383339
1570714956,0.47764587,-11.014526,4.0857086,-1.664505,0.39587402,0.5428314,-2.1635957,-1.5361347,5.913574
1570714956,3.5715485,-6.083664,1.3048401,-2.2003326,1.2661896,0.5098114,1.3215175,3.070942,4.9170113
1570714956,3.4117432,-5.102646,4.316742,-1.2778015,1.4835052,0.60461426,1.6641567,4.6489754,7.323434
1570714956,4.146759,-4.187454,2.4654236,-0.10601807,1.1341095,0.6429596,2.3727064,5.5377493,5.742328
1570714956,4.1287994,-3.8887787,2.402588,0.7323456,0.6142578,0.39794922,2.804756,6.035756,5.2678137
1570714956,2.1882935,-5.2911835,1.3263855,1.5036011,0.1945343,0.10713196,0.86090636,5.122572,4.4790325
1570714956,2.858673,-11.12706,-4.304779,1.93396,-0.6395569,0.10501099,0.7578876,-0.008075714,-1.0877659
1570714956,2.858673,-11.12706,-4.304779,1.93396,-0.6395569,0.10501099,0.7578876,-0.008075714,-1.0877659
1570714956,-1.2958679,-14.298767,-9.033325,0.0143585205,0.90719604,0.45654297,-2.7448702,-4.775943,-7.7893205
1570714956,-1.0923615,-12.953232,-8.390472,0.01222229,0.90719604,0.45654297,-2.7448702,-4.775943,-7.7893205
1570714956,2.5785522,-6.9479675,-1.7016754,-0.010147095,0.68029785,0.3841095,0.67300904,2.549632,-1.1404214
1570714956,7.4926605,-13.372818,2.4576416,1.3917389,-1.7857819,-1.4140625,5.455767,-2.6864977,3.8916903
1570714956,7.4926605,-13.372818,2.4576416,1.3917389,-1.7857819,-1.4140625,5.455767,-2.6864977,3.8916903
1570714956,7.167038,-16.7612,3.7774506,0.9464569,-3.0832825,-0.9357605,5.701479,-6.093686,4.054089
1570714956,1.8824463,-9.7378235,0.57281494,1.1723022,-0.24754333,-0.4350891,0.15860105,-0.20200539,1.135489
1570714956,1.8824463,-9.7378235,0.57281494,1.1723022,-0.24754333,-0.4350891,0.15860105,-0.20200539,1.135489
1570714957,-1.7567444,-13.210602,6.372162,0.7089081,3.054779,-0.4148407,-4.257368,-1.5084352,8.214886
1570714957,-1.7004852,-13.626602,5.6622925,0.7089081,3.054779,-0.4148407,-4.257368,-1.5084352,8.214886
1570714957,-2.2828674,-11.138428,-3.783432,1.6665802,0.23928833,0.6706543,-4.8446407,-1.1903257,-4.6711655
1570714957,-2.2828674,-11.138428,-3.783432,1.6665802,0.23928833,0.6706543,-4.8446407,-1.1903257,-4.6711655
1570714957,1.6897125,-8.662216,-0.8044586,0.6077118,-2.407898,1.7945099,-0.7078078,1.1340151,-2.8459024
1570714957,2.190689,-8.474274,-0.628479,0.5576477,-2.5762177,1.7444458,-0.14709902,1.4491777,-2.617661
1570714957,2.9119415,-10.872665,1.1593933,1.9094696,-3.8651886,0.7910309,1.4864223,-0.7783365,-0.6942799
1570714957,3.075348,-10.408798,1.4431,2.0383606,-3.7554626,0.5747833,1.6598766,-0.36631775,-1.0725672
1570714957,2.9358826,-8.678986,-0.6428375,1.1467285,-1.036911,-0.07182312,1.2416401,0.9163017,-3.4811213
1570714957,2.9358826,-8.678986,-0.6428375,1.1467285,-1.036911,-0.07182312,1.2416401,0.9163017,-3.4811213
1570714957,1.3634949,-10.597931,1.3455353,-0.3712616,0.18069458,-0.87609863,-0.008584619,-0.28582096,-2.576884
1570714957,-0.24659729,-12.9322815,1.5765839,-0.16140747,1.5548859,-0.5906067,-2.1956317,-3.0970745,-1.3879774
1570714957,-0.31723022,-12.962204,1.4718323,-0.11987305,1.5634003,-0.5501251,-2.3137496,-3.173749,-1.5298908
1570714957,-1.7980499,-11.583145,0.10295105,-0.016540527,0.8624573,0.079437256,-3.6088815,-1.8073997,-3.2011628
1570714957,-1.7525482,-12.061386,0.09277344,0.10809326,0.42889404,0.09861755,-3.5808916,-2.264739,-3.1712873
1570714957,-1.296463,-13.298599,-5.8879395,-0.58006287,-1.0880432,0.18276978,-2.9790282,-3.019846,-8.863121
1570714957,-1.4011993,-13.612228,-6.193802,-0.72387695,-1.1050873,0.19662476,-2.9790282,-3.019846,-8.863121
1570714957,-0.9319458,-15.397705,2.0536194,-4.8272705,2.6670227,0.36386108,-2.608976,-5.79463,-0.630052
1570714957,-0.9319458,-15.240295,2.458847,-4.8272705,2.6670227,0.36386108,-2.4725122,-5.2066126,0.5107291
1570714957,6.1267548,-12.929291,6.1339417,-2.191803,-1.2765961,-0.7163086,4.076318,-2.8024883,6.2266345
1570714957,6.1267548,-12.929291,6.1339417,-2.191803,-1.2765961,-0.7163086,4.587327,-2.5237675,6.8126464
1570714957,7.6782074,-9.618698,5.680847,-0.2104187,0.4842987,0.72924805,6.940477,0.7431116,8.958437
1570714957,7.6782074,-9.618698,5.680847,-0.2104187,0.4842987,0.72924805,6.940477,0.7431116,8.958437
1570714957,-4.983536,-11.544846,1.067215,-1.8104401,1.2821808,0.21046448,-3.9305482,0.028773308,0.9318129
1570714957,-3.2615051,-11.295837,2.2834625,-1.986206,1.0883026,0.56733704,-6.9753237,-1.9070082,3.6359518
1570714957,1.5652161,-8.298904,4.22876,-2.315384,1.5271912,0.3564148,-0.4253211,1.0529566,6.731135
1570714957,2.1440125,-6.0190277,4.679474,-1.3843384,1.684845,0.5044861,0.7282685,3.97371,7.8672667
1570714957,4.36763,-3.8983612,3.2249908,-0.33824158,1.3950958,0.6898346,2.347703,5.415967,7.1940994
1570714957,3.711609,-3.746933,3.1777039,1.0924072,0.58761597,0.25520325,2.6553254,6.278249,6.2189136
1570714957,2.355896,-5.7580566,0.3896637,1.7816315,0.090148926,0.058135986,0.98276675,4.6065035,3.3336735
1570714957,1.0031738,-12.2960205,-5.98909,2.1182556,-0.9143982,0.21366882,-0.3611542,-0.5477543,-1.5509336
1570714957,-2.4989471,-19.612701,-11.97879,-0.14543152,-0.5245209,0.30633545,-0.629004,-9.3623085,-13.792919
1570714957,-2.217636,-16.798325,-9.62709,-0.22746277,1.192688,0.60354614,-4.141208,-9.3236,-9.479548
1570714958,4.2048187,-5.015854,0.7481842,0.013290405,1.0787048,-0.13360596,2.9398725,4.987589,2.3078425
1570714958,4.396347,-5.015854,0.7481842,0.013290405,1.0787048,-0.13360596,2.9398725,4.987589,2.3078425
1570714958,8.681381,-7.4333954,3.0807343,1.199997,0.17855835,-1.3022156,7.1095033,3.643489,3.7070885
1570714958,8.370132,-19.60971,2.197281,1.9073334,-2.2864685,-1.4257812,6.1674004,-9.377783,4.3227425
1570714958,6.0453644,-11.668137,1.9949646,1.5696411,-3.1993866,0.0592041,3.776986,-3.5773897,2.58575
1570714958,1.3114166,-5.254074,0.37109375,0.36802673,-0.40307617,-0.2891388,-1.1864083,4.1771564,0.28696895
1570714958,1.3114166,-5.254074,0.37109375,0.36802673,-0.40307617,-0.2891388,-1.1864083,4.1771564,0.28696895
1570714958,0.88046265,-6.5164185,3.3183594,-0.53211975,0.6877594,-0.5352173,-1.3815944,4.0206013,2.5629265
1570714958,-2.0667877,-15.83226,4.5316315,0.70677185,2.5796661,-0.26783752,-3.8823717,-4.5593777,5.119982
1570714958,-3.178894,-12.974182,0.5626373,1.1499329,1.4739227,0.3649292,-5.5799346,-3.4874878,1.3504527
1570714958,-1.0935516,-9.411011,-2.7299957,2.0404968,-2.4739532,1.3417816,-3.7658808,0.2392168,-4.6251726
1570714958,-1.0935516,-9.411011,-2.7299957,2.0404968,-2.4739532,1.3417816,-3.7658808,0.2392168,-4.6251726
1570714958,1.6101074,-7.545334,-0.48960876,1.1307526,-2.7509155,1.6070251,-0.7154784,2.8461637,-2.85823
1570714958,2.592926,-10.225632,0.47705078,1.5451355,-3.0246887,0.85176086,1.2456863,-0.05944538,-1.802566
1570714958,2.521698,-9.154831,1.3485413,1.0348816,-1.6728668,0.19767761,0.920537,0.6688595,-1.4539852
1570714958,2.521698,-9.154831,1.3485413,1.0348816,-1.6728668,0.19767761,0.920537,0.6688595,-1.4539852
1570714958,2.2900543,-9.300873,0.89123535,0.5895996,-0.6608734,-0.1325531,0.37410557,0.61408997,-1.874871
1570714958,0.56204224,-12.555786,2.6677399,0.44578552,0.045410156,-0.5863495,-1.4079163,-2.5964718,-0.63719726
1570714958,0.49499512,-12.586914,2.6785126,0.46496582,0.15405273,-0.57144165,-1.5903165,-2.7762632,-0.43217945
1570714958,-1.2994537,-12.485764,1.1988983,0.20503235,1.9639435,-0.3445282,-3.1377623,-2.563218,-1.9600854
1570714958,-1.9638367,-12.567169,0.9540863,0.09211731,2.4837952,-0.3168335,-3.8484933,-2.929823,-2.2753844
1570714958,-3.055603,-14.233536,-6.072891,-1.5483856,-0.48616028,0.45761108,-5.0886497,-4.510145,-10.36088
1570714958,-3.055603,-14.233536,-6.072891,-1.5483856,-0.48616028,0.45761108,-5.0886497,-4.510145,-10.36088
1570714958,-1.3479309,-16.239273,1.1414337,-3.162262,0.023025513,0.8208618,-3.2706509,-6.0737457,-2.2305112
1570714958,0.70329285,-13.654724,2.0326843,-3.3912964,2.113083,0.5183258,-0.81500363,-4.0278864,0.8341832
1570714958,4.897339,-12.882599,2.5163116,-3.5169983,1.6283875,0.14761353,3.2508378,-2.3267984,2.1338694
1570714958,7.0886383,-12.850876,3.2704773,-2.541214,-0.8888397,-1.3490753,5.944142,-2.578269,3.6036448
1570714958,6.020813,-14.64653,6.3494263,-1.3907318,-1.7272034,0.12524414,2.6040306,-6.141881,7.9665346
1570714958,8.170212,-9.612717,5.309738,-0.4192047,-1.2765961,0.569458,7.928603,0.34929752,6.728048
1570714958,-0.56562805,-9.785095,-0.22087097,-1.2256165,2.6457062,0.017654419,-1.2078048,0.73500824,3.231185
1570714958,-2.3780365,-12.031464,2.6060944,-1.5569153,-0.06112671,0.696228,-6.9324055,-3.2511702,2.791842
1570714958,1.6513977,-9.096771,3.743332,-2.2440033,1.4835052,0.47998047,0.15994787,0.6109352,7.049632
1570714958,2.4145508,-5.9639587,3.3830109,-1.7966003,1.3844452,0.5737152,1.285865,3.7505417,6.188863
1570714958,3.1753082,-4.225769,3.6763,-0.77500916,1.4898987,0.649353,1.9589604,5.4887295,7.2681303
1570714959,4.391571,-3.430893,2.269104,0.6109009,0.67497253,0.26159668,3.4675965,6.572319,5.3691597
1570714959,2.992157,-5.1062317,2.0787659,1.3320923,0.53648376,-0.045196533,2.0053935,5.340948,5.354625
1570714959,2.434906,-7.4489594,0.40283203,1.7805634,0.19241333,-0.11444092,1.5314947,3.4467773,3.54525
1570714959,-1.3084259,-19.612701,-15.246277,0.5352783,-1.0614014,-0.27635193,-0.03965366,-9.367164,-17.959871
1570714959,-2.0733795,-19.612701,-12.971191,0.4820099,-0.9644623,-0.20817566,-0.03965366,-9.367164,-17.959871
1570714959,0.8164215,-9.525925,-5.254074,0.5906677,-0.25286865,0.32551575,-1.3869909,-0.987669,-5.649098
1570714959,9.385864,-12.709625,3.0891113,1.106247,0.5066681,-1.0710449,7.0062485,0.52221966,4.1116214
1570714959,6.695389,-17.199951,1.0845795,1.0476685,-0.29867554,-1.4332428,6.032831,-6.8814516,1.8268247
1570714959,3.794815,-7.1215515,2.0901337,0.27001953,-1.7293243,-0.024963379,1.8137779,2.2143478,2.4654438
1570714959,4.004303,-4.906311,2.261917,0.27427673,-2.4952545,-0.26890564,2.1351566,5.5578003,2.982792
1570714959,3.2788544,-9.600143,5.194824,0.87509155,-2.0286713,-0.6012573,1.8371611,1.8204441,5.690305
1570714959,2.4779968,-10.174164,3.7666779,1.2596436,-1.261673,-0.60446167,0.43861294,-0.14823532,4.4031467
1570714959,-0.344162,-12.831726,4.948822,0.47880554,0.20199585,-0.8643799,-1.9493151,-1.7770863,4.0160875
1570714959,-1.2084808,-13.469772,6.214752,0.26895142,2.1035004,-0.4659729,-3.719776,-3.4593391,6.59057
1570714959,-3.3925781,-12.548004,0.0047912598,2.1928253,2.4113617,0.11991882,-5.56756,-2.3073845,0.4478963
1570714959,-1.0785828,-9.286514,-1.9967651,1.0892029,-2.2406616,1.2736053,-3.4340525,0.50294876,-4.3975663
1570714959,-1.0785828,-9.286514,-1.9967651,1.0892029,-2.2406616,1.2736053,-3.4340525,0.50294876,-4.3975663
1570714959,2.0775757,-10.047272,1.0630188,1.010376,-2.025467,0.94763184,0.5063764,0.14406395,-1.223382
1570714959,2.0775757,-10.047272,1.0630188,1.010376,-2.025467,0.94763184,0.5063764,0.14406395,-1.223382
1570714959,2.5623932,-9.274536,0.71406555,1.0679016,-1.7943115,0.29782104,0.8694669,0.5080061,-1.8039398
1570714959,2.5204926,-9.691727,1.6663666,0.8601837,-1.8209381,-0.36157227,0.8061056,0.3964672,-1.1447039
1570714959,2.5204926,-9.691727,1.6663666,0.8601837,-1.8209381,-0.36157227,0.8061056,0.3964672,-1.1447039
1570714959,0.7649536,-11.89978,2.3337555,0.6684265,0.67178345,-0.40737915,-1.2753952,-2.1605797,-0.8261304
1570714959,0.7649536,-11.89978,2.3337555,0.6684265,0.67178345,-0.40737915,-1.2753952,-2.1605797,-0.8261304
1570714959,-0.76794434,-12.840103,0.6476288,0.116622925,3.5405426,-0.32643127,-2.553832,-2.8851252,-2.1841047
1570714959,-0.76794434,-12.840103,0.6476288,0.116622925,3.5405426,-0.32643127,-2.553832,-2.8851252,-2.1841047
1570714959,-4.4639893,-15.975906,-4.7734375,-1.8615723,-1.102951,-0.105911255,-5.4809337,-5.156104,-10.09893
1570714959,-4.4639893,-15.975906,-4.7734375,-1.8615723,-1.102951,-0.105911255,-5.4809337,-5.156104,-10.09893
1570714959,1.1881256,-11.77948,1.3892365,-2.8714447,2.497635,0.65467834,-0.6119281,-1.7818604,-0.18060112
1570714959,1.6094971,-11.5885315,1.2186432,-2.9215088,2.5562286,0.6578827,-0.6119281,-1.7818604,-0.18060112
1570714959,4.624405,-15.897507,2.6264343,-2.287674,-0.17404175,-1.7006226,4.008925,-3.9750786,2.5995312
1570714959,4.624405,-15.897507,2.6264343,-2.287674,-0.17404175,-1.7006226,4.008925,-3.9750786,2.5995312
1570714959,2.3110046,-12.165543,0.08679199,-0.7931061,-0.9399719,0.061325073,1.9000212,-1.7775545,3.023113
1570714959,1.7333984,-12.006317,-0.44950867,-0.7931061,-0.9399719,0.061325073,1.9000212,-1.7775545,3.023113
1570714960,-6.5086365,-12.619843,0.22564697,-1.7475891,0.8976135,0.022979736,-7.7146764,-2.0384398,2.2420063
1570714960,-3.5996857,-12.467209,2.9346924,-1.410965,-0.37963867,0.78144836,-6.7225924,-2.9199276,3.9153025
1570714960,3.4243011,-6.632538,3.2537231,-2.0426636,1.5378418,0.44589233,1.7828642,3.116764,6.244804
1570714960,3.4805756,-6.435608,3.3889923,-2.0426636,1.5378418,0.44589233,1.7828642,3.116764,6.244804
1570714960,3.1842957,-5.2008057,3.0041199,-0.9198761,1.7167969,0.6056824,1.7292413,4.6410217,6.5787196
1570714960,4.2796326,-3.2220001,0.8307953,0.2124939,0.80174255,0.45121765,2.8413794,6.3935013,4.2360964
1570714960,1.9602509,-4.7183685,2.1404114,1.02742,0.3809662,0.36279297,0.6157366,5.162754,5.4444714
1570714960,1.704071,-6.927017,0.04548645,1.6548615,0.004928589,0.21899414,0.5247941,3.82977,3.4056125
1570714960,1.7842712,-18.862717,-16.411057,1.2926788,-0.27204895,-0.037734985,1.9000441,-5.089569,-11.212748
1570714960,0.3040619,-12.706024,-8.111557,-0.0058898926,0.80067444,0.22006226,-1.4904528,-4.1179104,-7.437255
1570714960,0.3040619,-12.706024,-8.111557,-0.0058898926,0.80067444,0.22006226,-1.4904528,-4.1179104,-7.437255
1570714960,4.585495,-5.304352,-0.41299438,0.046310425,0.855011,0.12631226,2.7806306,4.156498,0.70264065
1570714960,8.139084,-13.894745,3.7499237,1.7848206,-2.0201416,-1.2106018,6.487384,-2.2108688,4.739373
1570714960,8.063675,-14.233536,3.8732147,1.7709808,-2.1778107,-1.198883,6.516197,-3.3654346,4.802087
1570714960,5.3348846,-13.645157,2.407364,1.519577,-3.093933,-0.6481323,4.108968,-4.212591,3.6056776
1570714960,1.0899658,-10.29686,2.1637573,1.2958679,-1.8465118,-0.5778351,-0.65826845,-0.15071106,2.3838716
1570714960,-0.5919647,-7.262207,4.075531,-0.113479614,0.4874878,-0.47769165,-2.525418,2.8146343,3.4757955
1570714960,-0.95588684,-7.2568207,4.70401,-0.13264465,0.95088196,-0.48301697,-3.0478408,3.0441227,4.378292
1570714960,-3.6846771,-15.823273,2.2906494,0.7472534,2.7170868,-0.4148407,-5.1785574,-5.04447,1.4767007
1570714960,-4.3933563,-15.823273,2.2906494,0.7472534,2.7170868,-0.4148407,-5.1785574,-5.04447,1.4767007
1570714960,-1.4215546,-10.632645,-3.0699615,1.7209167,-1.564209,1.1479034,-4.254858,-0.5973425,-4.3018966
1570714960,2.597107,-8.0229645,-0.38726807,0.6535187,-2.6795502,1.5516357,0.5050278,1.9760599,-2.47442
1570714960,2.597107,-8.0229645,-0.38726807,0.6535187,-2.6795502,1.5516357,0.5050278,1.9760599,-2.47442
1570714960,2.1200714,-9.208694,0.5782013,0.82821655,-3.026825,0.9593506,0.91703045,1.4786663,-1.2019391
1570714960,2.3433228,-10.359711,1.9871826,1.0189056,-2.4270782,0.41926575,0.78706896,-0.31888103,-0.15540218
1570714960,1.9734192,-9.328415,1.0211334,1.2766876,-1.7314606,-0.016433716,0.5321727,0.75479126,-1.1092672
1570714960,2.043457,-9.11174,0.75357056,1.1957397,-1.78685,-0.0856781,0.40951073,0.88947487,-1.5265744
1570714960,1.8632812,-11.736969,2.8748322,0.84846497,-1.6920471,-0.58102417,0.28911567,-1.2526283,-0.78597426
1570714960,1.3114166,-12.308594,3.6691132,0.8878784,-0.767395,-0.54693604,-0.7524724,-2.3695831,0.7145331
1570714960,-0.21907043,-11.924316,2.0105286,0.6034546,2.0608826,-0.49154663,-2.269891,-2.2805424,-0.6834152
1570714960,-1.5023651,-12.705429,-5.9753265,0.6492615,3.9879456,-0.39460754,-3.2073154,-2.8000479,-6.459942
1570714960,-1.5023651,-12.705429,-5.9753265,0.6492615,3.9879456,-0.39460754,-3.2073154,-2.8000479,-6.459942
1570714961,-1.7645264,-13.445236,-11.632828,0.3573761,2.289917,-0.43295288,-3.168908,-3.5478382,-14.216162
1570714961,-1.7645264,-13.445236,-11.632828,0.3573761,2.289917,-0.43295288,-3.168908,-3.5478382,-14.216162
1570714961,-1.7645264,-13.445236,-11.632828,0.3573761,2.289917,-0.43295288,-3.168908,-3.5478382,-14.216162
1570714961,-1.7645264,-13.445236,-11.632828,0.3573761,2.289917,-0.43295288,-3.168908,-3.5478382,-14.216162
1570714961,-1.7645264,-13.445236,-11.632828,0.3573761,2.289917,-0.43295288,-3.168908,-3.5478382,-14.216162
1570714961,-1.7645264,-13.445236,-11.632828,0.3573761,2.289917,-0.43295288,-3.168908,-3.5478382,-14.216162
1570714961,-1.7645264,-13.445236,-11.632828,0.3573761,2.289917,-0.43295288,-3.168908,-3.5478382,-14.216162
1570714961,-1.7645264,-13.445236,-11.632828,0.3573761,2.289917,-0.43295288,-3.168908,-3.5478382,-14.216162
1570714961,-2.770691,-12.044037,4.3197327,-1.5174866,0.22862244,0.792099,3.0975256,-1.0398178,2.869547
1570714961,1.42276,-7.9511414,0.67396545,-2.4634552,1.2363739,0.18383789,-1.0044522,1.269578,5.030333
1570714961,2.6491852,-6.1453247,3.0962982,-2.2152405,1.6273193,0.3851776,1.0522721,3.3255568,5.887949
1570714961,4.027054,-4.1276093,2.7281952,0.09744263,1.126648,0.630188,2.5425093,5.503147,6.2102504
1570714961,4.027054,-4.1276093,2.7281952,0.09744263,1.126648,0.630188,2.5425093,5.503147,6.2102504
1570714961,1.3688812,-7.5764465,-0.23822021,2.0074615,-0.22731018,0.112457275,0.5473238,3.3059444,3.14543
1570714961,1.3688812,-7.5764465,-0.23822021,2.0074615,-0.22731018,0.112457275,0.5473238,3.3059444,3.14543
1570714961,1.8644867,-11.666351,-7.0263824,1.9606018,-0.384964,0.19023132,0.020128012,-0.2219181,-2.5144897
1570714961,-2.2559357,-19.50496,-11.133041,0.14006042,1.0392914,0.35534668,-3.7728457,-9.275425,-9.36362
1570714961,3.3016052,-4.7010193,-0.30586243,-0.15821838,0.7165222,0.23710632,2.0664916,4.930435,0.6540135
1570714961,3.218399,-4.490326,-0.1550293,-0.12731934,0.7857666,0.20727539,2.4534094,5.540332,1.3550642
1570714961,8.025955,-8.700531,3.4751892,1.3384857,-1.9924469,-1.2798309,7.1267514,4.041421,4.027983
1570714961,9.961075,-13.785812,4.732147,1.5984039,-3.6563873,-1.5919647,7.905016,-2.4173603,6.183072
1570714961,1.0396881,-12.397171,-0.58358765,2.586975,0.72610474,-0.912323,1.4319562,-1.9138241,5.743492
1570714961,1.0396881,-12.397171,-0.58358765,2.586975,0.72610474,-0.912323,1.4319562,-1.9138241,5.743492
1570714961,-1.7483673,-6.352417,4.7387238,-0.45010376,-0.08456421,-0.5831604,-3.0354717,4.7525377,3.0785177
1570714961,-1.7483673,-6.352417,4.7387238,-0.45010376,-0.08456421,-0.5831604,-3.0354717,4.7525377,3.0785177
1570714961,-4.3263245,-17.487854,4.5160675,0.44152832,1.5005493,-0.12295532,-4.9597936,-6.6816425,3.3184192
1570714961,-4.7686462,-17.365738,4.759079,0.4862671,1.5389099,-0.019622803,-6.292327,-7.1958256,3.8873897
1570714961,-1.0336914,-10.037094,-3.1292267,1.964859,-1.4949646,1.2267303,-2.936915,0.078679085,-4.660842
1570714961,-0.64523315,-9.412201,-2.6491852,1.6165161,-1.7921753,1.4237976,-2.69949,0.32099438,-4.531702
1570714961,2.17453,-8.106766,0.35972595,0.6311493,-2.6688843,1.286377,0.9694792,2.4634676,-1.5704871
1570714961,2.1452026,-10.685928,0.73861694,0.90171814,-3.3069916,0.48423767,1.1939132,-0.42246914,-1.2011836
1570714961,2.0386658,-9.956284,1.8860321,1.4599152,-3.6265564,-0.03666687,0.7875773,0.23300648,-0.27160406
1570714961,1.9859924,-9.932938,1.8148041,1.4854889,-3.6073914,-0.04626465,0.7875773,0.23300648,-0.27160406
1570714962,2.434906,-11.213837,2.8754425,1.5728455,-1.7431793,-0.3828888,0.7684442,-1.3435717,-0.09772253
1570714962,2.2733002,-11.131241,2.8407135,1.552597,-1.5418396,-0.40205383,0.7684442,-1.3435717,-0.09772253
1570714962,0.38905334,-11.367065,1.1875305,0.4116974,1.3908386,-0.81217957,-1.4134002,-1.639183,-2.1591485
1570714962,-1.5963287,-12.609665,0.8744812,0.1581726,4.251068,-0.7077942,-3.4660394,-2.8081627,-1.8128617
1570714962,-1.5963287,-12.609665,0.8744812,0.1581726,4.251068,-0.7077942,-3.4660394,-2.8081627,-1.8128617
1570714962,-3.9037476,-14.566925,-5.04039,-1.2959137,-1.5056152,0.09648132,-5.3530073,-4.448963,-10.128933
1570714962,-3.9037476,-14.566925,-5.04039,-1.2959137,-1.5056152,0.09648132,-5.3530073,-4.448963,-10.128933
1570714962,-0.32920837,-13.075928,-0.035308838,-2.6168518,1.9639435,0.6333771,-2.2992601,-3.7790813,-1.1072726
1570714962,-0.32920837,-13.075928,-0.035308838,-2.6168518,1.9639435,0.6333771,-2.2992601,-3.7790813,-1.1072726
1570714962,4.7375336,-13.917496,3.028061,-3.4136658,1.715744,-0.33494568,3.0209594,-2.8763046,4.0262246
1570714962,4.7375336,-13.917496,3.028061,-3.4136658,1.715744,-0.33494568,3.4361756,-3.1681356,3.5638125
1570714962,8.131912,-11.138428,3.9773712,-0.67593384,-1.6643524,0.5971527,6.937212,-1.4897518,6.4836335
1570714962,8.131912,-11.138428,3.9773712,-0.67593384,-1.6643524,0.5971527,6.937212,-1.4897518,6.4836335
1570714962,-6.3099213,-12.8927765,-2.5881348,-1.8509216,0.68455505,0.3659973,-7.6074333,-2.267003,-0.9568317
1570714962,-6.138733,-12.8927765,-2.5881348,-1.8509216,0.68455505,0.3659973,-7.6074333,-2.267003,-0.9568317
1570714962,-0.7362213,-9.09198,3.7774506,-2.49115,1.8254547,0.32551575,-2.3395073,0.5135832,6.4651527
1570714962,2.8173828,-5.096054,4.193451,-1.1659546,1.3887024,0.52578735,1.4175053,4.8157167,7.753891
1570714962,2.8927917,-5.091263,4.2550964,-1.1659546,1.3887024,0.52578735,1.4175053,4.8157167,7.753891
1570714962,3.9139252,-4.3987427,2.3618774,0.16349792,0.95407104,0.6216583,2.6843872,5.337781,6.1398964
1570714962,2.4875793,-4.633377,1.5532379,1.1488647,0.39694214,0.27864075,1.8000276,5.4074917,4.8832855
1570714962,1.7411804,-9.607925,-2.996338,1.8316956,-0.45314026,-0.09526062,0.5500051,1.0784197,-0.14431119
1570714962,1.7411804,-9.607925,-2.996338,1.8316956,-0.45314026,-0.09526062,0.5500051,1.0784197,-0.14431119
1570714962,-2.0781708,-19.600723,-14.0551605,0.8154297,-1.0134735,-0.016433716,-1.8551208,-9.396332,-14.013672
1570714962,-0.90740967,-9.967056,-7.23468,0.39253235,0.91252136,0.59609985,-2.5926394,-1.9349737,-6.845648
1570714962,1.1665802,-7.226303,-4.3071747,0.24551392,0.49813843,0.4149933,-0.24550098,2.4625702,-3.4659877
1570714962,6.9431915,-11.631638,2.8042145,0.9794922,-1.2446289,-1.3714447,6.3344865,-0.29374218,3.92525
1570714962,6.9431915,-11.631638,2.8042145,0.9794922,-1.2446289,-1.3714447,6.3344865,-0.29374218,3.92525
1570714962,5.8801575,-11.689087,6.4804993,1.6942749,-1.2254639,-0.6055298,5.5513797,-1.8777437,8.344399
1570714962,5.8801575,-11.689087,6.4804993,1.6942749,-1.2254639,-0.6055298,5.5513797,-1.8777437,8.344399
1570714962,0.78289795,-7.0251923,4.814743,-0.2146759,-0.3572693,-0.6385498,-0.7154821,3.3136024,4.1084933
1570714962,0.78289795,-7.0251923,4.814743,-0.2146759,-0.3572693,-0.6385498,-0.7154821,3.3136024,4.1084933
1570714962,-0.44592285,-9.269745,5.878357,0.6364746,1.2906952,-0.4105835,-2.9645572,1.7734919,6.712005
1570714962,-0.17536926,-13.160919,3.6164398,0.79519653,1.4504852,-0.6183014,-1.9467852,-2.5708427,3.453818
1570714962,-3.538025,-12.879608,-0.17477417,2.010666,0.09547424,0.8112793,-6.1591883,-3.2720146,-0.21239805
1570714962,-1.8399506,-10.974426,-2.5330658,2.3558044,-1.0923004,0.9380493,-4.6001787,-1.620678,-2.3702273
1570714963,-0.88345337,-8.990829,-1.8094177,1.5941467,-2.9458618,1.3098145,-2.821816,0.8529482,-3.662566
1570714963,1.0444641,-9.357132,-0.8708954,1.1893463,-3.5360107,1.5803986,-0.7417748,1.2625647,-2.9706736
1570714963,1.5765839,-10.7739105,0.41000366,1.3352814,-3.6329498,0.934845,0.36306918,-0.5889406,-1.9781959
1570714963,1.8704681,-10.229233,0.9528961,1.4247742,-3.3091125,0.70581055,0.6198971,-0.15119553,-1.5499063
1570714963,1.7657166,-9.451111,1.0690155,1.3011932,-2.0286713,0.22218323,0.60092676,0.38385773,-1.4897146
1570714963,1.537674,-8.864532,0.7852936,0.1304779,-0.28588867,-0.3690338,0.060623527,1.123539,-2.1138837
1570714963,0.87927246,-10.774506,1.312027,-0.037841797,0.30958557,-0.7812958,-0.4377123,-0.5605564,-1.4627376
1570714963,0.1663971,-11.983582,1.091156,0.050582886,0.3905487,-0.7173767,-1.4835705,-1.8087406,-1.7088296
1570714963,-2.024292,-12.74852,1.2479706,0.34352112,0.6100006,-0.06437683,-3.6252606,-2.911727,-1.4926686
1570714963,-2.0931244,-12.643784,1.1001282,0.35417175,0.6153259,-0.032409668,-3.8252237,-2.8311272,-1.6049244
1570714963,-2.4007874,-11.902771,0.23043823,0.44792175,0.45765686,0.2626648,-4.3283057,-2.1147995,-2.695271
1570714963,-0.73202515,-13.128006,-4.190445,-0.17951965,-0.44674683,0.18063354,-1.867529,-2.8254137,-6.712349
1570714963,-0.73202515,-13.128006,-4.190445,-0.17951965,-0.44674683,0.18063354,-1.867529,-2.8254137,-6.712349
1570714963,-0.28790283,-13.071152,-1.1833344,-4.198761,2.977005,0.19555664,-1.6628271,-3.0853395,-3.9116845
1570714963,-0.28790283,-13.071152,-1.1833344,-4.198761,2.977005,0.19555664,-1.6628271,-3.0853395,-3.9116845
1570714963,4.1282043,-13.3003845,3.5236664,-3.3273773,0.6174469,-0.44360352,2.2332659,-2.5794601,3.9808416
1570714963,0.6290741,-17.187973,7.0964203,-1.2533112,-1.9200134,-0.8750305,-0.68280697,-6.557699,10.084945
1570714963,0.6715698,-17.123337,6.3350525,-1.2533112,-1.9200134,-0.8750305,-0.68280697,-6.557699,10.084945
1570714963,1.6927032,-10.459671,0.4519043,-0.30628967,1.319458,0.51620483,0.68006396,-0.11263847,2.7827713
1570714963,-3.8534698,-11.162369,-2.4103699,-1.6368103,1.5602112,0.4384308,-4.7672586,-0.4928789,-1.944587
1570714963,1.7974396,-7.8206635,3.079544,-2.6807556,2.1088257,0.23283386,0.020458937,1.1334677,5.982944
1570714963,1.7974396,-7.8206635,3.079544,-2.6807556,2.1088257,0.23283386,0.020458937,1.1334677,5.982944
1570714963,2.2385712,-5.239105,3.4715881,-1.0562286,1.73172,0.4629364,0.6368141,4.453373,7.5471797
1570714963,3.6457672,-4.8829803,3.4853516,0.27108765,0.77297974,0.6355133,1.6955222,4.6585846,7.4453135
1570714963,3.5308533,-4.3544617,3.470993,1.0199738,0.6962738,0.3841095,2.2487283,5.3420773,6.9560156
1570714963,2.865265,-4.4891357,2.197876,1.4332886,0.585495,0.14016724,1.7360771,5.6535635,6.204473
1570714963,2.3457184,-9.021957,-1.6843262,2.3568726,-0.5426178,-0.053710938,1.0054749,2.1483202,1.0992615
1570714963,2.3145905,-10.760742,-4.063553,2.4697876,-0.4637909,-0.031341553,0.7146659,0.20088959,-0.49751592
1570714963,-4.9984894,-19.612701,-11.471222,0.2913208,-0.32530212,-0.05265808,-4.941068,-9.395107,-13.494877
1570714963,1.8507233,-5.261261,-1.0103607,-0.02079773,0.80174255,0.50660706,0.035439372,4.30389,-0.15929496
1570714963,6.2207336,-5.6790466,-1.2084808,0.62368774,0.7399597,0.09008789,2.3595705,5.581809,1.5477111
1570714963,10.386047,-11.0707855,0.74339294,1.1541901,-1.2968292,-1.3075409,9.204851,0.5962429,1.6029122
1570714964,5.828079,-11.729187,5.024231,0.81970215,-1.3021545,-0.30511475,4.398475,-3.1060543,6.549276
1570714964,3.4123383,-9.237427,-0.037704468,1.3981323,0.5929413,-0.51071167,1.5274588,1.1918612,2.3235946
1570714964,2.996338,-8.9674835,-1.5053558,0.4915924,-0.22517395,-0.6364136,1.0473969,1.0436926,-1.5763855
1570714964,-0.030532837,-8.707108,5.1690826,-0.05595398,-0.47018433,-0.7173767,-2.3175426,1.4390593,5.611272
1570714964,-0.26037598,-9.203903,4.165909,0.22953796,0.30319214,-0.6385498,-2.6969764,1.2647161,4.9650154
1570714964,-2.2541351,-15.556931,5.2516785,0.8846741,2.3421173,-0.44892883,-4.5225906,-4.977186,6.029789
1570714964,-4.6663055,-14.733917,1.8638916,2.2855072,1.8180084,0.29995728,-7.250903,-5.1394777,2.4857068
1570714964,-2.62883,-9.88446,-2.6725311,1.7241058,-2.3823395,1.0445709,-4.820511,0.30448818,-5.0253534
1570714964,-1.6932983,-9.312241,-0.4985962,1.4002686,-2.405777,1.5154114,-4.4327316,0.61601734,-2.7745285
1570714964,0.6715698,-8.704712,0.44770813,1.279892,-2.0148163,1.7316589,-1.4449247,1.41113,-1.4055674
1570714964,1.648407,-10.241196,0.21607971,1.3139801,-1.6984406,0.8581543,0.34299052,0.36238766,-1.791724
1570714964,2.4654236,-10.427353,0.79966736,1.3406067,-1.8475647,0.6141968,0.91834116,-0.462739,-1.7458072
1570714964,3.0843353,-9.518143,1.1132965,1.5600586,-1.4960327,-0.12934875,1.8306695,0.5391636,-1.4734259
1570714964,2.3726501,-10.633255,0.29148865,1.0263519,-0.9516907,-0.64920044,0.95424473,-0.49303913,-2.7117178
1570714964,1.7459717,-11.878235,2.0943298,0.2082367,0.2882843,-0.5884857,0.11376214,-1.9227047,-1.2321804
1570714964,-0.6566162,-13.089096,2.431305,0.23806763,1.8893738,-0.52349854,-2.2876196,-3.2376842,-1.0408406
1570714964,-1.6358337,-11.629242,-0.98820496,0.37442017,3.3317413,-0.39033508,-3.2557282,-2.217639,-2.9775295
1570714964,-4.1443634,-15.386337,-8.206726,-0.64398193,-0.008926392,-0.3317566,-5.457363,-5.4328537,-12.320705
1570714964,-4.2724457,-15.507248,-7.8254547,-0.8410492,-0.1942749,-0.27955627,-5.457363,-5.4328537,-12.320705
1570714964,-5.2600555,-17.523758,0.084991455,-3.0482788,-0.3572693,0.649353,-6.8434734,-7.165189,-3.6896098
1570714964,-0.7224579,-13.162125,3.7984009,-3.0237732,1.4398346,0.9550934,-2.7936316,-3.6405373,2.0884972
1570714964,2.6581573,-10.941498,2.5761566,-2.9460144,2.194046,0.6994171,1.0437568,-0.89864635,1.4993528
1570714964,6.5882416,-11.853699,2.3660736,-2.9342957,1.5452881,-0.9133911,4.957664,-0.5997343,1.8501285
1570714964,6.3272705,-16.063293,4.4131165,-2.2962036,0.3894806,-0.92404175,4.6582613,-5.316571,3.6423361
1570714964,2.5468292,-11.687302,-3.9582214,-0.5853882,-0.03768921,-0.094192505,2.9940047,-0.46849918,1.5065777
1570714964,-5.728134,-12.70723,3.91333,-1.9052429,0.95088196,-0.019622803,-5.4842815,-1.5657406,5.0733438
1570714964,-1.8728638,-11.72261,2.9987335,-1.5750122,-0.20387268,0.9625397,-3.43842,-2.0215664,4.016979
1570714964,1.4089813,-7.5177917,3.3016052,-2.6328278,2.0289307,0.33509827,-0.20417488,1.458334,6.330961
1570714964,1.5388794,-7.0904236,3.2626953,-2.5699768,2.0236053,0.34681702,-0.20417488,1.458334,6.330961
1570714964,2.5109253,-4.285614,4.2826233,-0.9571686,1.6699371,0.5779877,1.4029826,5.664936,7.577079
1570714964,2.723999,-4.6776733,3.1250305,1.0476685,0.3905487,0.35108948,2.1124911,5.4836397,6.1832676
1570714964,2.723999,-4.6776733,3.1250305,1.0476685,0.3905487,0.35108948,2.1124911,5.4836397,6.1832676
1570714964,1.6549988,-6.6073914,0.96307373,1.8018646,0.121032715,0.19874573,0.74401677,3.8191786,4.122034
1570714964,2.9723969,-14.459778,-9.262573,1.8529968,-0.023834229,0.20939636,0.8571432,-2.7715797,-3.02886
1570714965,-0.79248047,-13.020264,-8.57962,0.38293457,0.9924164,0.14974976,-1.739257,-6.132366,-7.1156964
1570714965,-0.70628357,-11.927307,-8.177994,0.39891052,0.970047,0.16253662,-1.7165568,-3.3534575,-6.966078
1570714965,10.146622,-10.578186,1.3892365,1.2010651,-0.29548645,-0.6438751,6.765519,1.9125233,1.0502534
1570714965,10.412384,-19.603119,0.34655762,1.4173126,-1.0496826,-1.6548157,10.181128,-9.206802,1.2955681
1570714965,2.221222,-10.407593,0.9002228,0.39465332,-1.1136017,-0.16557312,1.3352374,-4.3919754,2.1101518
1570714965,2.9203339,-5.1924286,5.068527,0.32540894,-1.8443756,-0.9666443,1.6313404,5.585044,5.6437354
1570714965,2.9203339,-5.1924286,5.068527,0.32540894,-1.8443756,-0.9666443,1.6313404,5.585044,5.6437354
1570714965,0.31663513,-14.23053,5.7299194,0.963501,-0.26779175,-1.0369568,-1.1697721,-2.7547245,6.1372786
1570714965,0.31663513,-14.23053,5.7299194,0.963501,-0.26779175,-1.0369568,-1.1697721,-2.7547245,6.1372786
1570714965,-2.6144714,-14.490906,8.120529,0.41809082,3.3647614,-0.35412598,-4.837966,-4.6389723,8.609645
1570714965,-5.71196,-11.388016,-6.351822,3.556366,-1.4427643,0.25520325,-7.500662,-0.7904005,-6.949373
1570714965,-5.9879,-12.236771,-4.560959,3.2666168,-3.3868866,0.6663971,-8.531172,-2.0942593,-6.714211
1570714965,-0.22564697,-9.9951935,-2.1021118,2.219452,-3.0651703,1.8658905,-2.211278,0.0056324005,-4.2457075
1570714965,2.1236572,-10.122681,-2.1051025,1.8572693,-2.501648,1.7039642,0.25518477,-0.028978348,-4.4868054
1570714965,3.6900635,-10.205292,-2.592926,1.0700378,-1.2851105,1.0158081,2.3343678,-0.1549635,-5.445131
1570714965,2.8000183,-8.211517,0.912796,-0.2146759,-0.41159058,-0.20072937,1.8749162,1.6191721,-2.4677048
1570714965,2.513916,-8.253418,1.1755524,-0.29457092,-0.48083496,-0.40737915,1.3883197,1.8135967,-1.8142769
1570714965,1.0348969,-12.176315,2.9071655,-0.17312622,-1.2510223,-0.769577,-0.4547422,-1.9353933,0.2205944
1570714965,0.4447174,-12.320557,3.1160583,0.37442017,-1.2105408,-0.3125763,-1.4770027,-2.2722368,0.5017841
1570714965,-1.0450745,-12.478577,3.454239,0.65245056,0.036880493,-0.07182312,-2.8340578,-2.6720448,0.68508625
1570714965,-1.577774,-11.5616,3.6954498,0.658844,2.2025604,0.12950134,-3.3905134,-1.631031,0.8139503
1570714965,-0.80384827,-12.679092,-0.6937256,0.8591156,3.5426636,0.05281067,-2.315858,-2.2967606,-3.0924788
1570714965,-5.2660522,-15.827469,-9.982025,-1.2565002,-0.49362183,-0.0579834,-5.6007557,-5.43727,-14.877564
1570714965,-3.3189697,-15.983688,0.67277527,-3.209137,0.10505676,0.7036896,-5.8486934,-6.4933853,-4.4286833
1570714965,2.5480347,-12.394775,3.0819397,-3.464798,2.531723,0.62698364,1.2941625,-2.2710485,1.499768
1570714965,3.4823608,-12.220001,3.028061,-3.5340424,2.5679474,0.17105103,2.7030892,-1.7354317,2.1826003
1570714965,5.656296,-15.720932,6.256653,-1.5451965,-0.78123474,-0.42337036,3.4795866,-5.8589907,7.1827784
1570714965,5.656296,-15.720932,6.256653,-1.5451965,-0.78123474,-0.42337036,3.4795866,-5.8589907,7.1827784
1570714965,-0.48483276,-9.961075,2.5552063,-1.5579681,0.67922974,-0.07609558,-0.4008901,0.43109322,2.0014048
1570714965,-0.48483276,-9.961075,2.5552063,-1.5579681,0.67922974,-0.07609558,-0.4008901,0.43109322,2.0014048
1570714965,-0.20469666,-9.23085,3.6116486,-2.287674,0.8539429,0.35321045,-1.1816747,1.0206223,5.1813316
1570714965,1.2952576,-7.286148,2.8353271,-2.3590546,1.3780518,0.2434845,0.06336522,2.2974558,5.5223837
1570714965,1.945282,-4.5920715,4.2084045,-0.6333313,1.4771118,0.5108795,0.95859385,5.2104664,7.6353855
1570714965,2.1487885,-4.4490204,4.0701447,-0.5299988,1.4728546,0.5279236,0.95859385,5.2104664,7.6353855
1570714966,3.4482422,-4.1323853,2.80661,0.87509155,0.68029785,0.3649292,2.7648287,5.9001837,6.034151
1570714966,1.9859924,-4.929062,2.4911652,1.3778992,0.38415527,0.2679901,1.3387933,5.3004675,5.4660196
1570714966,1.7022705,-14.104843,-13.466187,1.5920105,-1.0763245,0.522583,0.32875204,-2.6481676,-8.030492
1570714966,1.7022705,-14.104843,-13.466187,1.5920105,-1.0763245,0.522583,0.32875204,-2.6481676,-8.030492
1570714966,0.70388794,-8.177994,-5.6658783,0.01222229,0.54608154,0.26480103,-0.48582003,1.0303288,-5.1069026
1570714966,0.70388794,-8.177994,-5.6658783,0.01222229,0.54608154,0.26480103,-0.48582003,1.0303288,-5.1069026
1570714966,9.0937805,-8.098984,3.2076263,1.3502045,-0.47232056,-1.1008759,7.8311634,3.9985542,4.716029
1570714966,9.0937805,-8.098984,3.2076263,1.3502045,-0.47232056,-1.1008759,7.8311634,3.9985542,4.716029
1570714966,7.680008,-17.496231,3.881607,1.0093079,-3.1823425,-0.4350891,6.1642647,-9.010991,5.013441
1570714966,7.680008,-17.496231,3.881607,1.0093079,-3.1823425,-0.4350891,6.1642647,-9.010991,5.013441
1570714966,-0.9104004,-6.0693054,2.4097595,0.2551117,0.50772095,-0.64920044,-2.5401678,4.0007086,1.9584787
1570714966,-0.9104004,-6.0693054,2.4097595,0.2551117,0.50772095,-0.64920044,-2.5401678,4.0007086,1.9584787
1570714966,-1.8004456,-13.612839,1.2910767,0.45111084,1.5879059,-0.28167725,-3.764356,-1.8246517,1.5294178
1570714966,-1.8004456,-13.612839,1.2910767,0.45111084,1.5879059,-0.28167725,-3.764356,-1.8246517,1.5294178
1570714966,-5.6904144,-13.601456,0.34954834,1.406662,-0.5617981,0.7143402,-7.8848124,-5.2547445,0.7512855
1570714966,-1.5185242,-9.115326,-1.2862854,1.6996002,-2.97995,1.2970428,-3.2744703,0.9907818,-2.9091806
1570714966,1.130661,-8.784332,1.2120667,1.854065,-2.9575806,1.5953064,-0.16581583,1.9398766,-0.43586004
1570714966,1.130661,-8.784332,1.2120667,1.854065,-2.9575806,1.5953064,-0.16581583,1.9398766,-0.43586004
1570714966,2.1404114,-10.27652,-0.49679565,2.1427612,-2.8947296,0.8666687,1.3244827,0.08790398,-2.404061
1570714966,2.2236176,-9.843155,1.0929565,1.6069336,-2.521881,0.14761353,1.3739357,0.009052277,-2.0057933
1570714966,2.6671448,-9.9874115,1.26474,1.6942749,-0.82810974,-0.17729187,1.4587681,-0.055042267,-1.281378
1570714966,2.6390076,-10.253769,-1.5861511,0.658844,0.4842987,-0.513916,1.4963583,-0.39289284,-4.8646355
1570714966,0.2669525,-11.808197,0.32022095,-0.113479614,1.0978851,-1.0816956,-0.35895407,-1.6178551,-3.196846
1570714966,-2.1918945,-12.161942,-1.5095367,-0.22319031,0.827301,-0.57569885,-3.769844,-2.5645275,-4.76083
1570714966,-2.937683,-14.112625,1.2324219,-0.4330597,-1.0923004,0.3052826,-4.846739,-3.911707,-1.7655802
1570714966,-2.937683,-14.112625,1.2324219,-0.4330597,-1.0923004,0.3052826,-4.846739,-3.911707,-1.7655802
1570714966,-4.621414,-14.140747,0.9217682,-0.9528961,0.010253906,0.33616638,-5.6413517,-4.0389853,-1.9923568
1570714966,0.63327026,-12.682678,-6.707962,-2.0874023,2.8566284,0.7036896,-1.3695076,-2.8893175,-7.6234617
1570714966,1.2437897,-12.43428,-7.258026,-2.2940674,2.894989,0.6727905,-1.3695076,-2.8893175,-7.6234617
1570714966,2.7449493,-12.832321,2.708435,-4.296768,1.6156006,0.20301819,1.9928545,-2.3744774,1.8953106
1570714966,5.2271423,-15.085861,6.519409,-2.1864777,-0.8654022,-1.1562653,4.1531205,-3.964057,6.4048786
1570714966,5.273834,-15.5377655,6.933609,-2.0053864,-1.0092163,-1.2361603,4.3007565,-4.467478,7.3790226
1570714966,7.4052734,-11.200073,5.3893433,-0.46714783,-1.1871033,0.8144684,4.8637185,-3.4968567,7.0998325
1570714967,-3.134613,-10.907379,-6.1243744,-0.67700195,1.7796478,0.63656616,-3.0620337,-0.2017889,-5.1647186
1570714967,-0.81044006,-8.53952,3.1483765,-2.6775665,2.0630188,0.29249573,-1.0242422,1.7667313,5.3571944
1570714967,-0.7559662,-8.61673,2.98378,-2.7606506,2.1269226,0.1923523,-1.0242422,1.7667313,5.3571944
1570714967,3.4524384,-4.774643,2.8059998,-0.85595703,1.9607544,0.630188,2.8056471,5.0867662,6.7098293
1570714967,3.4524384,-4.774643,2.8059998,-0.85595703,1.9607544,0.630188,2.8056471,5.0867662,6.7098293
1570714967,2.7527313,-4.6309814,2.7533264,0.8377991,0.5663147,0.40434265,2.8213837,5.558772,5.7940006
1570714967,2.7527313,-4.6309814,2.7533264,0.8377991,0.5663147,0.40434265,2.8213837,5.558772,5.7940006
1570714967,1.9895782,-6.38533,0.9241638,1.5312958,0.39694214,0.09861755,1.4888324,3.9420958,4.136159
1570714967,1.5340881,-9.0746155,-2.1697388,1.884964,-0.3157196,-0.029220581,1.2617548,1.5602598,0.6330056
1570714967,-2.0841522,-19.612701,-12.750916,0.72702026,-1.3213348,0.20620728,-1.0423512,-9.30912,-15.459106
1570714967,-2.0841522,-19.612701,-12.750916,0.72702026,-1.3213348,0.20620728,-1.0423512,-9.30912,-15.459106
1570714967,-0.6458435,-7.3579865,-5.0733185,0.17947388,0.48109436,0.2392273,-1.3717694,1.2628899,-5.303282
1570714967,3.4488525,-4.8446655,0.54467773,0.28492737,0.6366272,-0.07182312,2.4559836,5.599551,1.8241465
1570714967,7.344818,-10.697891,3.269287,1.4386139,-1.2446289,-1.4002075,8.111306,2.1155176,3.8342571
1570714967,7.7613983,-16.014221,2.7449493,1.3278351,-2.9927368,-1.0231018,6.169437,-3.627882,3.981081
1570714967,1.3994141,-10.180145,1.2348022,1.4492645,-1.3543549,-0.6396179,0.20980287,-0.13262653,1.7064799
1570714967,1.3994141,-10.180145,1.2348022,1.4492645,-1.3543549,-0.6396179,0.20980287,-0.13262653,1.7064799
1570714967,0.7410126,-6.0058594,5.9597626,0.038864136,0.18069458,-0.5863495,-0.6909758,3.6660004,3.3447723
1570714967,0.15562439,-9.929352,7.158066,0.99121094,4.555725,-0.8143158,-1.9021784,1.6604204,8.491862
1570714967,-4.3311157,-15.659271,2.063202,0.86763,3.547989,-0.19645691,-4.8246455,-4.3881702,1.2262684
1570714967,-5.05954,-15.22113,-0.7553711,1.0647125,2.067276,0.4363098,-6.774755,-5.3902617,-1.0735867
1570714967,-0.26216125,-11.329361,-2.1942902,1.7848206,-4.2337646,1.2171478,-1.5253681,-1.1020756,-4.397032
1570714967,1.2934723,-10.430344,-1.7346039,2.108673,-6.242859,1.7614899,-0.18569136,-0.15008831,-4.0037336
1570714967,1.7842712,-10.155609,-1.9817963,1.5962677,-6.755249,1.2171478,0.3866496,-0.20396996,-4.891463
1570714967,1.8375549,-10.141846,-1.8543091,1.5366211,-6.678543,1.2064972,0.3866496,-0.20396996,-4.891463
1570714967,1.5011597,-8.079239,2.2547455,-0.24876404,-1.8049622,0.36279297,0.25153315,1.6535082,-0.56152916
1570714967,0.9750366,-8.18338,2.1942902,-0.7057648,-0.6640625,0.011260986,-0.21149123,2.0209427,-0.52476835
1570714967,0.6488342,-9.291306,2.3104095,-0.96035767,0.6504669,-0.42337036,-0.9530139,0.93049145,-0.17638755
1570714967,0.4925995,-11.204269,1.7333984,-0.10069275,0.8869629,-0.6609192,-1.1034573,-0.629199,-0.48420596
1570714967,0.35794067,-11.998535,1.8052216,0.18054199,0.53115845,-0.57995605,-1.3766812,-1.4689417,-0.53864336
1570714967,-0.53630066,-12.636002,1.2126617,0.6141052,-0.38815308,-0.13148499,-2.2474523,-2.7220469,-1.0665002
1570714967,-1.8016357,-11.915344,4.103668,0.72595215,0.77297974,0.3052826,-3.5282145,-2.0352278,0.9641292
1570714967,-1.8411407,-11.735779,2.7263947,1.631424,1.7764587,0.34469604,-3.6301112,-1.8037891,0.4522233
1570714968,-2.5839386,-17.104782,-13.04361,-3.6597443,0.023025513,0.06878662,-3.7989376,-6.525838,-19.72617
1570714968,-2.5839386,-17.104782,-13.04361,-3.6597443,0.023025513,0.06878662,-3.7989376,-6.525838,-19.72617
1570714968,-0.57580566,-14.368805,6.044754,-4.180649,2.3005676,0.6440277,-2.2879686,-4.2077026,6.104883
1570714968,-0.44293213,-14.386765,5.945404,-4.0453644,2.1418457,0.649353,-1.6064366,-3.878378,5.9821625
1570714968,4.1910553,-14.951187,3.6475677,-1.6059113,-1.0667267,-1.3256378,4.2734566,-3.377141,5.4027743
1570714968,3.664322,-15.565903,3.4213104,-1.6080475,-1.1508942,-1.2851562,3.371483,-4.1736155,4.9817915
1570714968,1.1258698,-9.060257,-5.399521,-0.6194763,2.0406494,0.10926819,1.7277497,1.2229986,-0.6476877
1570714968,0.45610046,-9.176971,-5.993881,-0.8101654,2.0406494,0.07092285,0.4652928,1.3988743,-3.185927
1570714968,-3.5045166,-11.713638,3.7768555,-2.127884,1.5452881,0.06878662,-4.2187214,-0.80817986,4.041603
1570714968,1.9578552,-5.8568115,4.102463,-1.939331,1.8339844,0.45014954,0.76397395,3.7015142,6.381356
1570714968,1.9578552,-5.8568115,4.102463,-1.939331,1.8339844,0.45014954,0.76397395,3.7015142,6.381356
1570714968,4.2149963,-4.253296,3.5212708,0.5246124,0.81025696,0.5907593,3.0882115,5.543048,7.062911
1570714968,4.2149963,-4.253296,3.5128937,0.5246124,0.81025696,0.5907593,3.0882115,5.543048,7.062911
1570714968,2.4438782,-5.1618958,0.4507141,1.7209167,0.1348877,0.053878784,1.1456927,5.1976624,4.0093665
1570714968,2.3540955,-7.1371155,-1.648407,2.0490112,-0.5064087,-0.053710938,1.0656762,3.7937431,1.8936641
1570714968,-2.8622742,-19.612701,-10.568008,0.35098267,1.0243835,0.44482422,-4.912877,-9.325031,-8.21091
1570714968,-2.8622742,-19.612701,-10.568008,0.35098267,1.0243835,0.44482422,-4.912877,-9.325031,-8.21091
1570714968,10.503357,-11.256332,0.21188354,1.203186,0.045410156,-0.9538727,9.275032,0.6110592,1.6526763
1570714968,10.503357,-11.256332,0.21188354,1.203186,0.045410156,-0.9538727,9.275032,0.6110592,1.6526763
1570714968,3.6493683,-15.072098,1.60112,0.69932556,-1.4161377,-1.0433502,3.2648163,-5.2011337,2.0402672
1570714968,4.0174713,-5.8717804,2.2463531,0.34991455,-1.7463684,-0.12295532,2.4119992,4.348343,3.3559365
1570714968,1.2503662,-10.478226,5.735916,0.36802673,-0.9697876,-0.7812958,0.052710414,-0.20386219,5.8484507
1570714968,0.96606445,-10.368088,6.1734467,0.3882599,-0.84835815,-0.77171326,0.052710414,-0.20386219,5.8484507
1570714968,-0.5201416,-12.15477,3.5122986,0.28919983,1.2630005,-0.91978455,-2.4263184,-1.0338039,3.7718163
1570714968,-0.5201416,-12.15477,3.5122986,0.28919983,1.2630005,-0.91978455,-2.4263184,-1.0338039,3.7718163
1570714968,-4.68425,-14.547165,3.0783386,1.9051971,1.7466278,-0.164505,-6.2093234,-4.7318287,3.5003607
1570714968,-1.3820496,-9.2901,-3.807373,2.1022797,-1.0752563,0.9593506,-3.8381116,0.4924507,-4.701441
1570714968,-1.3820496,-9.2901,-3.807373,2.1022797,-1.0752563,0.9593506,-3.8381116,0.4924507,-4.701441
1570714968,0.7254486,-9.235626,0.18974304,0.93473816,-2.5719452,1.4323273,-1.0214995,0.9840393,-1.715494
1570714968,0.7254486,-9.235626,0.18974304,0.93473816,-2.5719452,1.4323273,-1.0214995,0.9840393,-1.715494
1570714968,1.9021912,-10.199905,1.3527222,1.3256989,-2.296051,0.9178009,0.5576762,0.23760223,-0.7530085
1570714968,2.309204,-9.421188,0.35614014,1.1179657,-1.3437042,0.03363037,1.0477074,0.54760075,-2.1704807
1570714968,2.198471,-9.778519,0.56622314,0.64819336,-1.2425079,-0.33494568,0.93554544,0.4381485,-2.3032894
1570714968,2.0386658,-10.401611,0.78889465,0.5288849,-1.1913757,-0.3594513,0.63128877,-0.15563774,-2.1681101
1570714969,-0.20350647,-12.279861,1.8058319,0.565094,0.50453186,-0.62683105,-1.6888782,-2.4569168,-1.3049078
1570714969,-0.42915344,-12.3038025,1.8543091,0.5342102,0.62916565,-0.609787,-1.6888782,-2.4569168,-1.3049078
1570714969,-1.9267273,-12.000931,1.3233948,0.3147583,2.8555756,-0.42762756,-3.4741056,-2.1515532,-1.6300344
1570714969,-2.1912994,-12.649765,-3.4745789,0.44366455,2.8587646,-0.3690338,-3.731296,-2.7713585,-5.670574
1570714969,-4.5902863,-14.674057,-6.0573273,-1.6272125,-1.3181305,-0.042007446,-5.9416423,-4.438921,-10.349076
1570714969,-4.4101257,-16.539139,0.70210266,-2.6147156,-0.65341187,0.5928955,-6.347551,-6.136201,-3.4690278
1570714969,0.6278839,-12.69046,0.81941223,-3.4615936,2.685135,0.6450958,-0.89294004,-2.2303867,0.2787751
1570714969,1.8034363,-13.299194,1.177948,-3.833374,2.5359955,0.6663971,0.24883729,-2.7928934,-0.29004586
1570714969,5.7209473,-12.938858,4.8907623,-2.6498718,0.92211914,-0.85479736,4.416343,-2.142252,5.006772
1570714969,6.807907,-14.009674,3.8474884,-1.172348,-1.0049438,0.03363037,5.024946,-4.5380783,5.187305
1570714969,6.8959045,-10.843933,3.8822021,-0.8634186,-1.0731201,0.23815918,6.1705074,-1.8206406,5.0681896
1570714969,-0.8523407,-11.240784,4.3466797,-0.661026,1.0094604,0.12098694,-1.2847159,-0.83743477,6.378738
1570714969,0.0861969,-9.482239,3.9510345,-2.334549,1.3215942,0.19874573,-0.6267684,1.910552,6.707694
1570714969,0.0861969,-9.482239,3.9510345,-2.334549,1.3215942,0.19874573,-0.6267684,1.910552,6.707694
1570714969,3.0113068,-6.0142365,4.0779266,-1.8583832,2.2472992,0.47358704,1.7410929,3.37218,8.062147
1570714969,2.794632,-5.1301727,3.8953705,-1.3342743,2.15036,0.5108795,1.9895759,4.7442083,7.0818844
1570714969,4.4418488,-4.6040497,2.051834,0.34140015,0.96365356,0.5779877,3.2858267,5.360875,4.9473743
1570714969,3.4009705,-5.0499725,2.6234436,1.1318207,0.4182434,0.35002136,3.0206685,5.060317,5.4987745
1570714969,2.197281,-6.590042,0.61950684,1.6815033,0.10398865,0.21685791,1.614019,4.094884,4.2228446
1570714969,0.96725464,-10.919357,-3.4207153,1.8348999,-0.37750244,0.26159668,0.18543857,-0.11496544,-0.8536056
1570714969,-3.198059,-19.612701,-11.590927,0.015426636,0.23394775,0.2871704,-2.3070788,-9.277644,-13.696763
1570714969,-1.1713562,-13.544601,-9.554657,-0.113479614,1.1159973,0.24775696,-1.8855736,-7.690363,-8.847165
1570714969,2.6186523,-5.2319336,-1.0486603,0.116622925,0.69522095,0.10926819,1.4634252,4.5352793,-0.13210285
1570714969,8.106171,-10.615295,2.8550873,1.6005402,-1.2062836,-1.1573334,7.7411237,1.9008656,3.6888952
1570714969,7.4962463,-13.985138,3.367447,1.6271667,-2.6028442,-1.4715881,6.714072,-2.7382717,3.9570985
1570714969,4.8650208,-16.991653,3.6697083,0.6375427,-2.9597015,-0.6907501,4.001429,-8.32014,4.7032175
1570714969,0.077804565,-7.4148407,3.9624023,0.6641693,0.7367554,-0.52456665,-1.7279915,1.902873,4.3356204
1570714969,0.077804565,-7.4148407,3.9624023,0.6641693,0.7367554,-0.52456665,-1.5521171,2.5861664,4.1108007
1570714969,-1.1839294,-11.593323,3.0561981,0.7366028,3.0856628,-0.6193695,-3.2803733,0.29113102,4.1625104
1570714969,-1.1007385,-12.230179,2.3684692,0.79945374,2.9652863,-0.6246948,-3.1716003,-0.98956776,3.0192304
1570714969,-5.2241516,-16.041153,-0.1370697,1.376831,0.29574585,0.01979065,-6.663599,-5.671711,-0.7198144
1570714969,-2.1230621,-10.897202,-1.977005,1.6388855,-1.9807281,1.061615,-4.5463448,-1.3010206,-2.7378473
1570714969,0.26216125,-9.303268,-1.2126617,1.0615082,-3.1876678,1.6720123,-1.6758578,0.6500559,-3.0537982
1570714970,2.4289246,-8.835205,1.0893555,1.439682,-3.7384186,1.2022247,1.3250965,1.6815729,-0.6991919
1570714970,1.3383636,-10.134064,1.1480255,1.1414032,-2.7679596,0.2679901,0.27929914,0.023992538,-1.3711903
1570714970,1.3383636,-10.134064,1.1480255,1.1414032,-2.7679596,0.2679901,0.27929914,0.023992538,-1.3711903
1570714970,1.6256561,-9.966461,2.25354,1.1424713,-1.7144165,0.17425537,0.44887173,0.0978899,-0.17605567
1570714970,1.9303284,-9.368515,0.070632935,0.62901306,-0.7386322,-0.34773254,0.60064685,0.707984,-2.6940935
1570714970,1.7573395,-11.559204,1.9183502,0.13153076,-0.66619873,-0.77171326,0.34695184,-1.2429857,-1.2889802
1570714970,-0.70388794,-12.788635,2.1356354,0.80052185,1.1277161,-0.54267883,-2.2431736,-3.053155,-0.5377569
1570714970,-1.6502075,-11.608887,1.572998,0.5128937,2.5381165,-0.37117004,-3.2255988,-1.7985249,-1.6834581
1570714970,-2.6539764,-13.841476,-4.56514,0.60025024,2.1663513,-0.14852905,-4.038855,-3.7422848,-7.3506985
1570714970,-2.6539764,-13.841476,-4.56514,0.60025024,2.1663513,-0.14852905,-4.038855,-3.7422848,-7.3506985
1570714970,-4.88237,-16.470306,-2.3211823,-2.0884705,-1.019867,0.602478,-6.1651287,-6.2725773,-6.778413
1570714970,-1.9303284,-14.915878,2.427124,-2.43042,0.057113647,1.0381775,-3.8102791,-5.3892784,-0.9530506
1570714970,3.7900238,-10.952881,-0.014968872,-3.1611938,2.2888489,0.47784424,2.2301712,-1.0959101,-2.1163964
1570714970,4.4807434,-12.042831,2.5228882,-3.4615936,2.0406494,-0.7450714,3.784349,-0.9807625,1.9148526
1570714970,10.04068,-14.498688,5.4533997,-1.8626404,-1.259552,0.09222412,7.722508,-5.028451,4.8765826
1570714970,10.04068,-14.498688,5.4533997,-1.8626404,-1.259552,0.09222412,7.722508,-5.028451,4.8765826
1570714970,-2.4797974,-9.878479,2.4319153,-1.8051147,2.3783264,-0.7599945,-2.722805,0.7574253,4.7884054
1570714970,-2.4797974,-9.878479,2.4319153,-1.8051147,2.3783264,-0.7599945,-2.722805,0.7574253,4.7884054
1570714970,-1.0731964,-11.073181,4.1443634,-1.8881989,0.42570496,0.45228577,-2.8847928,-0.6287489,6.8284
1570714970,-0.5165558,-10.620087,3.645172,-1.903122,0.57910156,0.49169922,-2.3745337,-0.9001417,6.882475
1570714970,2.7180176,-5.1409454,4.5986633,-0.92840576,1.8595428,0.52685547,1.5561156,4.576992,8.369848
1570714970,2.7180176,-5.1409454,4.5986633,-0.92840576,1.8595428,0.52685547,1.5561156,4.576992,8.369848
1570714970,3.5948944,-3.8516693,2.7461548,0.02394104,1.2938995,0.4906311,2.4111156,5.9328117,6.0297537
1570714970,3.091507,-4.578308,1.6980896,1.3331604,0.3905487,0.0868988,2.2982671,5.874283,5.0643873
1570714970,1.5322876,-8.503006,-2.0614014,1.9573975,-0.2134552,0.08583069,0.7441404,2.574932,1.4417739
1570714970,2.6114807,-12.497726,-9.554657,1.8988037,-0.27204895,0.16040039,1.2249095,-0.808321,-3.9950414
1570714970,1.6094971,-9.2404175,-4.806961,-0.051696777,0.35113525,0.52471924,-0.1148954,-0.98484325,-5.018484
1570714970,1.6094971,-9.2404175,-4.806961,-0.051696777,0.35113525,0.52471924,-0.1148954,-0.98484325,-5.018484
1570714970,3.6667175,-3.9899445,-0.23043823,0.11769104,0.8379669,0.09329224,2.9338536,5.9404287,1.3627963
1570714970,9.461884,-16.09262,4.562744,1.6921539,-3.2270966,-1.24469,7.5082884,-5.082878,6.1777687
1570714970,9.461884,-16.09262,4.562744,1.6921539,-3.2270966,-1.24469,7.5082884,-5.082878,6.1777687
1570714970,5.0613403,-13.768448,4.0737305,1.4514008,-3.2111053,-0.36691284,4.291132,-8.348276,4.2778187
1570714971,1.0791931,-5.965149,3.5613708,-0.32652283,-0.120773315,-0.5267029,-0.523165,4.356368,3.0385718
1570714971,1.0791931,-5.965149,3.5613708,-0.32652283,-0.120773315,-0.5267029,-0.523165,4.356368,3.0385718
1570714971,-2.403778,-8.844772,6.203369,-0.023986816,1.6454315,-0.6875458,-4.0798187,2.074607,6.4037786
1570714971,-5.8316803,-15.960342,2.7760773,1.1893463,1.0616608,0.21792603,-7.7398934,-6.5781784,2.6416936
1570714971,-5.8316803,-15.960342,2.7760773,1.1893463,1.0616608,0.21792603,-7.7398934,-6.5781784,2.6416936
1570714971,0.31663513,-8.221085,-0.91218567,0.93048096,-2.281128,1.4291229,-1.5656909,1.8947687,-2.8086145
1570714971,0.31663513,-8.221085,-0.91218567,0.93048096,-2.281128,1.4291229,-1.5656909,1.8947687,-2.8086145
1570714971,1.6549988,-10.605118,1.1677704,1.3587189,-3.089676,0.6376343,0.7978183,-0.2075882,-0.5267689
1570714971,1.6549988,-10.605118,1.1677704,1.3587189,-3.089676,0.6376343,0.7978183,-0.2075882,-0.5267689
1570714971,1.6029205,-9.998184,1.2354126,1.3576508,-2.9128418,0.34895325,0.37604678,0.077967644,-0.9082823
1570714971,2.3391418,-10.532684,1.6376343,1.6932068,-2.0840607,-0.045196533,0.9379655,-0.4462719,-1.0895185
1570714971,2.3391418,-10.532684,1.6376343,1.6932068,-2.0840607,-0.045196533,0.9379655,-0.4462719,-1.0895185
1570714971,-1.0426788,-11.89679,1.2677307,0.9709625,1.1990814,-0.83029175,-2.1740136,-2.0670767,-2.0073187
1570714971,-1.0426788,-11.89679,1.2677307,0.9709625,1.1990814,-0.83029175,-2.1740136,-2.0670767,-2.0073187
1570714971,-3.0190887,-12.543823,-5.438431,-0.20935059,2.0608826,-0.50431824,-4.394727,-2.8165483,-9.034637
1570714971,-3.0190887,-12.543823,-5.438431,-0.20935059,2.0608826,-0.50431824,-4.394727,-2.8165483,-9.034637
1570714971,-3.111267,-13.761871,-3.9833527,-1.1542358,-0.7056122,-0.029220581,-4.6935062,-3.8558884,-8.273415
1570714971,-4.905716,-16.849197,1.9638367,-2.188614,-1.2627411,0.5098114,-6.1106267,-6.1083956,-3.1318958
1570714971,-2.8550873,-14.511856,3.858261,-2.1513214,1.2970886,0.90182495,-5.1581206,-5.8435526,1.9149823
1570714971,2.0021515,-11.034271,-0.31962585,-2.78302,2.92482,0.663208,0.076943755,-1.0171175,-1.7204427
1570714971,4.9583893,-10.932526,0.69311523,-3.4456177,2.817215,-0.17941284,4.1594753,-0.24464512,-0.39909053
1570714971,9.071625,-13.925278,7.146698,-1.6485138,-1.0518188,0.051742554,7.308921,-4.5909376,6.261693
1570714971,9.071625,-13.925278,7.146698,-1.6485138,-1.0518188,0.051742554,7.308921,-4.5909376,6.261693
1570714971,-7.2358704,-11.766312,1.0259094,-1.6847382,1.1468811,0.0592041,-7.0299525,-0.671628,1.7605209
1570714971,-7.2358704,-11.766312,1.0259094,-1.6847382,1.1468811,0.0592041,-7.0299525,-0.671628,1.7605209
1570714971,0.7056885,-8.9830475,3.6900635,-2.2993927,1.7093506,0.27545166,-0.19190711,1.1009398,6.5278997
1570714971,0.8882446,-8.85376,3.439865,-2.3931427,1.8808594,0.2434845,-0.061459005,1.2740717,6.23187
1570714971,3.0651703,-5.782593,4.660309,-1.7433319,2.4039001,0.536438,2.3364298,4.1378326,7.460145
1570714971,3.5398254,-3.8361053,1.7525482,0.5097046,0.8582001,0.48316956,2.8734949,5.9031773,5.3396587
1570714971,3.5398254,-3.8361053,1.7525482,0.5097046,0.8582001,0.48316956,2.8734949,5.9031773,5.3396587
1570714971,1.9650421,-5.0703278,2.1924896,1.439682,0.1945343,0.20727539,1.154746,5.0667744,5.5919585
1570714971,2.1062927,-6.8336487,0.11013794,1.8817596,-0.19854736,0.04534912,1.3329408,3.635971,3.1295562
1570714971,3.1795044,-11.214447,-4.9583893,2.15448,-0.63316345,-0.13894653,2.2103705,0.26260948,-1.2890742
1570714971,-1.4975739,-19.612701,-19.512741,0.33287048,-0.68963623,-0.29553223,-0.60353875,-9.313209,-18.012497
1570714972,1.367096,-6.6355286,-2.6252441,-0.27645874,0.5343628,0.52153015,-0.0015256405,2.9633875,-1.8415673
1570714972,5.419281,-4.9960938,0.707489,0.08679199,0.5609894,0.061325073,3.724969,5.565425,2.2444234
1570714972,6.653488,-14.095261,3.6709137,1.4737701,-1.641983,-1.4279022,5.7694535,-2.8608847,4.666662
1570714972,6.653488,-14.095261,3.6709137,1.4737701,-1.641983,-1.4279022,5.7694535,-2.8608847,4.666662
1570714972,2.9903564,-9.436752,3.4452515,0.6375427,-2.0467834,-0.54800415,1.929463,1.3569021,3.5347283
1570714972,2.9903564,-9.436752,3.4452515,0.6375427,-2.0467834,-0.54800415,1.929463,1.3569021,3.5347283
1570714972,0.6721649,-8.944733,4.18985,0.26255798,-0.20599365,-0.642807,-0.8298701,1.0597067,4.3270817
1570714972,-1.7423859,-13.166916,3.4344788,1.1446075,2.368744,-0.55119324,-3.8685007,-1.5098743,4.9431024
1570714972,-1.7423859,-13.166916,3.4344788,1.1446075,2.368744,-0.55119324,-3.8685007,-1.5098743,4.9431024
1570714972,-4.636963,-15.046967,1.1755524,1.6793671,1.415329,-0.18048096,-6.3114934,-4.929888,1.1217698
1570714972,-1.546051,-10.162781,-1.2743073,1.5898895,-1.8401184,1.0158081,-3.953413,-0.051836014,-2.442481
1570714972,1.091156,-8.996811,-0.64523315,1.296936,-2.6017761,1.5921173,-0.79980147,1.2990704,-2.2754216
1570714972,1.091156,-8.996811,-0.64523315,1.296936,-2.6017761,1.5921173,-0.79980147,1.2990704,-2.2754216
1570714972,1.9638367,-9.588776,0.89004517,1.2063904,-2.5165558,0.77505493,1.089856,0.89695644,-1.2866906
1570714972,2.0727844,-10.111908,0.7044983,1.3810883,-1.3032227,0.34362793,1.0467703,-0.089099884,-1.6750836
1570714972,2.118866,-10.028717,0.6254883,1.3523254,-1.2531586,0.33084106,1.0467703,-0.089099884,-1.6750836
1570714972,2.47081,-9.260773,0.2531891,0.8665619,-0.74076843,0.07304382,1.3082819,0.63726234,-2.4922395
1570714972,0.9924011,-11.291061,1.5646057,0.47561646,-0.62890625,-0.689682,-0.20511031,-1.2630062,-1.6411886
1570714972,0.9211731,-11.332352,1.6597748,0.47242737,-0.5436859,-0.6907501,-0.20511031,-1.2630062,-1.6411886
1570714972,-1.9201508,-12.980759,1.593338,0.09211731,1.3556824,-0.480896,-3.378336,-3.0520315,-1.702323
1570714972,-1.9201508,-12.980759,1.593338,0.09211731,1.3556824,-0.480896,-3.378336,-3.0520315,-1.702323
1570714972,-2.0739746,-13.549988,-6.7941437,0.21569824,0.7197113,-0.024963379,-3.5680594,-3.7426996,-9.75594
1570714972,-2.0739746,-13.549988,-6.7941437,0.21569824,0.7197113,-0.024963379,-3.5680594,-3.7426996,-9.75594
1570714972,-4.2431183,-17.65364,-4.885376,-2.36438,-0.9516907,0.21899414,-5.303668,-6.6325035,-9.902843
1570714972,-0.73083496,-12.17572,2.1649628,-3.3305664,2.2334595,0.7239227,-2.9830642,-2.8353796,0.3729018
1570714972,3.150772,-10.958862,4.067154,-3.65654,3.0270844,0.08796692,2.2535577,-0.32821846,3.2688422
1570714972,4.2084045,-16.813873,2.1918945,-2.4826202,0.0922699,-1.4811707,3.7528603,-4.8300505,2.980233
1570714972,4.2084045,-16.813873,2.1918945,-2.4826202,0.0922699,-1.4811707,3.7528603,-4.8300505,2.980233
1570714972,7.344208,-12.035049,7.459732,-0.73132324,-0.9932251,0.35002136,6.9056168,-2.7781925,11.961279
1570714972,-5.636551,-12.449249,2.0823517,-1.570755,0.72717285,0.5556183,-6.4170637,-1.8258648,3.2773757
1570714972,-5.636551,-12.449249,2.0823517,-1.570755,0.72717285,0.5556183,-6.4170637,-1.8258648,3.2773757
1570714972,0.252594,-9.535507,3.305191,-2.368637,1.3695221,0.37239075,-0.7512962,0.6456671,4.9467287
1570714972,2.5905304,-4.8488617,3.7738647,-1.5664978,2.0097504,0.37132263,1.4781189,4.911913,7.125192
1570714972,2.5067291,-4.9045258,3.9085388,-1.4546356,1.9767303,0.39050293,1.5998197,5.124419,7.265004
1570714973,3.8295288,-4.2628784,3.2878418,-0.17845154,1.3578033,0.6940918,2.213923,5.122964,7.233777
1570714973,2.5049286,-4.0773315,3.3470917,1.217041,0.66539,0.32125854,1.8093982,5.922762,6.8334236
1570714973,1.5346832,-7.64888,-2.3044128,1.9147949,-0.030227661,0.10820007,0.80827284,3.4201355,1.6087401
1570714973,0.48483276,-10.787079,-5.096054,1.9424896,-0.38710022,0.15081787,0.068859935,0.7742748,-1.3787694
1570714973,-1.2072754,-19.605515,-18.481445,0.46070862,-1.7058868,0.30207825,-1.1102962,-9.404713,-17.592125
1570714973,-0.017364502,-8.877701,-5.907089,0.14645386,0.87950134,0.2679901,-1.2067611,0.3305788,-5.096836
1570714973,6.7857666,-7.4304047,-0.14964294,0.6215515,0.12849426,-0.18473816,3.4894109,3.7829351,1.1214416
1570714973,9.373306,-19.612701,-0.1550293,1.2479401,-0.50001526,-1.6473541,9.728649,-9.254649,1.8769063
1570714973,2.0057373,-10.5368805,-0.3728943,0.4351349,-1.1061554,0.021911621,0.66794634,-2.5279503,0.83973646
1570714973,2.9712067,-3.3249512,2.364273,0.16456604,-1.196701,0.12312317,1.1876532,6.655014,3.1348538
1570714973,1.0702057,-11.0073395,8.236649,0.7153015,-1.8784637,-1.1956787,-0.10114288,-0.16542625,8.739468
1570714973,0.89123535,-11.158173,8.236649,0.7153015,-1.8784637,-1.1956787,-0.10114288,-0.16542625,8.739468
1570714973,0.26515198,-11.991959,5.691025,0.6066437,0.61105347,-1.0912933,-1.5721331,-1.0066328,6.887905
1570714973,-2.8119965,-14.619598,5.070923,0.28492737,2.9024353,-0.63002014,-4.474615,-4.4338913,5.639053
1570714973,-5.0780945,-13.803772,0.41360474,2.9619446,1.2832336,0.12631226,-7.246583,-4.0076847,1.461791
1570714973,-3.9755707,-11.729797,-5.3624115,3.781128,-1.4566193,0.7889099,-6.422173,-1.9983568,-5.65457
1570714973,-1.7549438,-10.272324,-4.1688995,2.0564728,-4.8164673,1.4344635,-4.3458734,0.07801628,-6.7784934
1570714973,1.4921875,-9.38707,-0.087387085,1.3352814,-3.1077728,1.6901245,-0.32017457,0.6669731,-2.1668077
1570714973,2.9712067,-9.218277,0.28251648,0.9986572,-0.75567627,0.918869,1.5507843,0.9993,-2.104015
1570714973,1.6478119,-8.784332,-0.01675415,0.050582886,0.47151184,0.007003784,0.529286,1.2123508,-2.5354228
1570714973,1.6478119,-8.784332,-0.01675415,0.050582886,0.47151184,0.007003784,0.529286,1.2123508,-2.5354228
1570714973,0.8601227,-11.577164,1.4682465,-0.3126831,0.121032715,-0.89527893,-0.3017397,-0.98941994,-0.78170776
1570714973,1.8626862,-12.172119,2.992157,0.83461,-0.8685913,-0.11656189,0.09400773,-2.1218796,0.3923173
1570714973,1.8626862,-12.172119,2.992157,0.83461,-0.8685913,-0.11656189,0.09400773,-2.1218796,0.3923173
1570714973,-0.502182,-12.381012,1.4347229,1.2628479,-0.3348999,-0.031341553,-1.9397745,-2.5155602,-1.1553819
1570714973,-1.8183899,-11.990158,3.494934,0.8495178,0.98709106,-0.045196533,-3.255589,-1.9442835,0.12460923
1570714973,-2.9730072,-15.381546,-8.056488,0.7515259,3.4915314,-0.37756348,-3.9119592,-5.5928316,-7.9958234
1570714973,-6.0633087,-15.837051,-12.016495,-1.6730194,0.53115845,-0.1048584,-6.537861,-5.4580116,-17.35288
1570714973,-2.1457977,-14.633362,0.6494293,-3.2623901,0.5844269,0.78144836,-4.0631094,-5.0675697,-2.7296276
1570714973,1.312027,-12.597092,1.7549438,-3.5990143,1.9458313,0.6259155,0.15430903,-2.3342428,-0.10199392
1570714973,5.2762146,-12.823349,2.9825745,-3.5084686,2.0449066,-0.45106506,4.0262523,-1.952096,3.4282858
1570714973,8.029556,-14.82489,4.750702,-2.1779633,-0.8068085,-0.098464966,5.3563986,-5.7748404,4.12725
1570714973,7.9164276,-11.051041,4.217987,-0.90390015,-1.1082764,0.042160034,7.8490705,-1.7365294,7.0179205
1570714974,-5.549759,-11.297043,-0.15023804,-1.8136444,2.2813873,-0.29553223,-6.007326,-0.6978655,3.1526234
1570714974,-6.9384003,-11.750748,-0.15023804,-1.8136444,2.2813873,-0.29553223,-6.007326,-0.6978655,3.1526234
1570714974,-3.5093079,-11.671127,2.2559357,-1.9276276,-0.22943115,0.55667114,-5.817162,-2.1092768,3.5617115
1570714974,2.119461,-7.665634,2.810791,-2.1875458,1.5921631,0.42671204,0.1770469,1.0796862,7.2523794
1570714974,2.217636,-4.9506073,3.7193909,-0.70043945,1.5985565,0.67385864,0.77405274,4.5080338,8.126007
1570714974,3.5278625,-3.5978851,2.8706512,0.69932556,0.8400879,0.44163513,2.8358388,6.329606,6.1991863
1570714974,3.5278625,-3.5978851,2.8706512,0.69932556,0.8400879,0.44163513,2.8358388,6.329606,6.1991863
1570714974,1.1929169,-8.763977,-2.9951477,2.2130585,-0.5053406,0.18170166,0.59254044,2.3271866,0.39749002
1570714974,1.1929169,-8.763977,-2.9951477,2.2130585,-0.5053406,0.18170166,0.59254044,2.3271866,0.39749002
1570714974,-0.054473877,-19.584564,-19.612701,0.48840332,-2.6710205,0.027236938,0.33309478,-9.365829,-17.882912
1570714974,2.4456787,-5.23732,0.2172699,-0.10494995,0.79748535,0.35002136,1.0521998,3.8257656,0.280699
1570714974,2.8353271,-4.823715,0.6075287,-0.05807495,0.8827057,0.31166077,1.8067318,4.854048,1.7319956
1570714974,4.8847656,-4.5406036,0.013763428,0.47880554,1.3950958,-0.049453735,3.4928343,5.9758368,2.3148577
1570714974,5.922058,-16.631927,3.815155,0.5150299,-2.4345398,-0.6417389,4.5312977,-8.320579,5.854385
1570714974,6.0022583,-15.564102,3.5757446,0.5150299,-2.4345398,-0.6417389,4.5312977,-8.320579,5.854385
1570714974,0.21548462,-9.355347,2.6970673,0.9517822,-0.3114624,-0.7866211,-0.50102437,0.05747223,2.8039584
1570714974,0.21548462,-9.355347,2.6970673,0.9517822,-0.3114624,-0.7866211,-0.50102437,0.05747223,2.8039584
1570714974,-0.6943207,-6.748062,6.5714874,0.39146423,2.3804626,-0.7067261,-2.2897222,3.8172417,6.7226315
1570714974,-0.15322876,-10.350128,2.7593231,0.6354065,3.359436,-0.53414917,-2.8949327,0.33201027,3.7544885
1570714974,-5.467758,-14.885956,0.47525024,1.6101227,0.5407562,0.7377777,-8.223927,-6.504981,0.94578725
1570714974,-1.9375153,-9.455307,-1.7453766,1.5099945,-3.824707,1.2661438,-3.5895162,0.7729502,-3.6802359
1570714974,-1.9375153,-9.455307,-1.7453766,1.5099945,-3.824707,1.2661438,-3.5895162,0.7729502,-3.6802359
1570714974,1.8034363,-10.500961,3.000534,2.3270416,-3.8524017,1.4941101,0.47998667,-0.18478584,1.2163085
1570714974,1.9650421,-10.548248,2.6312256,2.4697876,-3.7693024,1.4387207,0.7662436,-0.18478584,1.2163085
1570714974,3.194458,-9.906006,0.292099,1.7550049,-0.043014526,0.020843506,1.9179137,-0.247509,-2.1816816
1570714974,3.194458,-9.906006,0.292099,1.7550049,-0.043014526,0.020843506,1.9179137,-0.247509,-2.1816816
1570714974,2.9831696,-9.415802,-0.6482239,-0.07299805,0.6696472,-0.7919464,1.8297178,0.5562916,-4.5304766
1570714974,1.3251953,-12.292435,2.6060944,-0.18484497,0.72610474,-1.3096619,0.88906646,-1.7020302,-1.7399971
1570714974,-2.857483,-11.803421,-3.3967743,0.5864105,1.2992249,-0.4862213,-4.3797607,-2.9378357,-6.18649
1570714974,-2.857483,-11.803421,-3.3967743,0.5864105,1.2992249,-0.4862213,-4.3797607,-2.9378357,-6.18649
1570714974,-3.6379852,-14.760254,-2.996338,-0.869812,-1.1242523,0.25308228,-5.290539,-4.773078,-6.9503136
1570714974,-3.4638062,-14.313736,-1.154007,-1.2149658,-1.1391754,0.41073608,-4.990776,-4.825639,-5.014565
1570714975,-0.6290741,-13.628387,3.7110138,-2.5476074,2.7618256,0.86027527,-2.916556,-3.7808104,1.9587393
1570714975,-0.6290741,-13.628387,3.7110138,-2.5476074,2.7618256,0.86027527,-2.916556,-3.7808104,1.9587393
1570714975,2.8239594,-12.646774,-0.0029907227,-3.209137,3.788742,0.52578735,1.9906106,-2.3938103,-1.2540946
1570714975,5.7113647,-14.332291,1.7585449,-3.4669342,1.9884491,-0.89953613,4.38778,-2.6197271,1.5193676
1570714975,11.8016205,-15.395309,7.542938,-2.2993927,-2.1511688,0.2679901,7.31957,-7.2184944,3.8463008
1570714975,3.8594513,-10.125671,3.751709,-0.113479614,-1.5429077,0.09329224,3.456542,0.4507656,5.7127776
1570714975,-9.166199,-13.238144,-0.4112091,-1.8370667,1.5026855,0.66960144,-9.251992,-1.9614353,2.5445752
1570714975,-9.166199,-13.238144,-0.4112091,-1.8370667,1.5026855,0.66960144,-9.251992,-1.9614353,2.5445752
1570714975,-0.16220093,-8.827423,6.376953,-2.4261627,2.0108185,0.2594757,-1.737383,0.62802887,10.281094
1570714975,1.9895782,-4.790802,4.1455536,-1.4972534,2.2057648,0.42991638,1.450633,4.8598757,7.179879
1570714975,2.0542297,-4.766861,4.107254,-1.2479858,2.1109467,0.49169922,1.4052309,5.0829735,7.6200056
1570714975,4.2191772,-3.581131,2.3660736,0.020751953,1.4781799,0.616333,3.249217,5.983879,6.5571823
1570714975,2.3187866,-4.4059296,2.700653,1.1286163,0.63449097,0.28077698,1.9847369,5.584976,5.9602346
1570714975,1.8279724,-6.2045746,0.0909729,1.7731018,0.12635803,0.14868164,1.2639939,4.130143,3.4344842
1570714975,2.3253632,-14.034805,-10.681732,1.8881531,-0.8387604,0.14974976,1.4934226,-1.8162832,-4.991694
1570714975,-3.0376434,-19.612701,-10.945694,0.54060364,-0.4456787,0.21685791,-2.5803225,-9.338974,-11.18098
1570714975,-1.6178894,-17.744034,-10.742783,0.2167511,1.0680542,0.37664795,-3.1981242,-9.307055,-8.42846
1570714975,2.5510254,-6.072296,-1.42276,-0.066604614,0.35113525,0.1572113,1.2028742,2.9729013,-1.5707783
1570714975,7.5914154,-6.8097076,0.6943207,0.74406433,0.5290375,-0.44041443,5.796204,4.642126,2.4064841
1570714975,7.340622,-15.369583,2.740158,1.041275,-2.6017761,-1.1488037,6.133568,-4.2293625,4.1264296
1570714975,6.4930725,-18.34317,4.170105,0.6907959,-3.0950012,-0.8430786,5.955256,-7.9669027,4.37621
1570714975,2.7108307,-10.873871,2.4235382,1.4716339,-1.3564911,-0.80366516,3.0715923,-0.013642311,5.2249584
1570714975,0.02394104,-6.584656,3.4207153,0.010101318,0.64834595,-0.785553,-1.0876555,3.7081718,3.9856467
1570714975,-2.0015564,-9.375092,5.2205505,0.15496826,1.9490356,-0.77915955,-3.5166442,2.0854883,6.1332397
1570714975,-2.0218964,-14.757263,1.6549988,0.81437683,1.2640686,-0.6609192,-3.4884324,-3.6563263,1.994884
1570714975,-5.8562164,-15.17984,0.7080841,2.076706,-0.64276123,0.3851776,-8.071581,-6.2125206,1.134901
1570714975,-2.577362,-10.565018,-0.68473816,2.3078766,-1.675003,0.9593506,-5.590798,-1.3028927,-0.91458577
1570714975,-1.3682861,-9.184753,-1.6490021,1.4993286,-2.758377,1.2490997,-2.808093,1.1792583,-3.2408247
1570714975,1.8656769,-9.866501,0.4046173,2.0500793,-3.5157776,1.3758698,0.7486343,0.5456381,-1.3775148
1570714975,1.9243469,-9.931152,0.35972595,2.1001434,-3.506195,1.3108826,0.7486343,0.5456381,-1.3775148
1570714975,1.5448608,-10.491394,-0.05027771,1.9105225,-2.840393,0.5588074,0.67749685,-0.48256302,-2.55149
1570714975,2.2595215,-8.990829,-0.051467896,1.1456604,-1.325592,0.10926819,1.340359,0.82830715,-2.993171
1570714975,1.9003906,-8.735245,0.08679199,0.27320862,-0.41905212,-0.38182068,0.8703549,1.1664133,-3.080178
1570714975,1.1061249,-11.04924,1.8884277,-0.47140503,0.25845337,-0.92297363,-0.035577297,-0.7009144,-1.5154705
1570714976,-0.76734924,-12.640793,1.4119873,0.44152832,1.5165405,-0.47875977,-2.0800292,-2.8442106,-1.3105481
1570714976,-2.1595764,-12.140991,-0.2861023,0.22528076,0.9902954,-0.2571869,-3.3460221,-2.1788502,-3.592834
1570714976,-3.06398,-12.932877,-0.061050415,0.41915894,0.30319214,-0.061172485,-4.429057,-2.965104,-3.288824
1570714976,-3.16214,-13.833099,-1.4359283,0.5832062,-0.26245117,0.10180664,-4.494462,-3.5382109,-4.175079
1570714976,-4.4681854,-16.414642,-1.6280518,-1.7411957,0.43528748,0.8901062,-6.357724,-6.2149057,-5.039957
1570714976,-4.4681854,-16.414642,-1.6280518,-1.7411957,0.43528748,0.8901062,-6.357724,-6.2149057,-5.039957
1570714976,2.7856598,-11.277283,0.6476288,-3.7982178,3.1133575,0.3191223,2.1724014,-0.9618788,-1.4020226
1570714976,2.8916016,-11.512512,1.7046661,-3.9814453,2.8395844,-0.1133728,2.424739,-0.80772495,0.55738235
1570714976,4.2724457,-12.411545,2.9987335,-3.654419,1.8105469,-0.7088623,3.1423929,-1.1313343,2.5989516
1570714976,9.117722,-11.352707,5.2127686,-0.9475708,-2.3631592,0.30101013,9.944718,-3.1583796,7.151538
1570714976,5.6000366,-10.096954,3.783432,-0.43199158,-1.9189453,-0.037734985,7.2230835,0.18221664,6.1980023
1570714976,-1.241394,-9.923965,1.2509766,-1.441864,1.717865,-0.21777344,-1.6521134,0.31328964,3.524559
1570714976,-1.280304,-10.208282,4.202423,-2.3867493,0.60466003,0.013397217,-2.8391554,0.11380386,5.8941846
1570714976,-1.332367,-10.208282,4.202423,-2.3867493,0.60466003,0.013397217,-2.1846967,0.2580948,6.824959
1570714976,1.7184448,-5.13916,4.2401276,-1.4461212,1.8499603,0.44482422,0.8822598,4.308898,7.3749003
1570714976,3.605667,-3.7654877,3.320755,0.21356201,1.2140045,0.58010864,2.43271,5.90761,6.926846
1570714976,3.7253723,-3.7026367,3.3339233,0.29345703,1.173523,0.5630646,2.6680908,6.0408983,6.8717327
1570714976,2.7826538,-3.684082,2.9574432,1.1019897,0.8699188,0.24455261,2.39828,6.2392864,6.4400215
1570714976,1.5490417,-6.3943176,-0.8062439,1.9073334,0.15512085,0.09541321,0.7578156,4.0788927,2.700158
1570714976,2.5390472,-11.788452,-10.636246,2.1054688,-0.9048157,0.13482666,0.83554196,-0.81339455,-5.5019827
1570714976,-2.4624329,-19.612701,-9.057266,0.61517334,-0.93144226,-0.013244629,-1.5843999,-9.389441,-14.369992
1570714976,0.10774231,-10.499176,-6.941986,0.07507324,0.72398376,0.54922485,-1.4433775,-3.0140123,-7.105681
1570714976,5.680847,-4.3700104,-0.56503296,0.4404602,1.0201263,-0.011108398,4.358334,6.100525,1.3894744
1570714976,7.9319916,-8.493423,2.0075378,1.0764313,-1.4619446,-1.0103302,7.9200954,2.8412514,2.8920848
1570714976,8.540115,-14.575897,4.293396,1.0540619,-3.1035156,-1.1573334,6.5010185,-2.7653446,5.724542
1570714976,1.4550781,-11.340729,0.87568665,2.010666,-0.9389038,-0.87716675,0.40259492,-1.0001516,1.9930327
1570714976,0.620697,-6.689392,2.5402527,0.39997864,0.22117615,-0.4883423,-0.8445891,2.9114208,2.4798794
1570714976,0.98880005,-5.8610077,4.130005,-0.01121521,0.8145294,-0.67263794,-0.87733936,4.027399,3.7732759
1570714976,-2.3576965,-9.50618,4.8722076,0.5991821,2.8033752,-0.6151123,-4.3985996,1.6948881,6.4496913
1570714976,-6.2602386,-16.021393,1.1264648,1.7454071,-0.57351685,0.489563,-8.236344,-6.8458443,0.59755236
1570714976,-6.2602386,-16.021393,1.1264648,1.7454071,-0.57351685,0.489563,-8.236344,-6.8458443,0.59755236
1570714976,-1.984787,-10.055054,-2.834732,1.884964,-3.1322784,0.93377686,-4.2587085,-0.51592636,-3.7619505
1570714976,1.5430603,-9.559448,1.1863251,1.7432861,-4.7621307,1.6815948,-0.17687988,1.0157509,-0.78697515
1570714976,1.5430603,-9.559448,1.1863251,1.7432861,-4.7621307,1.6815948,-0.17687988,1.0157509,-0.78697515
1570714977,2.047638,-9.56543,0.18136597,1.7262421,-2.0883179,0.35002136,0.7173755,0.3949585,-2.404924
1570714977,2.047638,-9.56543,0.18136597,1.7262421,-2.0883179,0.35002136,0.7173755,0.3949585,-2.404924
1570714977,1.8351593,-8.362946,-0.4225769,0.41490173,0.033691406,-0.3168335,0.9339347,1.5032234,-3.4696138
1570714977,0.2633667,-12.612656,2.9269104,-0.29882812,1.2512817,-0.9634552,-0.9363558,-2.0608883,-0.11932063
1570714977,0.2633667,-12.612656,2.9269104,-0.29882812,1.2512817,-0.9634552,-0.9363558,-2.0608883,-0.11932063
1570714977,-2.4540558,-11.559204,-0.11671448,0.46070862,0.7910919,-0.20179749,-3.820067,-1.7936735,-3.3566587
1570714977,-2.4540558,-11.559204,-0.11671448,0.46070862,0.7910919,-0.20179749,-3.820067,-1.7936735,-3.3566587
1570714977,-3.0406342,-11.801025,-1.4161682,0.785614,-0.14102173,0.09861755,-4.776587,-2.1677837,-4.3931828
1570714977,-1.9883881,-14.829681,-6.6714478,-0.9422455,-1.0113373,0.37664795,-3.377264,-4.451624,-9.7413435
1570714977,-1.9584503,-15.135544,-6.768402,-1.1467743,-0.896286,0.39369202,-3.377264,-4.451624,-9.7413435
1570714977,-2.7072449,-15.759232,-0.4554901,-4.5279236,2.4880524,0.60354614,-3.5926049,-6.1446323,-3.3132334
1570714977,-2.3259735,-15.005661,3.7182007,-4.5236664,2.6126862,0.76226807,-3.8158333,-4.719681,3.5498018
1570714977,0.73262024,-13.344086,5.3145294,-3.831253,1.860611,0.8666687,-0.5656498,-3.1025534,5.2019825
1570714977,6.0818634,-13.415909,4.76326,-2.953476,0.74635315,-0.32643127,4.34944,-2.876834,5.377425
1570714977,2.688095,-18.687347,4.522049,-1.5515747,-1.4129486,-0.6385498,2.0037577,-8.812534,6.0393357
1570714977,5.8568115,-9.791687,5.000885,0.32115173,0.62809753,0.7548218,5.7441034,-0.059185028,9.684593
1570714977,-5.0493774,-11.083359,0.19154358,-2.0863495,2.3879242,0.48104858,-4.6008916,-0.15567684,0.8636284
1570714977,-5.355835,-11.185715,3.4847565,-2.4794312,2.2302551,0.5652008,-6.029117,-0.8990431,4.2860513
1570714977,0.082595825,-7.775177,3.0645752,-2.477295,2.3048248,0.29782104,-1.4180748,1.5191746,6.418131
1570714977,2.8389282,-4.878784,4.0180664,-0.73132324,1.9160004,0.6568146,1.7335867,4.74508,7.775316
1570714977,4.4298706,-3.7900238,3.7666779,0.15603638,1.2502136,0.6110077,3.7559686,6.022355,6.874482
1570714977,3.8043823,-3.5763397,2.8089905,0.8601837,0.87098694,0.32444763,3.3449883,6.2184134,6.3560276
1570714977,2.3726501,-4.6944275,1.1348572,1.6367493,0.0017242432,-0.0068511963,1.4695492,5.51497,4.6702614
1570714977,2.3217773,-7.399872,-0.31184387,2.2886963,-0.9697876,-0.09100342,1.6203246,3.4432764,2.2813287
1570714977,1.8279724,-19.612701,-19.612701,2.0873566,-1.2275848,-0.16769409,1.7401546,-5.891121,-11.619565
1570714977,0.85832214,-5.818512,-3.7612915,-0.11773682,0.5290375,0.60461426,-0.87229455,2.675867,-4.3085203
1570714977,0.85832214,-5.818512,-3.7612915,-0.11773682,0.5290375,0.60461426,-0.87229455,2.675867,-4.3085203
1570714977,9.305069,-7.6398926,0.72424316,0.9709625,-0.2880249,-0.5320282,7.0288754,4.2548847,2.2704859
1570714977,3.253128,-13.410522,5.0373993,0.09638977,-2.4047089,-0.3956604,2.0833583,-6.639682,5.5115986
1570714977,3.253128,-13.410522,5.0373993,0.09638977,-2.4047089,-0.3956604,2.0833583,-6.639682,5.5115986
1570714977,3.2920227,-7.680008,2.9167328,0.3339386,-1.5460968,-0.53308105,2.004973,2.894724,3.7243247
1570714977,1.1599884,-9.020157,4.3227386,0.30836487,-0.9612732,-0.6662445,0.5346674,1.4116259,4.823015
1570714977,-0.6404419,-8.486847,5.178055,0.3573761,0.8603363,-0.7876892,-2.0706172,1.9115725,6.163871
1570714977,-1.0444641,-11.140213,5.7377014,0.61517334,2.3165436,-0.6641083,-2.9565659,-0.27054214,6.298149
1570714978,-4.774643,-12.78923,-3.023285,2.4250488,-0.591629,0.38729858,-7.0897017,-3.3567886,-3.0988686
1570714978,-4.774643,-12.78923,-3.023285,2.4250488,-0.591629,0.38729858,-7.0897017,-3.3567886,-3.0988686
1570714978,-1.8728638,-9.609131,-2.771881,1.6591187,-2.9948578,1.2288666,-4.155651,0.2684288,-4.150625
1570714978,0.5422821,-8.798691,-0.16101074,1.4077301,-3.7820892,1.5974426,-1.3375247,1.6267672,-2.0737195
1570714978,1.9506683,-9.334991,1.1947021,1.6079865,-2.3067017,0.7558899,0.99056137,0.97787285,-0.6108247
1570714978,1.4514923,-9.601349,1.0612335,1.5121155,-1.8603516,0.5375061,0.62443435,0.71555805,-0.86632395
1570714978,1.9638367,-9.357742,1.059433,0.7366028,-0.1431427,-0.049453735,0.80741227,0.8315487,-1.5705705
1570714978,2.0063477,-9.549271,1.1725616,0.658844,0.05178833,-0.16557312,0.8947426,0.56418514,-1.4528439
1570714978,1.7399902,-10.945694,1.1246796,0.3115692,0.5705719,-0.64601135,0.57414687,-0.661994,-1.7533932
1570714978,0.9289551,-12.438477,1.5628204,0.38613892,0.827301,-0.74827576,-0.10811865,-2.3020954,-1.2805748
1570714978,-0.9235687,-12.624619,1.0127411,0.6897278,1.2544708,-0.4851532,-2.1125185,-2.711135,-1.8724763
1570714978,-2.1230621,-12.056595,-0.0059814453,0.42662048,1.2779083,-0.29234314,-3.2438893,-2.2948494,-3.1193671
1570714978,-3.0388336,-13.12262,-3.028061,0.48413086,0.37031555,0.14335632,-4.4181924,-3.3157797,-6.001498
1570714978,-2.518097,-13.91391,-4.4639893,-0.13478088,-0.2177124,0.266922,-3.9402583,-4.0414658,-7.6028314
1570714978,-2.7449493,-14.980515,-2.5360565,-1.6101685,-0.3391571,0.360672,-3.6543152,-4.4702272,-6.491084
1570714978,-0.46148682,-12.982559,-1.5071564,-3.0898285,2.482727,0.5897064,-1.4973778,-3.1211262,-3.4708543
1570714978,-0.0018005371,-12.360672,-0.7176666,-3.7769165,2.371933,0.41712952,-0.67704296,-1.9830971,-2.664027
1570714978,2.9203339,-11.900375,3.5523987,-3.7438965,1.910675,-0.13574219,2.467155,-1.0554285,3.6494222
1570714978,4.2036133,-13.875595,2.2415771,-3.3806458,0.8315735,-0.81217957,3.3579783,-2.995761,2.8268623
1570714978,8.349777,-16.024399,4.130005,-1.4631653,-1.5855103,0.11140442,5.372743,-8.098483,6.265456
1570714978,-1.8363495,-10.79306,-1.5574341,-1.3395996,2.1844482,-0.0025787354,-1.1540157,-0.3662796,0.99464226
1570714978,-8.246826,-13.257889,-1.0576324,-2.2589111,2.083252,0.4853058,-8.308746,-2.1738596,-0.3390472
1570714978,0.66677856,-7.802704,2.8125916,-2.2791595,1.3482208,0.20301819,-0.91804594,1.0184202,5.8717294
1570714978,1.6843262,-6.1417236,2.2397766,-2.1502533,1.3109436,0.12205505,0.31910092,2.9601212,5.85531
1570714978,2.0841522,-5.486908,4.05278,-0.9859314,1.2917633,0.35214233,0.84622896,4.022419,8.014256
1570714978,3.8283234,-3.533249,2.13443,-0.03677368,0.9146576,0.47572327,2.6744065,6.03878,6.0686426
1570714978,3.6158447,-3.6164398,2.1577759,0.67163086,0.33728027,0.28503418,2.9173522,6.199089,5.7774324
1570714978,1.6292572,-4.782425,1.1743622,1.5771027,-0.22836304,0.20195007,0.91863066,5.2376604,4.59945
1570714978,0.99539185,-9.095566,-3.7457275,1.9733734,-0.8036194,0.23071289,0.41873854,1.6351109,-0.5290899
1570714978,-3.0909119,-19.612701,-9.689331,0.6407318,0.14128113,0.3564148,-2.586155,-9.441402,-5.060495
1570714978,-2.794632,-19.612701,-12.295425,0.57788086,0.68136597,0.42459106,-3.5566652,-9.421762,-6.550543
1570714978,3.5272522,-4.898529,-0.40582275,0.22846985,0.09440613,-0.024963379,2.9561796,5.180702,1.0154862
1570714978,4.2670593,-4.7058105,0.94929504,0.39039612,0.40226746,-0.19966125,3.7125354,5.5598764,2.7339604
1570714979,7.3023224,-9.081207,1.7603302,1.6282349,-0.29974365,-1.1946106,6.509962,2.076312,3.2126727
1570714979,5.948395,-15.51622,2.9795837,0.7195587,-2.8031158,-0.34986877,4.4224586,-7.828822,3.8227775
1570714979,5.948395,-15.51622,2.9795837,0.7195587,-2.8031158,-0.34986877,4.4224586,-7.828822,3.8227775
1570714979,0.67037964,-11.268906,3.0274658,1.8913574,-1.0933685,-0.8888855,0.0018575191,-0.87962055,4.876472
1570714979,0.4878235,-5.3468475,3.4021606,0.84313965,0.9476776,-0.6204376,-0.87039137,4.820032,2.9651024
1570714979,-1.8231812,-9.071625,6.8366394,0.4638977,3.469162,-0.45532227,-3.630045,2.0311985,6.85708
1570714979,-1.2785034,-11.492767,4.1329956,0.32435608,3.9847565,-0.36691284,-3.3765776,-0.17533493,4.663431
1570714979,-6.7707977,-18.089996,-0.40283203,1.2223663,1.7796478,0.09861755,-7.98643,-7.4741755,-0.027459681
1570714979,-1.7717133,-9.394241,-2.881424,1.7965393,-3.6137848,1.3620148,-3.7081466,0.45550537,-4.9494596
1570714979,-0.56443787,-8.401855,-1.0127411,0.84207153,-3.9259033,1.7806702,-2.2159684,1.334363,-3.38593
1570714979,1.3473358,-9.177567,1.0977478,1.2436676,-4.4223175,1.922348,0.1626113,1.5937262,-0.9865756
1570714979,2.6102753,-12.072159,-0.18554688,2.617859,-4.862274,1.2001038,1.8394809,-1.9059782,-2.200502
1570714979,2.1170654,-7.973892,-2.732376,0.33180237,-2.2832642,0.34681702,1.4323277,1.9372234,-6.375745
1570714979,1.4736328,-9.282913,1.1444244,-1.3747406,-0.72265625,-0.30085754,0.59408677,0.766634,-1.8545313
1570714979,0.4225769,-10.404602,3.297409,-1.0583649,-0.5213165,-0.7727661,-0.6770786,-0.08433437,0.75771713
1570714979,-0.28311157,-11.2916565,3.4691925,-0.32972717,-1.0582123,-0.7141876,-1.5381806,-0.9287939,1.2960122
1570714979,-0.2962799,-11.962036,3.157959,0.7184906,-1.8933716,-0.5458679,-1.8596364,-1.6125231,1.1305497
1570714979,-2.1871033,-13.81694,4.657318,0.6833496,1.8904419,-0.3125763,-4.060878,-3.7606497,2.1341069
