time,ax,ay,az,gx,gy,gz,la_x,la_y,la_z,fox,foy,foz
1570714887,10.333375,-5.583278,5.631162,1.1164312,1.0631664,1.9068816,4.7644615,1.8531121,2.4899697
1570714887,8.154651,-5.1571107,4.975151,1.1462595,1.4583915,1.4935462,3.0693667,2.3894134,1.3215994
1570714887,7.0245876,-5.0996494,5.0134583,0.58058685,1.4189755,1.4978075,2.5761611,2.60968,1.0821792
1570714887,5.875371,-4.9895163,4.280833,0.9395919,0.9619631,0.9662243,1.8148049,2.695871,0.15322891
1570714887,4.9224787,-4.711789,2.6431987,0.13635801,0.91722065,0.66900647,1.1109096,2.791639,-1.1013328
1570714887,4.8602295,-5.45878,0.60812724,-2.1210063,1.1345413,0.29082605,1.3838485,3.1364043,-3.5051112
1570714887,3.3758245,-6.5936313,1.2162545,-1.8738573,1.0652969,0.18962285,0.047884032,1.5897499,-2.705448
1570714887,2.930503,-9.102755,1.5610195,-1.9185997,1.1004517,0.40800872,-0.40222588,0.5267244,-2.4037786
1570714887,2.1499932,-9.069236,2.9879637,-1.3582536,0.36326626,0.5401055,-1.0055647,-0.31603462,0.6703765
1570714887,2.3319526,-7.666234,1.3599066,-1.2645074,0.3771151,0.59656626,-0.5410896,0.5793968,-1.3311762
1570714887,3.1411927,-8.374918,2.719813,-1.2602463,0.47831833,0.4431635,0.20590134,2.2361844,-0.25857377
1570714887,1.7860745,-8.523358,3.8163576,-0.7925809,0.09055024,0.25460598,-1.0534488,-0.37349546,1.2785037
1570714887,3.9695864,-8.207323,1.958457,-0.60402334,0.08415846,0.18855755,1.2785037,0.45010993,-0.5746084
1570714887,2.6910827,-7.240066,2.2026656,-0.64876586,0.10759499,0.25780186,0.5315128,1.6567876,-0.01436521
1570714887,3.9456444,-11.061212,1.5658079,-0.6658106,0.21945117,-0.046873067,1.2449849,-0.2681506,-0.34955344
1570714887,4.697424,-15.08347,1.8818425,-0.33876443,0.23436533,0.15233746,2.1978772,-5.291186,0.2777274
1570714887,4.098873,-15.7825775,0.91937345,-0.12677033,0.23756121,0.60402334,1.9488802,-6.3111157,-0.8331822
1570714887,3.9312792,-15.9022875,0.038307227,0.5944357,0.5219955,0.6615494,2.1164744,-6.885724,-2.2505496
1570714887,3.514688,-14.920665,0.94810385,1.1377372,0.63065577,0.32385027,1.7764976,-5.559336,-1.6424223
1570714887,2.2266076,-14.025233,2.8682537,1.7502829,0.46127358,0.25886714,0.39264908,-4.486734,-0.61770403
1570714887,1.7238252,-12.301409,4.721366,2.5726922,0.12783563,0.070309594,0.08619126,-3.371036,1.4460979
1570714887,1.0342951,-9.121908,4.3861775,2.554582,0.63065577,-0.22797355,-0.7613561,-0.272939,0.5506664
1570714887,-0.8475474,-4.9895163,4.5920787,2.966852,0.11292148,-0.37391922,-3.3566709,2.1978772,1.0821792
1570714887,-0.33518824,-0.2825158,3.8067808,1.8482902,0.32811147,-0.39096397,-2.6384103,6.1866174,-3.0597897
1570714888,-1.5227122,0.7182605,4.9943047,0.82880104,-0.1033338,-0.3856375,-3.5290532,7.953538,-0.35434186
1570714888,-0.9624691,0.6751649,4.1371803,0.09694202,-0.57099915,-0.60189277,-3.1316159,8.51857,-1.6472107
1570714888,-0.30166942,-3.2752678,4.7261543,-0.64237404,-1.0578399,-0.8053645,-2.695871,4.3382936,-0.9672575
1570714888,0.63206923,-5.875371,5.0134583,-1.6991487,-1.180349,-0.6796594,-2.408567,2.9783869,-0.19153613
1570714888,2.327164,-8.336611,3.1268275,-1.8024824,-1.3582536,-0.31319728,-0.6991069,-0.31124622,-1.6328455
1570714888,2.9017725,-7.0102224,1.5562311,-2.0634801,-1.1824796,-0.43570644,-0.19153613,0.80924016,-3.1172507
1570714888,2.0398598,-9.107543,2.657564,-1.5617253,-0.653027,-0.32171968,-1.4652514,-0.6943185,-0.9624691
1570714888,3.2130187,-9.399636,3.5194764,-1.0269462,-0.6935083,-0.12570503,-0.4261679,-0.8810662,0.29209262
1570714888,6.469133,-13.206416,4.074931,-0.9033718,-0.15766394,0.3472868,2.2505496,-3.7684734,1.0965444
1570714888,7.383718,-14.5088625,2.777274,-0.46340418,0.091615535,0.47725302,3.8546648,-5.813122,-0.07182605
1570714888,2.954445,-10.611102,0.18195933,0.14488038,-0.12144385,0.42931467,0.29688102,-2.2170308,-2.6001031
1570714888,1.70946,-6.8665705,4.0174704,0.37391922,-1.0429257,0.14061919,-1.6567876,1.8818425,1.1444284
1570714888,1.4413095,-4.7165775,5.9041014,-0.033024207,-0.9055024,0.4548818,-1.9393034,4.036624,3.0693667
1570714888,2.6384103,-2.873042,1.5705963,-1.012032,0.34302562,1.4264326,-0.545878,6.0142345,-1.0821792
1570714888,2.6288335,-5.032612,5.5880666,-1.5979455,2.1114185,0.71161836,-0.11492168,4.060566,3.1507695
1570714888,1.4221559,-10.146626,3.9217024,-2.9476767,0.33769912,-0.42611876,-1.2114661,-0.8810662,2.0685902
1570714888,2.8682537,-9.461885,-3.9264908,-2.916783,0.14807628,-0.39948636,-0.35913026,-0.7038953,-3.394978
1570714888,3.5769374,-12.148179,-2.8921957,-0.3057402,0.113986775,0.08309316,0.45968673,-2.896984,-4.999093
1570714888,3.8402996,-15.557523,1.388637,0.86289054,0.7766015,0.054330144,1.1252748,-6.181829,0.40222588
1570714888,2.6431987,-14.911088,3.1842883,0.6210681,0.46766534,-0.19068815,-0.062249243,-5.5641246,1.9488802
1570714888,2.882619,-12.459426,1.7429788,0.6583535,0.22584295,-0.6839206,0.18674773,-3.3662477,0.8283938
1570714888,2.3463178,-5.386954,3.3758245,0.47192654,1.0706234,0.24608359,0.48841715,3.845088,1.7046716
1570714888,1.0773908,-10.970232,6.8091097,-0.23543063,-0.2791078,0.30254433,-2.0733786,-1.8818425,6.339846
1570714888,1.6998832,-9.193734,-2.3080103,-0.51666903,-0.7307937,0.6700718,1.0534488,0.50757074,-2.1499932
1570714888,2.7629087,-9.255983,0.8571242,0.26099774,-0.25993246,0.044742472,-0.32561144,0.2825158,-0.33039984
1570714888,1.5466543,-9.591172,2.6384103,0.17151281,-0.16725162,0.1736434,-0.78529817,-0.4213795,0.81402856
1570714888,2.336741,-9.303867,1.9249382,-0.24821419,-0.18642697,-0.04900366,-0.2825158,0.272939,0.7086837
1570714888,1.2066777,-9.02614,0.5602432,0.088419646,-0.12677033,-0.47299185,-1.8052281,-0.038307227,-0.92416185
1570714888,2.4995465,-9.078813,1.1683705,0.44849002,-0.08628905,-0.33876443,0.7374141,0.48841715,-0.25378537
1570714888,2.2888567,-3.4237084,2.72939,-0.25247538,-0.3462215,-0.46340418,-1.2210429,5.104438,1.3982137
1570714888,0.6368576,-6.9048777,3.2273839,-0.94704896,-0.10759499,-0.11824796,-1.8100165,3.0454245,1.4413095
1570714888,4.6255975,-9.993398,-0.37828386,-1.5553335,-1.0429257,-0.5283873,1.1731589,-0.31124622,-0.05746084
1570714888,2.858677,-5.4204726,-1.9488802,-0.7595567,-0.3451562,-0.30467492,-0.06703765,2.5617957,-2.2026656
1570714889,3.5098996,-3.1507695,-0.6607997,1.5414847,1.3177723,-0.36646214,-0.25857377,7.3885064,-0.6847417
1570714889,5.0613422,-3.643975,1.5945383,2.7612495,3.3205307,0.40694344,0.866701,6.0764837,-1.0486604
1570714889,2.0638018,-24.372972,12.694057,1.0280116,0.175774,0.1043991,-0.34955344,-17.7554,11.745954
1570714889,4.4819455,-9.710882,2.1547816,-1.660798,-2.3127596,0.0,1.1013328,-1.1827357,0.60812724
1570714889,3.016694,-8.145074,-0.58418524,-0.09800732,-0.56993383,-0.7126837,-0.37828386,0.9911995,-2.7102363
1570714889,4.999093,-10.304645,1.292869,0.6359823,-0.35474387,-0.624264,1.5849615,-1.2785037,-0.45968673
1570714889,5.1235914,-11.626244,3.6631286,0.75209963,-0.04793836,-0.41653112,1.733402,-2.7964275,1.6998832
1570714889,4.5920787,-10.141838,1.7908629,0.8714129,-0.3483521,-0.5986969,1.0486604,-1.4987702,0.32561144
1570714889,3.8786068,-7.038953,4.098873,1.0450563,-0.036220096,-0.6945736,0.033518825,1.6663644,1.733402
1570714889,3.3327289,-6.019023,1.6232687,-0.088419646,-1.4285632,-0.64770055,-0.7230489,2.585738,-0.7422025
1570714889,4.2042184,-5.8562174,1.4508862,1.0130974,0.017044751,-0.76168734,-0.076614454,2.6240451,-0.9576807
1570714889,3.892972,-8.848969,2.4420857,0.73612016,0.15340276,-0.47405714,-0.5315128,-0.51235914,-0.22026655
1570714889,4.1946416,-10.304645,2.9879637,0.839454,0.21412468,-0.4218576,-0.32561144,-2.087744,0.110133275
1570714889,4.687847,-7.843405,3.1172507,0.8937841,0.026632423,-0.32704616,0.076614454,0.23463176,0.0047884034
1570714889,5.118803,-6.172252,3.016694,0.7052266,-0.020240642,-0.351548,0.4165911,1.7764976,-0.2777274
1570714889,4.673482,-6.291962,3.514688,0.44422883,-0.07137489,-0.21838588,-0.10055647,1.5610195,0.095768064
1570714889,4.879383,-6.5361705,3.7924154,0.3142626,-0.17790459,0.0692443,0.08619126,1.283292,0.32561144
1570714889,5.267244,-6.2345014,4.0462008,0.23756121,-0.19175345,0.40694344,0.521936,1.6041151,0.5554548
1570714889,5.2385135,-5.9519854,4.817134,0.23649593,-0.13316211,0.73185897,0.5315128,1.8914193,1.13964
1570714889,5.473145,-6.2345014,5.410896,0.23862651,-0.094811425,1.1153659,0.7613561,2.006341,1.4652514
1570714889,6.4068837,-6.967127,5.961562,-0.30893612,-0.46127358,1.2708993,2.2936451,1.2114661,2.4372973
1570714889,7.632715,-7.9104424,5.8083334,-0.6956389,-0.74890375,0.85330284,3.5673606,0.5315128,2.336741
1570714889,6.3111157,-7.0724716,8.034941,-0.020240642,-0.59656626,-0.07776668,2.6144683,1.1348516,4.7740383
1570714889,6.5936313,-6.95755,3.9456444,0.14594568,-0.9321348,0.409074,2.5809495,1.4317327,0.8331822
1570714889,4.9081135,-10.850522,0.8858546,-0.64237404,-0.42292288,0.88419646,1.4700398,-1.2306197,-2.2170308
1570714889,0.40222588,-16.486473,3.2130187,-0.5134731,0.044742472,0.7467731,-2.825158,-7.9966335,0.62728083
1570714889,1.9776106,-8.6574335,7.249643,0.32598087,0.60402334,0.32171968,-1.8962077,-1.1252748,5.142745
1570714889,3.0693667,-5.779603,-2.7629087,-0.46553475,-0.21945117,0.019175345,-0.36870706,2.9640217,-4.2425256
1570714889,2.5474305,-6.220136,-0.10534488,-0.243953,0.8607599,0.1747087,-0.9864111,2.7964275,-4.0078936
1570714889,2.7820623,-11.03727,4.405331,0.37498453,0.5656727,0.20347172,-0.48362875,-1.3503298,1.2306197
1570714889,0.6751649,-11.659762,4.343082,-0.47086126,0.94278777,0.28123838,-2.566584,-3.7828386,1.6041151
1570714889,0.4357447,-7.656657,1.6328455,-0.71481425,1.4274979,-0.07989727,-2.4947581,0.9720459,-1.5035586
1570714889,1.3311762,-8.106767,1.733402,-0.60934985,1.3230988,-0.02769772,-1.7717092,0.92416185,-1.2258313
1570714889,2.791639,-8.992621,2.719813,-0.51240784,1.1196271,0.15979454,-0.21547815,0.10055647,0.31603462
1570714890,1.9488802,-10.01734,1.6232687,-0.5891092,0.94704896,0.14488038,-0.40701428,-1.3503298,1.1492168
1570714890,0.47405192,-9.940725,2.4947581,-0.82560515,1.080211,0.028763017,-1.7046716,-1.3024458,2.3463178
1570714890,1.3120226,-8.571242,2.3175871,-0.9385266,0.9832691,-0.059656627,-1.5705963,0.272939,0.40701428
1570714890,2.825158,-8.695741,2.3463178,-0.839454,0.85330284,0.15340276,0.038307227,0.47884035,-0.5793968
1570714890,3.5577838,-9.227253,2.7868507,-0.9704855,0.5688686,0.33024204,1.2449849,0.05267244,0.48362875
1570714890,3.490746,-8.868123,3.2800562,-1.1686307,0.4112046,0.49003658,1.2401965,0.5363012,1.292869
1570714890,2.2697031,-7.3071036,4.1419687,-1.3092499,0.89698005,0.67646354,0.19153613,1.8818425,2.4420857
1570714890,0.6943185,-6.766014,3.9743748,-1.1941979,1.1206924,0.57099915,-1.0773908,2.7964275,2.7341783
1570714890,1.13964,-6.703765,2.9161377,-0.96089786,1.012032,0.23116943,-0.79008657,2.9257145,1.8866309
1570714890,2.4756045,-8.781932,4.5537715,-0.50068957,0.88419646,-0.18536167,0.7182605,0.81881696,3.6343982
1570714890,2.054225,-9.289502,6.38773,-0.25247538,0.95450604,0.1395539,0.33997664,0.32561144,5.535394
1570714890,3.41892,-8.121132,4.4484267,0.50068957,0.32917675,-0.1384886,1.7190368,1.4891934,3.5194764
1570714890,2.2218192,-6.3063273,3.1794999,1.7428257,-0.54117084,-0.39096397,0.4309563,3.2513258,1.9153614
1570714890,0.56982,-10.271125,4.8219223,2.3883958,-0.7542302,-1.0610358,-1.4508862,-0.8523358,2.96881
1570714890,3.2848446,-15.825673,6.7851677,2.2989109,-1.6277738,-2.02726,0.7134721,-6.6750345,4.3622355
1570714890,9.409213,-16.481684,-2.0111294,1.5084604,-1.6426879,-2.0528271,6.1100025,-7.6710224,-4.783615
1570714890,7.699753,-10.472239,-1.4891934,1.2698339,-1.3550577,-0.907633,3.9695864,-1.9153614,-4.4963107
1570714890,3.7588966,-5.6120086,3.0023289,1.6064677,-1.8269843,-0.44209823,-0.29209262,2.7389667,-0.14844051
1570714890,2.4420857,-4.7740383,4.367024,1.9111427,-0.88845766,-1.0024444,-1.910573,3.3039982,0.91458505
1570714890,1.1587936,-8.221688,4.4484267,1.5798354,-1.2463974,-1.1430637,-3.5529952,-0.47405192,0.7086837
1570714890,2.0350714,-9.825804,1.8531121,1.1537166,-1.833376,-0.9353307,-3.1172507,-2.384625,-1.9201498
1570714890,3.4955344,-9.203311,0.91458505,1.2730298,-1.0205544,-0.22051647,-1.9297266,-1.982399,-2.9017725
1570714890,3.0933087,-6.9527617,2.8874073,1.015228,-0.28336897,0.12357444,-2.2409728,-0.2777274,-1.6089035
1570714890,2.255338,-7.0006456,3.86903,0.6253293,-0.33876443,0.34302562,-3.1507695,0.18195933,-0.08619126
1570714890,2.8203697,-7.129933,2.7724855,0.16405573,-0.409074,0.6072193,-2.7868507,-0.02873042,-1.091756
1570714890,3.4955344,-5.9998693,2.9496565,-0.30467492,-0.2801731,0.92254716,-1.9728222,0.93852705,-1.2354081
1570714890,5.3582234,-4.4340615,4.074931,-0.47512242,-0.39842105,1.2474627,-0.05746084,2.7389667,0.17717093
1570714890,8.374918,-4.5872903,5.2002063,-0.57526034,-0.4133352,1.5340276,3.0071173,3.2561142,1.115698
1570714890,8.025364,-9.208099,6.789956,-0.3856375,-0.2791078,1.1196271,4.0940847,-0.36391866,2.3319526
1570714890,6.191406,-9.773131,9.768343,0.8639558,-1.1888714,-0.08628905,1.3215994,-2.2601264,6.6510925
1570714890,8.130709,-4.256891,1.484405,-0.060721926,-1.7023445,0.012783563,3.6870706,3.2082303,-0.08619126
1570714890,5.645528,-15.461755,1.7860745,-0.8650211,-0.44103295,0.6455699,1.982399,-4.831499,-2.873042
1570714890,-0.16759412,-21.734564,1.9680338,-0.57099915,-0.15020686,-0.23116943,-4.975151,-16.70674,-1.5275006
1570714891,4.146757,-4.8937483,0.5363012,-0.33663383,-0.6999001,-0.2087982,-0.6943185,1.9297266,-0.24899697
1570714891,-1.5275006,-7.603985,-3.1028855,-0.19494934,-0.070309594,0.49642837,-5.544971,1.7477672,-5.66947
1570714891,-1.7669208,-9.476251,3.0310593,-0.28869548,1.0429257,1.1153659,-6.3063273,-1.6711528,-1.2114661
1570714891,1.8579005,-8.63828,7.2592196,-0.70203066,1.298597,0.49855897,-2.7964275,-1.0199299,5.0134583
1570714891,1.541866,-5.6407394,3.514688,-0.86289054,1.6618632,-0.5315832,-2.585738,3.4045548,1.1875241
1570714891,2.3894134,-8.48984,1.115698,-0.72759783,1.6405573,-0.5550197,-1.6567876,0.033518825,-1.541866
1570714891,4.5633483,-8.6334915,2.2649148,-0.64450467,1.6703856,0.0010652969,0.58897364,-0.076614454,-0.4213795
1570714891,5.056554,-8.1402855,3.5051112,-0.39522517,1.09406,0.3824416,1.0486604,0.45968673,1.1348516
1570714891,4.453215,-9.208099,1.8483237,-0.56247675,1.0589051,0.2791078,0.8379706,-0.50278234,-0.866701
1570714891,3.4380736,-9.442732,2.882619,-1.0280116,0.78725445,0.06285252,-0.05746084,-0.6560113,0.2777274
1570714891,3.4284968,-7.4603324,3.8786068,-1.0258809,0.3877681,0.15446806,0.0,1.412579,1.508347
1570714891,4.132392,-8.75799,2.2026656,-0.74464256,0.026632423,0.65089643,0.80924016,0.21068975,0.04309563
1570714891,3.9025488,-9.227253,3.715801,-0.89591473,0.04154658,1.0759499,0.8379706,-0.11492168,1.7669208
1570714891,2.2409728,-7.690176,4.984728,-1.122823,0.39735577,1.0844723,-0.50278234,1.5705963,3.2992098
1570714891,-0.29209262,-6.090849,4.280833,-1.1217576,0.67752886,0.7467731,-2.7485435,3.2944214,2.8682537
1570714891,1.2449849,-7.8050976,2.7341783,-0.5187996,0.47086126,-0.011718267,-1.0965444,1.6376339,1.508347
1570714891,2.882619,-9.279925,4.156334,-0.50814664,0.32598087,-0.07350549,0.50757074,0.16759412,3.0262709
1570714891,2.7868507,-9.519346,6.1866174,-0.13209683,0.38883337,0.14061919,0.45010993,-0.05267244,5.1235914
1570714891,4.7309427,-6.919243,3.9552212,0.63491696,-0.12677033,0.10972559,2.432509,2.5378537,2.7629087
1570714891,3.3183637,-6.445191,2.6288335,2.001693,-1.0919293,0.063917816,1.0103531,2.9592333,1.091756
1570714891,-0.16759412,-10.0029745,3.5338416,2.6813524,-0.9097636,-0.71481425,-2.60968,-0.7517793,1.3790601
1570714891,-0.110133275,-15.088259,4.3766007,2.2158177,-1.2559851,-2.5130355,-2.4899697,-6.167464,1.6232687
1570714891,6.895301,-15.437813,0.4261679,1.600076,-0.91828597,-2.4800112,3.0693667,-6.9527617,-2.6671407
1570714891,8.700529,-12.349293,-0.2873042,1.6576021,-0.53371376,-1.0205544,4.405331,-4.2185836,-3.691859
1570714891,8.101978,-8.111555,0.4165911,1.9686687,-2.0080848,-0.43890235,3.5338416,-0.25857377,-3.2848446
1570714891,4.146757,-2.9879637,1.3311762,1.6277738,-0.91615534,-0.8980453,-0.7565677,4.5537715,-2.5617957
1570714891,1.3215994,-6.6367273,5.779603,1.3252294,-0.15446806,-1.0610358,-3.4859576,1.4508862,1.2162545
1570714891,1.9728222,-8.724471,3.1890767,0.7766015,-1.5691824,-1.2453321,-3.7349546,-1.3790601,-0.47884035
1570714891,4.5058875,-8.925584,0.80924016,0.90869826,-1.0375992,-0.6189375,-1.0055647,-2.2744915,-3.2848446
1570714891,4.572925,-6.3206925,1.3694834,0.6956389,-0.28549957,-0.017044751,-1.0534488,-0.4357447,-3.083732
1570714891,2.6862943,-6.789956,3.5529952,0.25886714,0.023436533,0.32491556,-3.1794999,-0.320823,-0.89543146
1570714891,2.2122424,-6.277597,3.7205894,-0.07670138,0.089484945,0.6327864,-3.7014358,0.2825158,-0.41180268
1570714891,4.1515455,-6.129156,3.1364043,-0.4889713,-0.034089502,1.0099015,-2.1308396,0.6991069,-1.0103531
1570714892,7.599196,-5.2002063,3.8833952,-0.77020967,-0.33450323,1.1941979,1.4748282,1.7142484,-0.31124622
1570714892,12.124237,-5.497087,4.8362875,-0.6594188,-0.60082746,1.0397298,6.3350577,1.8770541,0.5650316
1570714892,7.1586633,-4.831499,7.4124484,-0.03728539,-0.18642697,0.37178862,2.9879637,2.7006595,3.0789435
1570714892,8.1163435,-8.834604,7.029376,0.6913777,-1.0866029,-0.25993246,2.5378537,-1.0965444,4.10845
1570714892,8.441956,-8.6813755,0.25857377,-0.46979594,-1.3124459,0.243953,2.4947581,-0.7374141,-2.4947581
1570714892,4.1419687,-17.707516,1.4508862,-0.49962425,-0.19175345,0.78618914,0.20590134,-8.403648,-1.6903064
1570714892,2.681506,-14.097059,6.4643445,-0.06285252,0.3163932,-0.18216577,-3.8163576,-9.969456,2.2361844
1570714892,4.036624,-4.8362875,-0.08619126,-0.50814664,0.26206306,-0.20134112,-0.7565677,2.4229321,-2.6431987
1570714892,0.6799533,-7.249643,-2.6048915,-0.36539686,0.409074,0.47512242,-4.43885,1.0773908,-5.693412
1570714892,0.6368576,-8.916007,4.4005427,-0.36220095,1.2751604,1.0141627,-4.122815,-0.8714894,0.50757074
1570714892,2.552219,-10.342952,6.967127,-1.1675655,1.1281495,0.50708133,-2.2505496,-3.2273839,4.156334
1570714892,2.1452048,-5.90889,1.5131354,-1.3454701,1.4615874,-0.4516859,-2.2409728,2.6144683,-0.56982
1570714892,2.480393,-7.551312,2.0590134,-1.1462595,2.0634801,-0.28763017,-2.2505496,0.5602432,-1.508347
1570714892,4.960786,-7.9966335,4.855441,-0.742512,1.7588053,0.15872924,0.6703765,0.320823,1.9297266
1570714892,5.66947,-8.825027,1.9632454,-1.0557092,1.2954011,0.119313255,2.0685902,-0.1436521,0.02873042
1570714892,3.8642416,-9.615114,2.0254946,-1.1579778,1.3177723,0.13316211,0.21547815,-1.2354081,-1.5179238
1570714892,3.217807,-7.6135616,3.7110126,-1.1995244,0.8980453,0.12783563,-0.641646,1.0103531,1.1013328
1570714892,3.6343982,-7.9008656,2.2601264,-1.1633042,0.5731298,0.3526133,-0.110133275,0.842759,-0.10534488
1570714892,4.0653543,-8.154651,2.528277,-1.0258809,0.37391922,0.46553475,0.40222588,0.7422025,0.79008657
1570714892,4.4244847,-8.42759,4.6255975,-1.0706234,0.35367858,0.54330146,1.0007763,0.5602432,2.719813
1570714892,3.2465374,-7.1873937,4.5633483,-1.13028,0.79471153,0.60082746,0.009576807,1.9201498,2.9017725
1570714892,1.6089035,-6.7324953,2.954445,-1.0663623,0.771275,0.43037996,-1.436521,2.4756045,1.5275006
1570714892,4.0318356,-7.417237,2.2936451,-0.6114804,0.15766394,0.028763017,1.0486604,1.8387469,1.0486604
1570714892,3.4620156,-10.007763,4.261679,-0.6402435,0.36220095,0.25034478,0.51714754,-0.7134721,3.169923
1570714892,3.442862,-8.523358,5.5880666,-0.40374753,0.6913777,0.24714889,0.59855044,0.80445176,4.582502
1570714892,3.8977604,-5.439626,2.7006595,0.49429777,0.0692443,-0.21412468,1.0726024,3.8881836,1.6328455
1570714892,3.1603463,-5.2624555,1.6998832,1.8738573,-0.380311,-0.37178862,0.51235914,4.1515455,-0.05267244
1570714892,1.0199299,-10.395624,5.4300494,2.6525893,-0.82027864,-1.4147143,-2.1643584,-1.3551182,3.3375173
1570714892,5.2768207,-15.591042,4.429273,2.4619012,-1.854682,-2.7868168,-0.01436521,-5.559336,2.4181437
1570714892,14.341269,-15.658079,-1.316811,1.5308317,-0.53690964,-2.2360582,9.452309,-8.360553,-3.347094
1570714892,7.9008656,-8.183381,-0.9576807,1.7236505,-1.0184239,-0.574195,3.6248214,-1.3934253,-4.2664676
1570714892,4.6351743,-4.5394063,2.2122424,2.3095639,-1.9111427,-0.40587813,-0.11971009,3.0550013,-1.7429788
1570714892,3.122039,-6.50744,5.1906295,1.8940979,-0.5134731,-1.1718266,-1.7621324,1.5370775,0.94331545
1570714892,2.336741,-8.1402855,4.2185836,1.316707,-0.7883197,-1.4008654,-3.4572272,-1.1204864,0.770933
1570714893,3.9552212,-8.724471,1.8100165,1.1430637,-1.3103153,-1.1196271,-2.5187001,-1.9919758,-1.8291701
1570714893,5.3247046,-8.374918,0.545878,1.1633042,-0.7957768,-0.42931467,-1.0534488,-2.4277205,-3.3614593
1570714893,3.2369606,-5.8226986,3.1747115,0.83306223,0.1374233,0.1033338,-2.815581,0.01436521,-1.4748282
1570714893,2.657564,-6.033388,3.3997664,0.29402196,-0.03835069,0.5219955,-3.7972038,-0.05746084,-0.78050977
1570714893,3.2609026,-5.7269306,3.0885203,-0.15020686,-0.18216577,0.9907262,-3.3039982,0.46447513,-1.460463
1570714893,5.291186,-4.5202527,4.003105,-0.5401055,-0.4154658,1.3071194,-1.1348516,1.5945383,-0.2681506
1570714893,8.848969,-4.0462008,4.3766007,-0.818148,-1.0823417,1.5414847,2.1930888,2.8107927,0.47405192
1570714893,11.161768,-5.8562174,5.0182467,-0.7339896,-0.487906,1.3230988,5.6790466,1.7908629,0.91458505
1570714893,8.169016,-7.8146744,9.217676,0.6210681,-0.6231987,-0.11079088,2.6719291,0.14844051,6.1195793
1570714893,8.298303,-6.6606693,1.8626889,0.44422883,-1.1686307,-0.33130735,2.4277205,0.3878607,0.18195933
1570714893,8.106767,-13.713987,-0.61770403,-0.9097636,-0.56673795,0.40800872,3.241749,-4.414908,-4.209007
1570714893,4.606444,-20.87744,4.8267107,0.039415985,0.1374233,0.057526033,-1.283292,-16.103401,1.0726024
1570714893,4.012682,-4.572925,0.50278234,-0.74464256,-0.22584295,-0.03835069,-1.2641385,1.8148049,-0.89064306
1570714893,-1.316811,-8.240842,-1.6424223,0.0021305939,0.03728539,1.1707613,-6.6510925,0.02873042,-4.735731
1570714893,1.0295067,-9.107543,3.3758245,-0.67646354,1.1547819,1.592619,-4.012682,-2.2505496,-0.90021986
1570714893,1.1540052,-8.791509,6.5457473,-0.99392205,1.6405573,1.0887334,-3.7253778,-0.79487497,3.6343982
1570714893,0.93373865,-5.463568,4.8219223,-1.180349,1.797156,-0.12570503,-3.7205894,2.681506,1.9680338
1570714893,3.4045548,-7.16824,2.504335,-0.9715508,1.9281875,-0.61467636,-1.9201498,1.484405,-0.2633622
1570714893,5.659893,-8.063671,2.183512,-1.1419983,1.8919674,-0.03835069,1.1252748,0.14844051,-0.6655881
1570714893,6.172252,-8.90643,4.0414124,-0.91295946,1.5489417,0.30467492,1.7286136,-0.641646,1.2497733
1570714893,4.960786,-8.925584,1.958457,-0.9577019,1.0951252,0.26206306,0.79487497,-0.48841715,-0.81402856
1570714893,4.1276035,-8.738836,3.5577838,-1.3071194,0.63385165,0.1736434,0.08619126,-0.17717093,0.9816227
1570714893,3.7253778,-7.16824,3.4572272,-1.1867408,0.2865649,0.28549957,-0.22505496,1.508347,1.163582
1570714893,4.084508,-7.8529816,2.9496565,-0.9949873,0.07776668,0.73185897,0.2873042,0.9576807,0.91458505
1570714893,3.9935284,-7.656657,3.7732618,-1.004575,0.17044751,0.8021686,0.4213795,1.3024458,1.9967642
1570714893,3.074155,-6.6893997,3.9312792,-1.0589051,0.5475626,0.76168734,-0.24899697,2.4037786,2.3894134
1570714893,1.3072342,-6.4020953,3.5194764,-0.9406572,0.47086126,0.42292288,-1.8339585,2.791639,2.2122424
1570714893,3.2082303,-7.896077,2.0925324,-0.43464115,0.067113705,-0.15127216,0.095768064,1.3263878,0.92416185
1570714893,3.0933087,-9.801862,4.9799395,-0.5198649,0.25993246,0.16405573,-0.023942016,-0.5650316,3.8977604
1570714893,3.466804,-8.619126,6.8426285,-0.22477765,0.39309457,0.14807628,0.7134721,1.283292,5.195418
1570714893,4.7309427,-5.81791,2.882619,0.9353307,-0.3845722,-0.24927948,1.6328455,3.4093432,1.7046716
1570714893,3.3566709,-5.2528787,2.4516625,2.3063679,-0.74038136,-0.32491556,0.4309563,3.98874,0.34476504
1570714893,0.80924016,-12.152967,5.094861,2.9285014,-1.0013791,-1.7279116,-2.7150247,-3.3039982,2.7581203
1570714894,6.5218053,-18.162415,4.8458643,2.3479145,-1.3156418,-3.2118702,0.34955344,-8.863335,3.016694
1570714894,10.13705,-13.79539,-1.0582372,1.3987349,0.025567126,-1.1292148,5.195418,-5.923255,-4.1946416
1570714894,7.393295,-6.9383965,-0.19632454,2.0762637,-1.5510724,-0.5976316,2.2026656,0.6368576,-3.6296098
1570714894,5.3199162,-2.7341783,0.93373865,2.3106291,-2.2861273,-0.47938362,0.4357447,3.6487634,-2.60968
1570714894,3.715801,-5.6407394,5.7604494,2.0208683,-0.25141007,-0.9459837,-1.5227122,2.5713725,1.0342951
1570714894,2.006341,-7.8290396,4.185065,1.2027203,-0.8671517,-1.2155038,-3.7684734,-0.9816227,0.8858546
1570714894,3.2130187,-9.208099,1.661576,0.96302843,-1.172892,-1.0461216,-3.4859576,-2.7581203,-2.327164
1570714894,5.741296,-8.700529,1.3263878,1.0674275,-0.8618252,-0.26525894,-1.1587936,-3.1028855,-2.7102363
1570714894,4.1036615,-5.81791,2.5234885,0.7126837,-0.15446806,0.3781804,-2.078167,0.01436521,-2.0446482
1570714894,3.2273839,-6.3063273,2.992752,0.08202787,-0.060721926,0.73612016,-3.2369606,-0.4357447,-1.2162545
1570714894,3.6822822,-6.033388,3.442862,-0.25141007,-0.14914156,1.1739572,-3.0933087,0.07182605,-1.3263878
1570714894,5.5162406,-4.8267107,3.596091,-0.45914298,-0.4527512,1.4509344,-0.6991069,1.6089035,-0.41180268
1570714894,9.3421755,-3.8546648,3.1986535,-0.84478045,-1.0280116,1.5840966,2.5809495,3.074155,-0.18195933
1570714894,10.754754,-6.2632318,6.895301,-0.58484805,-0.2844343,0.8650211,5.683835,1.484405,2.087744
1570714894,8.470686,-7.6949644,9.179369,0.71161836,-0.74890375,-0.19494934,2.1978772,-0.60333884,6.009446
1570714894,7.2448545,-6.1626754,-0.63206923,0.1736434,-1.1164312,0.0074570784,1.4221559,1.3694834,-1.6041151
1570714894,8.75799,-12.828133,-0.22026655,-0.95024484,-0.39948636,0.60508865,2.8299465,-5.650316,-3.3087866
1570714894,3.8881836,-22.577322,3.6056678,-0.20027582,0.16618632,0.57952154,-1.8243817,-15.198392,0.58897364
1570714894,5.401319,-3.9504328,2.5474305,-0.68498594,-0.13316211,-0.22371235,-0.33997664,3.4380736,-0.37349546
1570714894,0.02873042,-7.091625,-1.8339585,0.04154658,0.09587672,0.68924713,-5.6646814,0.34955344,-4.7070007
1570714894,1.0103531,-9.595961,3.3279405,-0.487906,1.2155038,1.678908,-3.8642416,-2.528277,-0.7422025
1570714894,1.4030021,-9.050082,7.091625,-0.89165354,1.5510724,1.0919293,-3.4476504,-1.0534488,4.1419687
1570714894,1.2258313,-5.21936,4.156334,-1.2559851,1.416845,-0.21838588,-3.4380736,2.9161377,1.3024458
1570714894,2.585738,-7.9248075,1.3263878,-1.191002,1.5308317,-0.49003658,-2.0733786,0.24420857,-1.436521
1570714894,4.333505,-9.059659,2.2697031,-1.2943357,1.9154038,0.13529271,-0.21547815,-0.79966336,-0.4213795
1570714894,4.8602295,-7.8912888,3.4093432,-0.9310695,1.4381509,0.2865649,0.7086837,-0.33518824,2.3080103
1570714895,4.5537715,-8.781932,2.1452048,-1.1164312,1.2847481,0.2428877,0.39264908,-0.2777274,-0.4261679
1570714895,4.5537715,-8.781932,2.1452048,-1.1164312,1.2847481,0.2428877,0.39264908,-0.2777274,-0.4261679
1570714895,4.5394063,-9.337387,2.9496565,-1.2101773,1.3422742,0.23756121,0.39264908,-0.2777274,-0.4261679
1570714895,4.5394063,-9.337387,2.9496565,-1.2101773,1.3422742,0.23756121,0.39264908,-0.2777274,-0.4261679
1570714895,4.5394063,-9.337387,2.9496565,-1.2101773,1.3422742,0.23756121,0.39264908,-0.2777274,-0.4261679
1570714895,4.5394063,-9.337387,2.9496565,-1.2101773,1.3422742,0.23756121,0.39264908,-0.2777274,-0.4261679
1570714895,4.5394063,-9.337387,2.9496565,-1.2101773,1.3422742,0.23756121,0.39264908,-0.2777274,-0.4261679
1570714895,4.5394063,-9.337387,2.9496565,-1.2101773,1.3422742,0.23756121,0.39264908,-0.2777274,-0.4261679
1570714895,4.5394063,-9.337387,2.9496565,-1.2101773,1.3422742,0.23756121,0.39264908,-0.2777274,-0.4261679
1570714895,4.280833,-7.704541,2.5139117,-1.4051267,0.83306223,0.053264845,0.34955344,0.60812724,-0.14844051
1570714895,4.6112323,-7.398083,2.7102363,-1.0770152,0.36220095,0.26738954,0.45968673,1.436521,0.39743748
1570714895,5.1235914,-8.925584,2.2505496,-0.9619631,0.17044751,0.6796594,1.8148049,0.047884032,0.770933
1570714895,4.261679,-7.4363904,3.715801,-1.0876682,0.3781804,0.9023065,0.8619126,1.091756,0.9911995
1570714895,2.9783869,-6.7133417,4.0414124,-1.13028,0.61787224,0.6700718,-0.019153614,2.0111294,3.2992098
1570714895,1.8052281,-7.2448545,3.016694,-0.8607599,0.61467636,0.2418224,-1.4077905,2.4229321,2.0446482
1570714895,3.8115692,-8.810662,2.4133554,-0.53371376,0.19601464,-0.01065297,0.45489833,0.7086837,1.3263878
1570714895,3.0119057,-8.169016,4.381389,-0.44103295,0.5102772,0.19388404,-0.05746084,0.5650316,3.122039
1570714895,4.3143516,-7.6470804,5.602432,0.022371236,0.24075711,0.0010652969,1.3790601,1.2497733,5.3725886
1570714895,4.7644615,-5.3342814,1.8243817,1.2815522,-0.5177343,-0.18642697,1.7764976,3.763685,1.340753
1570714895,1.3934253,-6.1530986,1.733402,2.8006656,-0.7265325,-0.25886714,-0.8571242,4.0797195,-0.10055647
1570714895,0.06703765,-12.952631,4.951209,2.9785702,-0.95450604,-2.0432396,-3.3183637,-2.719813,2.8060043
1570714895,8.925584,-19.426552,2.7964275,2.2104912,-1.3358823,-3.465411,2.4229321,-10.864887,1.8722657
1570714895,10.424355,-13.656527,-0.48362875,1.4157796,0.33130735,-1.1590431,6.799533,-7.2113357,-4.1706996
1570714895,8.643068,-8.020576,-0.6607997,2.0751984,-1.2325486,-0.4506206,3.4332852,-0.47884035,-4.1515455
1570714895,6.05733,-2.7629087,0.31124622,2.4512482,-2.0965044,-0.46766534,0.545878,4.453215,-3.3901896
1570714895,3.6152446,-5.2049947,5.4922986,1.7524135,-0.37498453,-0.9012412,-2.1691468,1.6519991,1.541866
1570714895,2.0398598,-8.350976,4.4723687,1.0770152,-0.8469111,-1.2037855,-4.027047,-1.8483237,0.33997664
1570714895,2.930503,-10.189722,1.8579005,0.75209963,-1.1025823,-1.1100394,-3.5003228,-4.012682,-2.2218192
1570714895,5.3007627,-8.7532015,1.316811,0.9289389,-0.6125457,-0.32598087,-1.3551182,-2.815581,-2.7581203
1570714895,3.821146,-6.315904,2.0111294,0.5997622,-0.19707993,0.35900506,-2.8634653,-0.45489833,-2.1212628
1570714895,3.323152,-6.0285997,3.064578,0.064983115,0.094811425,0.624264,-3.265691,-0.095768064,-1.115698
1570714895,3.620033,-5.5497594,3.1555579,-0.24821419,0.18429637,0.88419646,-3.0023289,0.34955344,-0.9816227
1570714895,6.4020953,-4.8745947,3.643975,-0.595501,-0.14914156,1.2623769,0.18674773,1.508347,-0.45010993
1570714895,9.514558,-3.8881836,4.271256,-0.46446946,-0.8053645,1.3614495,3.4955344,2.8060043,0.37828386
1570714895,10.496181,-4.414908,5.0374002,-0.28549957,-0.7307937,1.2293527,4.654328,2.5570073,1.364695
1570714895,7.7332716,-6.1530986,8.63828,0.30467492,-0.5859133,0.32171968,2.2026656,1.4987702,4.4436383
1570714895,8.470686,-5.257667,7.2544312,0.800038,-1.374233,-0.19494934,2.6623523,1.0630256,4.783615
1570714895,7.9631147,-6.8091097,-1.2210429,-0.6540923,-1.2900746,0.4516859,1.9967642,1.4700398,-4.261679
1570714895,4.003105,-23.96117,3.1555579,-0.17151281,-0.057526033,1.1835449,-1.8339585,-16.70674,0.076614454
1570714895,4.960786,-12.976573,6.909666,-0.63811284,-0.26845482,-0.058591332,-1.7764976,-9.576807,2.0638018
1570714895,2.7964275,-2.7868507,-1.13964,-0.30893612,-0.12463974,-0.07776668,-1.4030021,4.6782703,-2.1212628
1570714896,-0.80924016,-9.260772,-1.6472107,0.04261188,0.6700718,0.95024484,-6.789956,-0.58418524,-5.161899
1570714896,0.8858546,-9.892841,3.7732618,-0.74890375,1.3699719,1.503134,-4.477157,-2.9017725,-0.2777274
1570714896,2.7341783,-7.1155677,6.5361705,-0.8064298,1.2815522,0.63811284,-1.9249382,0.01436521,4.10845
1570714896,1.9680338,-6.655881,2.6910827,-1.0897988,1.7588053,-0.3078708,-2.9017725,2.0398598,0.79487497
1570714896,3.6774938,-8.844181,0.81881696,-1.0642316,1.6128596,-0.15872924,-1.6376339,-1.2354081,-2.1308396
1570714896,5.5641246,-8.173804,3.5242648,-1.080211,1.6373614,0.20134112,0.7757214,0.076614454,-0.019153614
1570714896,5.257667,-7.3406224,3.4045548,-0.7286631,1.2293527,0.29402196,1.1540052,1.0295067,1.3263878
1570714896,3.7062242,-9.222465,2.7868507,-1.0919293,1.11217,0.33237264,-0.19632454,-0.7422025,0.20590134
1570714896,3.8881836,-8.805874,3.3662477,-1.4360203,0.6988348,0.2098635,-0.14844051,-0.5793968,1.733402
1570714896,4.0653543,-7.9104424,1.7142484,-1.180349,0.30360964,0.4175964,0.7422025,0.8714894,0.59855044
1570714896,4.663905,-8.360553,3.107674,-0.9768773,0.31106672,0.6626147,0.24420857,0.641646,1.0486604
1570714896,3.5242648,-7.6949644,4.2904096,-0.99392205,0.41440052,0.6945736,0.24899697,1.1827357,2.0925324
1570714896,2.8538885,-7.517793,3.8833952,-1.0631664,0.47086126,0.527322,-0.23463176,1.6280571,2.6048915
1570714896,2.2218192,-7.422025,2.5187001,-0.9726161,0.351548,0.36007038,-1.0199299,1.733402,1.1875241
1570714896,3.5625722,-7.9104424,2.1739352,-0.6200028,0.033024207,0.089484945,0.18674773,1.0773908,1.4700398
1570714896,2.7485435,-8.724471,3.8833952,-0.5539544,0.16725162,0.25354066,-0.31124622,0.7134721,2.1164744
1570714896,3.0214825,-8.829816,4.5920787,-0.113986775,0.18749227,0.33130735,-0.19153613,-0.7613561,4.0797195
1570714896,4.156334,-7.651869,2.0973208,0.7339896,-0.16085984,0.022371236,1.1540052,1.6280571,1.1013328
1570714896,2.930503,-7.493851,2.456451,2.3734815,-0.67539823,-0.10013791,0.33039984,1.6807296,1.0247183
1570714896,1.115698,-10.151415,3.3997664,2.8390164,-0.54543203,-0.85543346,-2.0494366,-1.1013328,1.3215994
1570714896,3.1794999,-14.777013,3.5003228,2.2158177,-1.1558472,-2.9498072,-0.56982,-5.7987566,0.6799533
1570714896,11.070788,-13.326127,-0.23463176,1.5414847,-1.3156418,-2.625957,6.459556,-5.2049947,-3.2273839
1570714896,8.39886,-9.074024,-0.78529817,1.5297664,-0.3494174,-0.9790079,3.3662477,-1.3024458,-4.0174704
1570714896,6.0956373,-6.646304,1.4460979,2.0006278,-1.1611737,-0.57099915,0.81402856,0.82360536,-2.078167
1570714896,3.083732,-5.9807158,3.667917,1.9079468,-0.63491696,-0.9140248,-2.4708161,1.1492168,-0.12928689
1570714896,2.0398598,-7.6853876,4.817134,1.2751604,-0.3462215,-1.3135111,-3.7972038,-0.93373865,0.7469909
1570714896,3.98874,-8.892065,2.777274,0.9118942,-1.0983212,-1.2133732,-2.207454,-2.504335,-1.340753
1570714896,6.603208,-9.495404,0.7565677,0.7851238,-0.7595567,-0.84584576,-0.15322891,-3.4332852,-2.944868
1570714896,4.8602295,-6.421249,1.982399,0.64876586,0.16831692,-0.13529271,-1.7046716,-0.48362875,-2.2361844
1570714896,3.2944214,-6.1866174,3.2561142,0.24927948,-0.03089361,0.26738954,-3.217807,-0.24420857,-1.0342951
1570714896,3.122039,-5.363012,2.834735,-0.031958908,-0.026632423,0.6274599,-3.2561142,0.5363012,-1.3503298
1570714896,4.1946416,-4.6495395,3.7924154,-0.33876443,-0.026632423,1.0684928,-2.3463178,1.2689269,-0.545878
1570714896,7.513005,-4.1802764,4.6112323,-0.5901745,-0.40481284,1.3199029,1.4891934,2.3942018,0.521936
1570714897,10.414778,-4.606444,4.309563,-0.6498311,-0.81495214,1.1952631,3.8594532,2.3127987,0.5315128
1570714897,8.580819,-6.0621185,6.7133417,-0.4570124,-0.33450323,0.5401055,2.8491,1.0247183,3.0933087
1570714897,7.762002,-7.441179,8.360553,0.5539544,-0.5358444,-0.16192514,1.7429788,0.0,4.8219223
1570714897,8.221688,-6.114791,1.9967642,0.28549957,-1.0482522,-0.1043991,2.5953147,0.92416185,0.24420857
1570714897,7.5082164,-11.104307,-0.6847417,-1.2123079,-0.5592809,0.5614115,1.8052281,-2.6431987,-4.2521024
1570714897,3.940856,-21.71541,3.845088,-0.22690825,0.23969181,0.703096,-1.6759412,-14.283808,0.5315128
1570714897,6.742072,-4.912902,3.3662477,-0.78299326,-0.18110047,-0.39629045,0.79487497,0.7038953,1.4748282
1570714897,1.9057846,-5.7269306,-1.7812861,-0.37604982,0.47299185,0.025567126,-2.8921957,2.4468741,-4.477157
1570714897,0.78050977,-11.089942,0.5506664,-0.19175345,0.28123838,1.3294905,-4.9703627,-3.3854012,-3.5051112
1570714897,1.8195933,-9.165004,5.995081,-0.6903124,1.3731678,1.395539,-3.6008794,-1.3790601,1.8914193
1570714897,0.91458505,-6.3685765,4.405331,-1.0354686,1.2442669,0.33556855,-3.9839516,0.8762778,2.3654714
1570714897,2.3511062,-7.4268136,3.2848446,-0.9715508,1.7034098,-0.4506206,-2.6671407,0.9720459,0.92416185
1570714897,4.501099,-7.943961,1.6280571,-0.9033718,1.4786321,-0.15872924,-0.6703765,0.272939,-1.7381904
1570714897,5.861006,-8.6334915,3.6008794,-0.8522375,1.4125837,0.2087982,1.13964,-0.45489833,0.8571242
1570714897,5.185841,-7.5704656,1.4939818,-0.61041516,0.89165354,0.30041373,1.2689269,0.4309563,0.35434186
1570714897,4.3143516,-8.772355,3.1364043,-0.96089786,0.87460876,0.25886714,0.10055647,-0.37828386,-0.320823
1570714897,4.486734,-7.493851,3.2513258,-1.1856755,0.49642837,0.23862651,0.15801731,0.39264908,0.770933
1570714897,4.501099,-7.843405,2.7724855,-1.0088362,0.25460598,0.46020827,0.7182605,0.94331545,0.7422025
1570714897,4.280833,-8.178593,2.2936451,-0.85436815,0.031958908,0.70629185,0.39743748,0.5554548,0.10055647
1570714897,3.466804,-8.1402855,3.9743748,-0.94278777,0.20240642,0.85330284,0.24899697,0.81402856,1.757344
1570714897,2.1212628,-7.632715,4.673482,-1.0173585,0.47831833,0.77340555,-1.3024458,1.388637,2.920926
1570714897,1.388637,-7.8529816,2.8874073,-0.7350549,0.31106672,0.33024204,-1.8626889,1.412579,2.5761611
1570714897,2.303222,-9.394848,2.906561,-0.62639457,0.40481284,0.08096257,-0.8762778,-0.22026655,1.508347
1570714897,3.5290532,-9.14585,4.4963107,-0.5816521,0.37072334,0.09587672,0.37349546,0.05267244,3.2321723
1570714897,4.4675803,-8.384495,5.5641246,-0.23010413,0.29934844,0.08628905,1.3551182,0.8379706,4.3718123
1570714897,5.1762643,-7.273585,3.3375173,0.7329243,-0.39629045,-0.017044751,2.0638018,1.934515,2.0494366
1570714897,3.6631286,-6.5361705,3.2752678,2.0997002,-0.91722065,-0.0692443,0.51235914,2.6048915,1.6328455
1570714897,0.770933,-9.591172,4.501099,2.5631044,-0.66794115,-1.2229608,-2.5809495,-0.6512229,2.2601264
1570714897,2.1260512,-13.575124,3.083732,2.1050267,-1.1686307,-3.0254433,-1.9153614,-5.070919,0.33518824
1570714897,10.170568,-14.930242,0.11971009,1.6032718,-0.839454,-2.4437912,5.3007627,-6.9767036,-2.920926
1570714897,9.639056,-10.793061,0.16759412,1.7673277,-0.243953,-0.5869786,4.4675803,-3.1747115,-3.2082303
1570714897,6.861782,-5.6982,0.7757214,2.2861273,-1.6331002,-0.30041373,1.4891934,1.6328455,-2.9017725
1570714897,3.8259344,-3.1842883,3.3423057,1.9377751,-0.96835494,-0.7648832,-1.8148049,3.8115692,-0.56982
1570714898,2.27928,-7.0964136,5.7125654,1.4296285,-0.8341275,-1.0929947,-3.6391866,-0.45968673,1.5753847
1570714898,3.2992098,-9.040505,2.3080103,0.8852618,-1.2922052,-1.0631664,-2.9879637,-2.743755,-1.8148049
1570714898,4.975151,-9.524135,1.0486604,0.9395919,-0.7169448,-0.62639457,-1.8387469,-3.5242648,-3.0789435
1570714898,4.309563,-6.6175733,2.0733786,0.7542302,-0.22477765,0.12890093,-2.303222,-0.7182605,-2.1260512
1570714898,3.3997664,-6.8522053,3.0310593,0.3440909,-0.1054644,0.49962425,-3.169923,-1.2162545,-1.2066777
1570714898,3.5290532,-6.291962,2.9735985,-0.1384886,0.02450183,0.9406572,-2.8203697,-0.22505496,-1.2785037
1570714898,5.0278234,-5.7029886,3.3518825,-0.49642837,-0.09694202,1.2463974,-1.685518,0.2681506,-0.9720459
1570714898,7.819463,-4.4675803,3.8163576,-0.6583535,-0.42505348,1.460522,1.2306197,1.9009962,-0.29209262
1570714898,10.850522,-4.209007,4.8985367,-0.55075854,-0.5901745,1.2954011,4.807557,2.7150247,0.7134721
1570714898,7.493851,-5.616797,7.642292,-0.08096257,-0.33663383,0.50495076,2.4995465,1.4891934,3.323152
1570714898,8.212111,-8.073248,7.441179,0.8351928,-0.8564987,-0.28549957,2.2026656,-1.1252748,4.285621
1570714898,8.1881695,-6.2967505,0.1388637,-0.22797355,-1.2005897,0.116117366,2.3989902,1.5131354,-2.2218192
1570714898,6.991069,-15.198392,2.4229321,-0.6029581,-0.42718408,0.8053645,2.231396,-5.8801594,-1.9919758
1570714898,4.237737,-16.94616,4.510676,-0.03835069,0.09800732,0.1384886,-1.9057846,-12.6222315,-0.37349546
1570714898,4.582502,-3.9360676,-0.5746084,-0.60189277,-0.29721785,-0.08522376,-0.2825158,2.9257145,-1.661576
1570714898,-1.1444284,-7.469909,-1.8962077,0.15127216,0.25354066,0.91295946,-6.4739213,0.7374141,-4.912902
1570714898,1.2976574,-10.46745,3.53863,-0.3813763,1.1462595,1.3976696,-4.132392,-3.016694,-0.9768343
1570714898,2.920926,-9.437943,6.459556,-0.98007315,1.0929947,0.62639457,-2.087744,-2.183512,3.9695864
1570714898,1.8531121,-6.143522,3.53863,-1.3294905,1.5478765,-0.23010413,-3.0119057,2.1068976,0.7661445
1570714898,2.3080103,-8.829816,0.8379706,-1.0482522,1.6139249,-0.12357444,-2.6192567,-0.7661445,-1.7046716
1570714898,4.5920787,-7.9870567,3.4572272,-0.9406572,1.6991487,0.14274979,-0.2681506,0.21547815,-0.36391866
1570714898,6.019023,-7.699753,4.0078936,-0.7542302,1.2059162,0.1747087,1.685518,0.46447513,1.7621324
1570714898,4.5154643,-8.916007,1.7238252,-0.91615534,1.2176344,0.23436533,0.272939,-0.56982,-1.2066777
1570714898,3.8355112,-8.748413,2.882619,-1.0897988,0.7691444,0.08522376,-0.272939,-0.29688102,0.076614454
1570714898,3.8355112,-7.9152308,2.825158,-1.0780805,0.47299185,0.24714889,-0.18195933,0.641646,0.22984336
1570714898,4.3239284,-8.0924015,2.7581203,-0.82880104,0.28869548,0.5017549,0.62249243,0.58418524,0.35913026
1570714898,4.510676,-8.231265,3.217807,-0.85756403,0.15127216,0.53690964,0.78529817,0.5650316,1.0103531
1570714898,3.8881836,-7.7907324,2.4229321,-1.0631664,0.18429637,0.62213343,0.33518824,1.1348516,0.45489833
1570714898,2.1260512,-7.422025,4.879383,-1.1270841,0.6210681,0.63491696,-1.2162545,1.6328455,3.1603463
1570714898,1.7477672,-7.565677,2.791639,-0.9278736,0.41653112,0.29934844,-1.4413095,1.5849615,1.3024458
1570714898,3.916914,-8.039729,2.633622,-0.71374893,0.23649593,0.025567126,0.770933,1.1540052,1.3263878
1570714898,2.681506,-9.868899,5.2863975,-0.71481425,0.6796594,0.33663383,-0.39264908,-0.62728083,4.1371803
1570714898,3.5625722,-8.087613,5.6982,-0.36646214,0.6114804,0.22690825,0.60333884,1.1971009,4.6255975
1570714898,4.8267107,-6.5218053,1.9201498,0.8692823,-0.12890093,-0.18642697,1.8579005,2.7485435,0.7422025
1570714899,2.542642,-6.7468605,2.6240451,2.2190135,-0.46979594,-0.41226992,-0.5267244,2.4181437,0.9959879
1570714899,1.4700398,-9.840169,3.7253778,2.6962667,-0.83306223,-1.5223093,-1.8914193,-0.90979666,1.4652514
1570714899,5.66947,-15.538369,4.122815,2.073068,-1.0258809,-3.1458218,1.5562311,-7.07726,1.3359646
1570714899,12.0093155,-14.5088625,-0.7278373,1.266638,-0.4857754,-1.904751,7.144298,-6.5505357,-3.763685
1570714899,7.666234,-8.101978,0.023942016,1.7960906,-0.9449184,-0.74464256,2.5091233,-0.44532153,-3.289633
1570714899,5.2480903,-4.6016555,1.2545617,2.3447185,-1.7715888,-0.39948636,-0.18195933,2.7485435,-2.2888567
1570714899,4.2664676,-5.401319,3.916914,1.9697341,-0.46766534,-0.9406572,-1.067814,2.360683,-0.37349546
1570714899,2.7341783,-7.819463,4.572925,1.1707613,-0.68924713,-1.2559851,-3.2465374,-1.2018893,0.49320555
1570714899,3.5003228,-8.767567,2.327164,0.9353307,-1.2740952,-1.1185617,-2.920926,-2.2218192,-1.3838485
1570714899,5.315128,-9.064447,0.7134721,0.95876724,-0.7670138,-0.46553475,-1.412579,-3.1411927,-3.3183637
1570714899,4.3047748,-6.5505357,2.6144683,0.71055305,-0.06178722,0.07883197,-2.0111294,-1.115698,-1.8339585
1570714899,3.2800562,-6.8043213,2.9735985,0.22477765,-0.12357444,0.46340418,-3.323152,-0.9911995,-1.0965444
1570714899,3.7253778,-6.3302693,2.8060043,-0.17044751,-0.08522376,0.84478045,-2.9113493,-0.41180268,-1.3838485
1570714899,5.60722,-5.2145715,3.1794999,-0.5283873,-0.20134112,1.1462595,-1.1348516,0.7565677,-0.89543146
1570714899,7.8290396,-4.1611223,3.9025488,-0.487906,-0.41866168,1.2954011,1.2689269,2.3750482,-0.019153614
1570714899,10.362105,-5.315128,5.0661306,-0.48151422,-0.5113425,1.1846102,4.1706996,1.9728222,0.9672575
1570714899,8.09719,-7.0820484,7.144298,0.09800732,-0.37391922,0.3813763,2.873042,-0.2633622,3.0550013
1570714899,8.202535,-8.197746,5.731719,0.47086126,-0.80323386,-0.043677174,2.1691468,-0.92416185,2.705448
1570714899,10.146626,-10.673351,2.1212628,-0.30680552,-1.0184239,-0.012783563,3.7732618,-2.7246015,-1.292869
1570714899,6.196194,-14.571112,3.0214825,-0.42718408,-1.0290768,-0.05219955,1.2785037,-7.752425,0.29209262
1570714899,3.2561142,-8.159439,3.7684734,-0.40587813,-0.26099774,0.03835069,-2.719813,-2.6719291,0.5363012
1570714899,1.3455414,-5.104438,-0.9672575,-0.3781804,0.5347791,0.40268224,-3.8833952,2.4133554,-3.5242648
1570714899,-0.05746084,-9.141062,-0.6751649,-0.07244019,0.4836448,1.3422742,-6.220136,-1.5035586,-3.7205894
1570714899,4.462792,-10.314221,5.434838,-0.67752886,1.062101,0.96409374,-1.4317327,-2.6384103,1.8387469
1570714899,4.0653543,-9.68694,4.0557775,-1.0844723,0.70735717,0.50814664,-1.1348516,-1.9153614,1.1013328
1570714899,1.2210429,-6.766014,3.1028855,-1.3571883,1.2900746,0.07776668,-3.8594532,1.1444284,0.32561144
1570714899,2.4181437,-6.9479733,3.2225955,-0.9353307,1.660798,0.05539544,-3.3614593,0.78529817,0.20111294
1570714899,6.042965,-7.038953,3.4763808,-0.7084225,1.3976696,0.19707993,0.58897364,1.2114661,0.58418524
1570714899,7.249643,-8.432379,3.0885203,-0.67646354,1.0919293,0.26206306,2.4851813,-0.24420857,0.30166942
1570714899,4.213795,-9.375694,1.7764976,-0.8096257,0.9118942,0.28549957,-0.25378537,-1.0869676,-0.9576807
1570714899,3.3375173,-7.776367,4.0797195,-0.9779426,0.6210681,0.19068815,-1.0151415,0.61291564,1.4652514
1570714899,4.10845,-7.335834,2.9975405,-0.9726161,0.3824416,0.35474387,-0.1436521,1.163582,0.58897364
1570714899,5.5497594,-8.279149,2.96881,-0.8042992,0.22797355,0.5933704,1.436521,0.33997664,0.7469909
1570714900,5.592855,-8.901642,3.4284968,-0.9577019,0.060721926,0.7670138,1.2976574,-0.1388637,1.4221559
1570714900,3.4476504,-7.575254,4.9464207,-1.0301422,0.25886714,0.8810006,-0.24899697,1.3359646,3.2034419
1570714900,0.81402856,-7.120356,4.0462008,-1.0130974,0.44422883,0.6413088,-2.657564,1.9249382,2.5330653
1570714900,1.8722657,-8.169016,2.791639,-0.57739097,0.419727,0.16725162,-1.4700398,0.94810385,1.4460979
1570714900,4.3718123,-8.959103,3.8738184,-0.43357584,0.09374613,-0.026632423,1.0247183,0.16759412,2.60968
1570714900,4.209007,-8.738836,5.6646814,-0.089484945,0.14594568,0.18962285,0.8858546,0.40222588,4.4244847
1570714900,4.620809,-7.225701,4.8123455,0.5496932,-0.12570503,0.10866029,1.3359646,1.910573,3.4572272
1570714900,3.5194764,-5.449203,2.633622,1.4946116,-0.5944357,0.028763017,0.5363012,3.5865142,1.6519991
1570714900,0.6847417,-8.66701,3.2848446,2.575888,-0.5582156,-0.9140248,-2.7485435,0.24899697,1.0869676
1570714900,1.2018893,-14.398729,2.906561,2.404375,-0.975812,-2.4704237,-2.9975405,-4.367024,0.60812724
1570714900,10.668563,-16.43859,1.0486604,1.5223093,-0.52519137,-2.43953,5.8801594,-8.470686,-2.078167
1570714900,8.78672,-10.620679,0.25857377,1.6480143,0.15766394,-0.61361104,3.7014358,-2.96881,-3.1794999
1570714900,7.493851,-6.603208,1.1683705,2.1114185,-1.324164,-0.47938362,2.6767175,0.22505496,-2.7102363
1570714900,4.4436383,-3.323152,1.4700398,1.9473628,-1.3539925,-0.61467636,-0.7134721,3.8019924,-2.9400797
1570714900,3.6104562,-6.2967505,5.094861,1.3497312,-0.33130735,-1.1569124,-2.0446482,1.0390835,0.6847417
1570714900,3.289633,-8.121132,3.1890767,0.8671517,-1.062101,-1.2602463,-2.7485435,-1.3551182,-0.5315128
1570714900,4.5058875,-9.102755,1.8866309,0.7542302,-0.70735717,-0.85330284,-2.0398598,-3.0454245,-2.135628
1570714900,4.5920787,-7.350199,1.6472107,0.81495214,-0.32811147,-0.11824796,-1.6998832,-1.934515,-2.6767175
1570714900,3.323152,-6.6415157,2.7389667,0.40800872,-0.19388404,0.3824416,-3.2130187,-0.91937345,-1.6711528
1570714900,3.1555579,-6.1195793,3.0454245,-0.022371236,-0.028763017,0.75742614,-3.323152,-0.22984336,-1.3120226
1570714900,4.0797195,-5.386954,3.964798,-0.24821419,0.01384886,1.1824796,-2.5474305,0.5315128,-0.37828386
1570714900,6.9958572,-4.5681367,4.213795,-0.4495553,-0.25460598,1.4200408,0.2873042,1.7956513,-0.090979666
1570714900,11.540052,-5.5737014,4.510676,-0.5923051,-0.85862935,1.3305559,4.6782703,1.4700398,0.49799395
1570714900,9.768343,-5.616797,6.397307,-0.39415985,-0.61787224,0.63917816,5.046977,0.79966336,1.7860745
1570714900,8.231265,-7.005434,7.541735,0.5486279,-0.83306223,-0.16405573,2.054225,0.21068975,4.501099
1570714900,8.762778,-8.542512,0.8283938,-0.053264845,-1.1036476,-0.08309316,2.7964275,-0.6464345,-2.2170308
1570714900,6.3685765,-16.572664,2.1164744,-0.6594188,-0.4431635,0.5177343,1.7142484,-7.431602,-1.8195933
1570714900,3.8786068,-15.8544035,4.4580035,0.01065297,-0.2077329,0.3398297,-2.0446482,-8.700529,1.3120226
1570714900,3.7541082,-4.8362875,0.5793968,-0.78299326,0.27165073,-0.2056023,-1.7286136,2.1787236,-1.6089035
1570714900,-0.22026655,-6.4882865,-2.6001031,-0.13103153,0.4911019,0.37498453,-6.133945,0.7374141,-5.5880666
1570714900,2.1164744,-9.787497,3.1507695,-0.063917816,0.68179005,1.3944737,-4.4101195,-2.4947581,-1.163582
1570714900,3.2992098,-9.457097,5.851429,-0.65622294,1.298597,0.9523755,-1.757344,-2.0829554,2.7150247
1570714900,1.6232687,-7.0820484,2.8538885,-1.1952631,1.0567746,0.16618632,-3.3997664,0.7326257,-0.2681506
1570714901,1.4748282,-7.881712,3.0310593,-1.0961906,1.7843723,-0.21518998,-3.41892,0.02873042,-0.05746084
1570714901,3.8259344,-7.6470804,1.3024458,-1.0280116,1.7769153,-0.063917816,-1.5562311,-0.110133275,-1.3455414
1570714901,5.8083334,-8.360553,4.357447,-0.91828597,1.6916915,0.16299044,1.2306197,-0.25857377,1.2593501
1570714901,5.0517654,-8.322245,3.289633,-0.8735435,1.3305559,0.11505207,0.641646,-0.11971009,0.20111294
1570714901,3.3854012,-8.475474,3.7828386,-1.1696961,1.1952631,0.08096257,-0.8714894,-0.16280572,0.79008657
1570714901,3.8977604,-7.666234,3.763685,-1.1174965,0.6125457,0.14807628,-0.2633622,0.7565677,0.9576807
1570714901,4.8458643,-7.9966335,2.6384103,-0.92574304,0.32598087,0.3920293,0.79008657,0.545878,0.033518825
1570714901,4.912902,-8.868123,2.5378537,-0.975812,0.24608359,0.78725445,1.0486604,-0.17717093,0.1388637
1570714901,3.691859,-8.24563,4.6160207,-1.1973938,0.409074,0.9672896,0.08619126,0.61770403,2.4708161
1570714901,2.4133554,-6.4643445,4.4723687,-1.3497312,0.73185897,0.760622,-1.1827357,2.566584,2.6144683
1570714901,1.685518,-7.1826053,1.9009962,-0.87886995,0.3483521,0.13103153,-1.5131354,1.9440918,0.29688102
1570714901,3.7780502,-9.131485,2.384625,-0.50068957,-0.0063917814,-0.12890093,0.3878607,0.5267244,0.44532153
1570714901,2.72939,-9.916783,4.582502,-0.60934985,0.31958908,0.22477765,-0.30645782,-0.7230489,2.930503
1570714901,3.0071173,-7.9008656,4.2185836,-0.039415985,0.34089503,0.19707993,-0.08140286,1.316811,2.930503
1570714901,4.3287168,-6.0716953,2.5234885,0.98966086,-0.11824796,-0.11292148,1.043872,2.743755,1.3215994
1570714901,2.480393,-6.579266,2.255338,2.4192894,-0.7222713,-0.30467492,-0.0047884034,3.0119057,1.3838485
1570714901,1.3359646,-8.983045,5.1666875,2.7655108,-0.82880104,-1.5809007,-2.1930888,0.51235914,2.3463178
1570714901,4.673482,-15.787366,3.217807,2.1103532,-1.2687687,-3.5218716,-0.94331545,-6.081272,0.8475474
1570714901,12.914324,-14.628572,-0.10534488,1.4029961,-0.19494934,-2.0741332,7.589619,-7.833828,-3.3423057
1570714901,9.696517,-8.724471,-0.58418524,1.7769153,-0.71055305,-0.4548818,4.644751,-2.2122424,-4.209007
1570714901,6.066907,-4.1132383,1.4173675,2.5886714,-1.7002139,-0.41013932,1.2162545,2.432509,-2.72939
1570714901,3.6343982,-5.9184666,5.133168,1.804613,-0.51240784,-1.0173585,-1.6328455,1.6089035,-0.08140286
1570714901,2.5713725,-7.52737,4.8219223,1.1494554,-0.886327,-1.1878061,-3.6870706,-0.9720459,1.0247183
1570714901,4.3526587,-8.700529,2.0015526,0.8724782,-1.1941979,-1.1079088,-2.3942018,-2.552219,-1.8914193
1570714901,5.731719,-8.259995,1.0582372,0.9704855,-0.5997622,-0.4112046,-1.0295067,-2.8538885,-3.2130187
1570714901,3.6583402,-6.727707,2.7724855,0.61361104,-0.15340276,0.18110047,-2.9161377,-0.6703765,-1.8579005
1570714901,3.3806129,-5.7843914,3.3135753,0.14594568,-0.16938221,0.4889713,-3.3375173,-0.33518824,-1.1492168
1570714901,3.7062242,-5.7748146,3.1890767,-0.16512102,-0.1395539,0.95663667,-3.145981,-0.02873042,-1.0726024
1570714901,5.746084,-5.161899,3.1986535,-0.6274599,-0.23862651,1.3721025,-1.1683705,0.59376204,-1.067814
1570714901,9.227253,-4.271256,3.691859,-0.6988348,-0.39629045,1.3646454,2.2984335,2.0590134,-0.545878
1570714901,10.730812,-4.5154643,5.841852,-0.46766534,-0.33876443,1.0269462,4.6591167,2.1404164,1.9632454
1570714901,7.1730285,-5.865794,7.273585,0.33663383,-0.6168069,0.37391922,1.0965444,1.4221559,3.6152446
1570714901,7.8290396,-6.1100025,5.0613422,0.692443,-1.0791458,-0.02450183,1.733402,0.08619126,1.9393034
1570714901,8.298303,-7.699753,0.11492168,-0.56993383,-0.7595567,0.4506206,1.7812861,-0.009576807,-2.9113493
1570714902,5.8466406,-19.16319,4.6782703,-0.39309457,-0.4133352,1.0706234,0.4261679,-10.299856,1.6567876
1570714902,6.8761473,-11.654974,6.909666,-0.5784562,-0.19281875,-0.21518998,0.6751649,-7.7093296,2.7246015
1570714902,2.3702598,-3.1268275,-1.1109096,-0.4516859,0.059656627,-0.07350549,-2.3558946,4.1802764,-2.5905263
1570714902,-0.6703765,-7.0102224,-2.6384103,0.14807628,0.70948774,0.8522375,-6.5505357,0.20590134,-5.722142
1570714902,2.6001031,-9.255983,3.916914,-0.25567126,1.1356065,1.3646454,-2.906561,-1.8148049,0.6751649
1570714902,4.654328,-10.084377,5.7029886,-0.71055305,0.81282157,0.8319969,-0.48362875,-2.4133554,2.3989902
1570714902,2.1260512,-7.216124,3.41892,-1.198459,1.11217,0.13209683,-2.5905263,0.36870706,0.24899697
1570714902,0.94810385,-8.303091,1.5753847,-1.1004517,1.6725162,-0.10013791,-3.8977604,-0.38307226,-1.5801731
1570714902,3.8546648,-6.3925185,3.6248214,-0.88952297,1.6661245,0.070309594,-0.8331822,1.6184803,0.46447513
1570714902,6.1770406,-8.336611,3.7349546,-0.6881818,1.3635801,0.1747087,1.6567876,-0.23463176,0.545878
1570714902,4.0797195,-9.945514,2.743755,-0.8937841,1.4232367,0.19814523,-0.24899697,-1.7381904,-0.4309563
1570714902,3.9839516,-8.0924015,4.271256,-1.180349,1.0482522,-0.06178722,-0.22984336,0.21068975,1.2018893
1570714902,4.5920787,-7.536947,3.2321723,-1.1547819,0.6455699,0.11824796,0.21547815,0.9816227,-0.10534488
1570714902,4.8602295,-8.365341,2.9879637,-0.986465,0.5113425,0.5496932,0.8571242,0.18195933,0.32561144
1570714902,5.0996494,-8.662222,4.146757,-1.0791458,0.41440052,0.74996907,1.1683705,0.019153614,-0.07182605
1570714902,3.8881836,-7.536947,4.1132383,-1.3454701,0.63491696,0.8351928,0.78529817,0.9576807,1.7860745
1570714902,1.2018893,-6.05733,4.620809,-1.2996622,0.73612016,0.6881818,-1.9009962,2.6384103,2.7820623
1570714902,2.078167,-6.981492,2.6623523,-0.692443,0.42505348,0.14168449,-1.9057846,2.6719291,1.4748282
1570714902,4.1802764,-9.23683,3.9456444,-0.5219955,0.29189137,0.02450183,1.0869676,-0.095768064,2.0111294
1570714902,3.347094,-9.198523,4.596867,-0.38670278,0.41440052,0.37285393,0.20590134,-0.08140286,3.4045548
1570714902,4.271256,-8.1881695,4.462792,0.1374233,0.15127216,0.3526133,1.1444284,0.89064306,3.4572272
1570714902,3.9552212,-7.52737,3.5098996,1.1835449,-0.3494174,0.01065297,1.0821792,1.5227122,1.484405
1570714902,1.4221559,-8.106767,2.7102363,2.174271,-0.6317211,-0.527322,-1.0486604,1.6567876,0.58897364
1570714902,1.4796166,-11.022904,3.7445314,2.321282,-0.9193513,-2.030456,-1.9393034,-1.2401965,1.1731589
1570714902,6.7468605,-14.374787,2.6910827,1.6565367,-1.3252294,-3.131973,1.0869676,-5.4444146,0.29209262
1570714902,10.874464,-12.497733,-1.3599066,1.1675655,-0.3845722,-1.6245779,6.2392898,-5.104438,-4.4484267
1570714902,7.4842744,-8.920795,0.14844051,1.786503,-0.54543203,-0.5582156,2.858677,-1.8531121,-4.1132383
1570714902,4.223372,-5.5258174,2.0973208,2.1359203,-1.1771531,-0.7084225,-0.5793968,1.4700398,-1.7764976
1570714902,2.9831753,-5.865794,4.7022123,1.485024,-0.34089503,-1.2922052,-2.504335,1.436521,0.21547815
1570714902,3.6391866,-8.09719,3.3997664,1.0312074,-1.0876682,-1.298597,-2.6144683,-1.3215994,-0.23942018
1570714902,5.032612,-8.939949,1.388637,0.6881818,-0.81495214,-1.0471869,-1.5705963,-2.695871,-2.552219
1570714902,5.161899,-7.603985,1.5753847,0.77447087,-0.1374233,-0.44422883,-1.340753,-2.0254946,-2.7724855
1570714902,3.4620156,-5.9567738,3.2752678,0.380311,-0.03728539,0.039415985,-2.954445,-0.15801731,-1.2066777
1570714903,3.2752678,-6.081272,2.705448,-0.015979454,-0.10866029,0.47618774,-3.3279405,-0.30645782,-1.4556746
1570714903,3.7301662,-5.5162406,3.0454245,-0.36859274,0.025567126,0.94704896,-2.9783869,0.46926352,-1.2497733
1570714903,6.0525417,-4.2760444,3.8259344,-0.7339896,-0.2109288,1.3539925,-0.7230489,1.8339585,-0.4165911
1570714903,8.623915,-4.036624,3.8019924,-0.8021686,-0.46446946,1.5627906,2.5953147,2.6288335,-0.11971009
1570714903,12.315774,-5.5880666,4.6399627,-0.6072193,-0.4559471,1.1995244,6.517017,1.412579,0.9576807
1570714903,6.6893997,-7.5561004,8.853758,0.6615494,-0.3206544,-0.14701098,0.9624691,0.45968673,5.161899
1570714903,8.283937,-5.5976434,3.4141316,0.4911019,-1.0706234,-0.15659864,2.4229321,0.770933,1.2785037
1570714903,7.479486,-8.12592,0.2777274,-0.91722065,-0.95450604,0.4559471,1.541866,-1.1109096,-3.1555579
1570714903,5.1666875,-17.386692,2.0685902,-0.20027582,-0.2418224,1.0333381,-0.62728083,-10.160992,-1.1540052
1570714903,7.872135,-10.936713,6.8522053,-0.4495553,0.1384886,-0.4506206,2.1452048,-3.6343982,3.667917
1570714903,3.3375173,-5.5018754,-0.8379706,-0.4889713,-0.018110048,-0.31532788,-2.4995465,1.7717092,-3.8642416
1570714903,-0.7517793,-10.208876,-1.8914193,0.014914157,0.067113705,1.0162933,-6.5026517,-2.8538885,-4.879383
1570714903,1.4891934,-8.614338,4.0940847,-0.6956389,1.3092499,1.3081846,-3.8881836,-1.0055647,1.0295067
1570714903,2.8778305,-7.675811,4.951209,-0.986465,1.0003139,0.67752886,-2.1452048,0.16759412,1.8866309
1570714903,2.1452048,-7.4507556,2.4133554,-1.1601083,1.5095258,0.08415846,-2.7006595,0.5315128,-0.56982
1570714903,2.8921957,-8.939949,0.8619126,-1.0812764,1.3934084,0.17683929,-1.7956513,-0.8331822,-2.054225
1570714903,4.4484267,-7.40766,4.3047748,-1.0162933,1.5968801,0.08309316,-0.07182605,0.80445176,1.4317327
1570714903,5.7269306,-6.670246,2.3415294,-0.85543346,1.2858135,0.06604841,1.2689269,1.3455414,0.90500826
1570714903,4.132392,-8.623915,2.3511062,-0.95131016,1.4882199,0.24714889,0.24899697,0.019153614,-0.62249243
1570714903,3.53863,-8.063671,2.1883004,-0.99285674,0.75742614,0.2119941,-0.33039984,-0.2777274,0.7182605
1570714903,4.3287168,-8.173804,2.6144683,-0.84904164,0.34089503,0.3781804,0.15801731,0.45489833,-0.1436521
1570714903,4.3526587,-8.331821,2.3127987,-0.7755362,0.14914156,0.73185897,0.58418524,0.4213795,0.0047884034
1570714903,3.9695864,-8.90643,3.2513258,-0.9694202,0.24501829,0.89165354,0.62728083,-0.19153613,0.21068975
1570714903,2.0829554,-8.446744,4.3478703,-1.2943357,0.5784562,0.8820659,-1.1731589,0.62249243,2.5330653
1570714903,0.8619126,-6.7372837,2.1404164,-1.1174965,0.49003658,0.5102772,-1.9057846,2.030283,2.1068976
1570714903,3.145981,-8.025364,2.5953147,-0.60615396,0.26525894,-0.10120321,-0.4165911,1.5370775,1.0295067
1570714903,2.5713725,-8.872911,5.233725,-0.71481425,0.5486279,0.11185618,-0.23463176,0.51235914,3.6008794
1570714903,3.691859,-8.7771435,5.8083334,-0.33130735,0.4239882,0.16192514,0.36391866,0.24420857,4.9224787
1570714903,4.55856,-7.335834,2.4851813,0.5688686,-0.053264845,-0.053264845,1.7525556,1.7764976,1.9009962
1570714903,2.8682537,-5.913678,2.0733786,2.0155418,-0.40694344,-0.2098635,0.11971009,2.882619,0.16280572
1570714903,1.067814,-8.24563,3.9264908,2.7655108,-0.49216717,-1.1750225,-2.0685902,1.4413095,1.3215994
1570714903,3.2130187,-14.42746,4.76925,2.2861273,-0.93426543,-3.1042752,-1.508347,-4.548983,1.7142484
1570714903,12.411542,-16.347609,0.5602432,1.2836828,-0.5656727,-2.7932086,6.9288197,-8.853758,-1.8435353
1570714904,9.710882,-10.208876,-1.4317327,1.6032718,-0.57099915,-0.81175625,5.0757074,-3.5242648,-4.5441947
1570714904,6.655881,-4.984728,0.49799395,2.3883958,-1.912208,-0.4175964,1.8962077,1.4077905,-3.643975
1570714904,4.232949,-4.1371803,3.9456444,1.8589431,-0.5241261,-0.9694202,-0.80924016,3.4141316,-0.8379706
1570714904,2.27928,-7.0485296,5.463568,1.191002,-0.4559471,-1.1398677,-3.6152446,-0.1436521,1.757344
1570714904,3.3614593,-8.561666,2.9257145,0.9523755,-1.287944,-1.0759499,-2.8443117,-2.2361844,-0.9528923
1570714904,5.554548,-8.987833,0.7230489,1.1004517,-1.0471869,-0.43890235,-1.3263878,-3.2561142,-3.217807
1570714904,4.525041,-6.0956373,2.3511062,0.81708276,-0.1747087,0.119313255,-1.5466543,-0.7086837,-2.27928
1570714904,3.241749,-6.2823853,3.265691,0.29934844,-0.18962285,0.46873066,-3.1747115,-0.521936,-0.9528923
1570714904,2.96881,-5.9184666,2.896984,-0.03089361,-0.1725781,0.77340555,-3.5434184,0.04309563,-1.364695
1570714904,4.5154643,-5.5018754,3.2752678,-0.41866168,-0.23010413,1.1782184,-1.8339585,0.6847417,-0.90979666
1570714904,7.086837,-4.390966,3.7110126,-0.49962425,-0.5017549,1.4189755,0.93852705,2.111686,-0.29688102
1570714904,10.46745,-4.9464207,4.027047,-0.50068957,-0.6903124,1.3678412,4.5298295,1.8674773,0.22505496
1570714904,10.204087,-5.650316,5.6886234,-0.59656626,-0.42931467,0.90869826,5.070919,1.7669208,1.3359646
1570714904,8.571242,-10.371682,8.192958,0.75742614,-0.6402435,-0.243953,2.7724855,-3.3135753,4.6160207
1570714904,8.896853,-11.611878,1.9249382,-0.14381509,-1.4232367,-0.2087982,2.896984,-4.6591167,-1.5227122
1570714904,7.1395097,-13.713987,-0.31124622,-0.5901745,-0.47405714,0.119313255,1.0295067,-6.6989765,-3.4237084
1570714904,3.7253778,-10.213664,4.486734,-0.12144385,0.18855755,-0.09800732,-2.3654714,-3.1842883,1.3742718
1570714904,-0.24899697,-6.244078,0.92416185,-0.351548,0.1033338,0.6551576,-6.26802,0.8714894,-2.111686
1570714904,1.4077905,-8.513782,-1.8339585,-0.31958908,0.1033338,1.5308317,-4.3287168,-1.13964,-4.817134
1570714904,3.41892,-8.743625,4.2904096,-0.62639457,1.2549198,1.2506586,-1.910573,-1.091756,1.2545617
1570714904,2.087744,-9.811439,4.510676,-1.0610358,0.87993526,0.64770055,-2.6527755,-2.4708161,1.6472107
1570714904,1.7429788,-5.9998693,3.6822822,-1.0216198,1.6554714,-0.23010413,-3.1747115,1.9632454,0.7661445
1570714904,3.6248214,-7.0245876,2.4181437,-0.9491796,1.4903504,-0.18536167,-1.8579005,1.1300632,-0.48841715
1570714904,6.129156,-8.259995,3.323152,-0.78299326,1.2911398,0.2428877,1.4317327,-0.15322891,0.4165911
1570714904,5.9280434,-8.719683,3.4093432,-0.74890375,0.87886995,0.34302562,1.5466543,-0.41180268,0.31124622
1570714904,3.6631286,-9.672575,2.2122424,-0.88419646,0.87886995,0.35474387,-0.22984336,-1.3311762,-0.51235914
1570714904,3.347094,-8.360553,3.7972038,-1.104713,0.6977695,0.27271602,-1.2689269,0.090979666,-0.59855044
1570714904,3.9264908,-7.9822683,3.0119057,-1.0589051,0.46979594,0.46340418,-0.32561144,0.7613561,0.78050977
1570714904,4.879383,-8.734048,2.327164,-0.94278777,0.18429637,0.703096,0.59855044,0.05267244,0.22026655
1570714904,4.745308,-8.767567,3.8355112,-1.0663623,0.2087982,0.85010695,0.9911995,0.44532153,0.37828386
1570714904,3.0310593,-7.1873937,3.572149,-1.2421362,0.487906,0.8767394,0.0047884034,1.1444284,3.6727054
1570714904,1.0726024,-5.985504,3.3039982,-1.1643696,0.7126837,0.49962425,-2.27928,2.9879637,2.2697031
1570714904,3.6248214,-7.589619,2.8682537,-0.5347791,0.2109288,-0.0042611877,-0.25857377,1.9440918,1.0821792
1570714904,4.3861775,-8.700529,3.9983168,-0.5933704,0.32171968,0.22584295,1.3742718,0.5746084,2.6479871
1570714905,4.8027687,-8.451532,5.626374,-0.063917816,0.51240784,0.37498453,0.92895025,0.90021986,4.486734
1570714905,4.596867,-6.1100025,2.944868,1.14839,-0.17044751,0.018110048,1.6567876,2.9400797,1.9967642
1570714905,1.9488802,-6.5026517,2.456451,2.5503209,-0.74890375,-0.2865649,-0.45010993,2.825158,1.2114661
1570714905,0.095768064,-12.411542,4.213795,2.9807007,-0.7808626,-1.8461596,-3.2321723,-2.183512,1.5753847
1570714905,7.1059904,-19.187132,3.2130187,2.134855,-0.92574304,-3.4664762,0.33997664,-9.916783,1.6136919
1570714905,12.109872,-13.8241205,-0.58897364,1.1345413,0.12357444,-1.3582536,8.192958,-6.9527617,-3.4380736
1570714905,8.700529,-8.834604,-0.24420857,1.8610737,-0.77340555,-0.6200028,3.6487634,-1.2210429,-3.8163576
1570714905,4.462792,-2.815581,0.92895025,2.3106291,-1.5287011,-0.9236124,-0.61770403,3.7972038,-3.41892
1570714905,4.074931,-5.9759274,5.0134583,1.6192514,-0.29082605,-1.2293527,-1.7956513,1.4891934,0.16759412
1570714905,3.3039982,-7.819463,3.8019924,1.0589051,-0.986465,-1.4083226,-2.753332,-1.4077905,-0.47884035
1570714905,3.8019924,-9.3182335,1.7190368,0.95876724,-0.82880104,-1.0578399,-2.9017725,-3.122039,-2.504335
1570714905,5.0038815,-7.9104424,1.7429788,1.0109668,-0.47938362,-0.39735577,-1.6519991,-2.135628,-2.5617957
1570714905,3.3423057,-5.932832,2.7341783,0.56354207,-0.09587672,0.19388404,-3.3518825,-0.2633622,-1.6472107
1570714905,3.2513258,-5.913678,3.4332852,0.14381509,0.040481284,0.5997622,-3.3662477,-0.20111294,-1.0055647
1570714905,4.285621,-5.60722,3.289633,-0.28976077,-0.05539544,1.054644,-2.1787236,0.2825158,-1.1348516
1570714905,6.8905125,-4.084508,4.0174704,-0.6274599,-0.4538165,1.416845,0.61770403,2.1164744,-0.2633622
1570714905,11.544841,-3.6822822,3.7014358,-0.8937841,-1.1334759,1.4541303,5.4539914,2.896984,-0.2681506
1570714905,10.764331,-5.8083334,5.3725886,-0.6945736,-0.6455699,0.8937841,5.8322754,1.5945383,0.545878
1570714905,7.7907324,-8.844181,8.37013,0.8618252,-0.63065577,-0.2780425,1.7764976,-2.006341,4.7165775
1570714905,9.706094,-11.611878,-0.9768343,-0.19494934,-0.9726161,-0.175774,3.5338416,-4.879383,-4.5537715
1570714905,7.144298,-18.047493,2.0638018,-0.71481425,0.29508725,0.49003658,0.9720459,-11.195287,-1.283292
1570714905,4.390966,-7.599196,3.9695864,-0.40055165,0.011718267,-0.09374613,-1.7381904,-0.6895301,0.6703765
1570714905,1.283292,-5.415684,-0.047884032,-0.49749365,0.33663383,0.13209683,-4.817134,1.5514427,-3.2609026
1570714905,0.58897364,-10.462662,-1.4748282,-0.23223473,0.27058542,1.5872924,-5.281609,-3.289633,-4.6782703
1570714905,2.9400797,-8.2169,4.687847,-0.5198649,1.0770152,1.2922052,-2.5234885,-0.7517793,1.4317327
1570714905,1.7717092,-8.078036,4.1036615,-1.1750225,0.85543346,0.46660006,-3.715801,-0.3878607,0.866701
1570714905,0.81881696,-6.6415157,3.6056678,-1.2655728,1.5819659,-0.28763017,-4.036624,1.2785037,0.21547815
1570714905,2.72939,-7.5944076,2.4947581,-0.9278736,1.8589431,-0.3781804,-2.8491,0.3878607,-1.1731589
1570714905,5.5162406,-7.177817,3.7924154,-0.868217,1.7641318,0.054330144,0.33518824,0.7422025,0.06703765
1570714905,6.5361705,-8.75799,3.3135753,-0.7254672,1.2144386,0.20134112,1.9488802,-0.50278234,0.272939
1570714905,4.0557775,-9.442732,2.6719291,-0.98433435,1.162239,0.07563608,0.02873042,-1.4173675,-0.7422025
1570714905,3.289633,-8.063671,4.697424,-1.1846102,0.9768773,-0.06178722,-1.4221559,-0.08140286,-0.50278234
1570714905,3.9504328,-7.4986396,3.1316159,-1.0929947,0.50814664,0.25354066,-0.48362875,0.7517793,-0.22984336
1570714906,5.33907,-7.541735,1.982399,-0.9779426,0.40268224,0.5784562,1.115698,0.60812724,0.20590134
1570714906,5.6886234,-8.101978,3.2848446,-0.99392205,0.18110047,0.6796594,1.5897499,0.51714754,0.5650316
1570714906,4.9416323,-7.8386164,4.381389,-1.2517239,0.23649593,0.7670138,1.2880806,0.89543146,2.0446482
1570714906,1.9393034,-6.4068837,3.9360676,-1.2868787,0.40374753,0.7467731,-1.2593501,1.982399,2.5617957
1570714906,1.9009962,-6.670246,2.992752,-0.9140248,0.3206544,0.33769912,-2.0111294,2.2840683,1.460463
1570714906,4.7070007,-8.63828,2.6288335,-0.49855897,0.04900366,0.10866029,1.1013328,0.78529817,0.7757214
1570714906,3.7349546,-9.65821,5.6646814,-0.4506206,0.31532788,0.47725302,0.78050977,-0.272939,4.0653543
1570714906,4.189853,-8.365341,4.9799395,0.015979454,0.0010652969,0.35474387,1.1971009,0.25378537,4.697424
1570714906,4.0653543,-6.694188,3.2561142,1.1451942,-0.5923051,-0.2066676,1.1300632,2.1212628,1.6998832
1570714906,1.4413095,-6.291962,3.0358477,2.0602844,-0.7989727,-0.5219955,-1.8100165,2.7724855,1.1875241
1570714906,0.4405331,-10.132261,4.1180267,2.5449944,-1.2463974,-2.0443048,-3.1651347,-0.29688102,1.8291701
1570714906,5.142745,-15.342045,4.6160207,2.0229988,-1.416845,-3.2992246,0.7230489,-7.0581064,1.7812861
1570714906,13.512875,-15.485697,-1.4987702,1.3784943,-0.5688686,-1.8205925,8.312668,-7.73806,-4.525041
1570714906,8.710106,-9.069236,0.10534488,2.1646833,-1.2922052,-0.4570124,3.2609026,-1.6232687,-3.2225955
1570714906,4.6016555,-2.6719291,2.1787236,2.5354066,-1.9185997,-0.43783703,-1.1587936,4.4101195,-1.6759412
1570714906,3.2561142,-5.9424086,6.0142345,1.9963665,-0.4133352,-0.91295946,-2.7389667,0.81402856,2.2026656
1570714906,2.7629087,-8.063671,4.3287168,1.392343,-1.1345413,-1.0290768,-3.5194764,-1.6759412,0.33997664
1570714906,4.31914,-9.634268,2.384625,1.2559851,-1.3827554,-0.88313115,-2.4851813,-3.2034419,-1.2162545
1570714906,5.410896,-8.049306,1.2880806,1.3827554,-0.6295905,-0.0021305939,-1.3790601,-2.2266076,-2.7246015
1570714906,3.4141316,-6.6079965,2.96881,0.82134396,-0.30041373,0.32917675,-3.394978,-0.8762778,-1.1492168
1570714906,3.1364043,-6.2871737,2.6671407,0.40374753,-0.30893612,0.47192654,-3.6343982,-0.6751649,-1.283292
1570714906,3.514688,-6.157887,2.5617957,-0.054330144,-0.08096257,0.8021686,-3.1603463,-0.2825158,-1.5753847
1570714906,4.5441947,-5.2049947,3.0214825,-0.5443667,-0.22477765,1.0706234,-1.9728222,0.89543146,-1.0247183
1570714906,5.7987566,-3.8402996,4.146757,-0.5816521,-0.2844343,1.2708993,-0.5267244,2.5617957,0.25857377
1570714906,8.556877,-4.295198,5.57849,-0.46979594,-0.49003658,1.4658486,2.456451,2.4277205,1.8674773
1570714906,9.701305,-7.216124,7.029376,-0.2087982,-0.39948636,1.1643696,3.8355112,-0.19632454,3.4811692
1570714906,8.652645,-7.177817,8.293514,0.8692823,-0.58378273,-0.08522376,2.8060043,-0.15801731,4.721366
1570714906,8.896853,-7.536947,0.7134721,-0.24608359,-0.8810006,0.026632423,3.265691,-0.5746084,-2.7868507
1570714906,7.431602,-18.794483,2.3127987,-0.57952154,-0.36752746,0.5134731,1.460463,-11.69807,-0.8858546
1570714906,4.4196963,-17.554287,4.3239284,0.063917816,0.14488038,-0.2066676,-1.1013328,-14.279019,0.2633622
1570714906,2.9352913,-3.7541082,-1.0007763,-0.32704616,-0.26845482,0.19494934,-3.0119057,3.4093432,-4.060566
1570714906,1.436521,-9.811439,0.19632454,-0.12783563,0.6413088,1.6618632,-4.185065,-2.3894134,-2.8874073
1570714906,1.163582,-9.279925,3.8067808,-0.4133352,1.2112426,1.5681171,-3.7205894,-1.9871874,-0.30645782
1570714907,1.2449849,-10.208876,5.592855,-1.0919293,1.0248157,0.800038,-3.490746,-2.9113493,3.0262709
1570714907,1.0965444,-5.085284,3.5098996,-1.1739572,1.7279116,-0.29721785,-3.9456444,2.96881,0.8858546
1570714907,2.6527755,-7.9343843,1.6136919,-0.9747467,1.865335,-0.2737813,-2.5617957,0.08140286,-1.6472107
1570714907,5.257667,-8.298303,4.2521024,-0.94704896,1.8195271,0.14061919,0.16759412,0.1388637,0.7517793
1570714907,5.875371,-8.312668,3.5003228,-0.8810006,1.172892,0.17151281,1.4748282,-0.033518825,0.22505496
1570714907,4.271256,-9.605537,3.2034419,-1.0514481,1.1920673,0.1384886,0.01436521,-1.2018893,-0.866701
1570714907,3.7972038,-7.8865004,3.8594532,-1.1782184,0.7286631,0.18323107,-0.51235914,0.33997664,0.866701
1570714907,4.644751,-8.130709,2.8778305,-1.0280116,0.47299185,0.50814664,0.48841715,0.7374141,0.31124622
1570714907,4.7788267,-8.75799,3.2848446,-1.0003139,0.37178862,0.62639457,0.6799533,0.24420857,-1.0055647
1570714907,4.414908,-8.394072,3.5242648,-1.1515859,0.23543063,0.5219955,0.5602432,0.39264908,1.3694834
1570714907,3.1172507,-7.216124,5.142745,-1.3529271,0.81708276,0.6285252,0.023942016,1.6903064,2.1164744
1570714907,1.3599066,-6.8091097,4.4436383,-1.230418,0.8479764,0.5283873,-1.8387469,2.0685902,3.193865
1570714907,3.9935284,-7.2448545,1.4508862,-0.74357724,0.487906,0.02130594,0.58897364,2.0111294,1.0199299
1570714907,3.4093432,-8.595184,4.88896,-0.760622,0.8298663,0.14807628,0.58897364,0.6607997,3.2944214
1570714907,3.9695864,-8.212111,6.2728086,-0.29402196,0.63811284,0.19921052,0.48841715,0.45489833,4.606444
1570714907,4.4436383,-7.038953,2.2218192,0.91722065,-0.04900366,-0.3472868,1.436521,1.9776106,1.1300632
1570714907,1.9393034,-5.631162,2.3942018,2.299976,-0.32917675,-0.4474247,-0.89543146,3.6152446,1.091756
1570714907,1.6567876,-10.82658,4.6255975,2.92424,-0.90869826,-1.7896988,-2.1212628,-0.9576807,2.054225
1570714907,6.6989765,-17.24783,5.865794,2.4448564,-1.0429257,-3.3194652,2.504335,-8.882488,2.920926
1570714907,13.450625,-15.691598,-1.3215994,1.1057782,-0.2098635,-1.8610737,8.48984,-7.867347,-4.5394063
1570714907,7.1730285,-7.4363904,-0.33997664,1.9707993,-1.3326864,-0.7339896,1.9297266,0.08140286,-3.8259344
1570714907,4.6112323,-4.0557775,1.1731589,2.4736195,-2.3436532,-0.32704616,-0.641646,2.6862943,-3.0502129
1570714907,4.759673,-4.3718123,4.295198,2.1966424,-0.45807767,-0.9619631,-0.9959879,3.4237084,-0.48841715
1570714907,3.323152,-7.6710224,4.2904096,1.3774289,-0.8437152,-1.1888714,-2.8060043,-1.283292,0.06703765
1570714907,3.3375173,-10.012551,2.5761611,1.2069814,-1.2314832,-0.9747467,-3.1507695,-3.9935284,-1.6472107
1570714907,4.975151,-9.165004,1.3934253,1.2815522,-0.800038,-0.15553336,-1.7286136,-3.4045548,-2.8538885
1570714907,3.8355112,-5.568913,3.074155,0.8138869,-0.27271602,0.30360964,-2.9017725,0.08140286,-1.2641385
1570714907,3.1124623,-6.1866174,3.1651347,0.2109288,-0.22051647,0.5944357,-3.572149,-0.49320555,-1.1971009
1570714907,3.596091,-5.947197,2.5953147,-0.26845482,-0.12783563,0.9438531,-2.96881,-0.08619126,-1.733402
1570714907,5.3342814,-4.6255975,3.7205894,-0.61361104,-0.30680552,1.1995244,-1.4700398,1.1348516,-0.81881696
1570714907,9.097966,-3.371036,4.0797195,-0.65622294,-0.9992485,1.660798,2.896984,3.1316159,0.14844051
1570714907,11.21444,-5.8322754,4.8506527,-0.6327864,-0.50388545,1.5627906,5.257667,1.0582372,1.2114661
1570714907,6.229713,-8.465898,8.719683,0.63917816,-0.33343795,0.07137489,0.39264908,-1.4508862,5.118803
1570714907,8.561666,-9.380483,4.343082,0.58058685,-1.1835449,-0.4133352,2.2888567,-2.504335,2.3080103
1570714908,10.390836,-12.679692,0.6560113,-0.9768773,-1.2538545,-0.12890093,4.0892963,-4.9081135,-2.657564
1570714908,4.213795,-16.041151,1.7381904,0.045807768,0.14061919,-0.18749227,-1.2689269,-10.429143,-2.6862943
1570714908,4.2904096,-6.397307,0.18195933,-0.5603462,-0.044742472,-0.14594568,-1.6089035,-0.076614454,-1.3742718
1570714908,-0.39264908,-8.437167,-1.6759412,0.10013791,0.16405573,1.1100394,-6.196194,-0.6368576,-4.912902
1570714908,2.528277,-9.064447,2.0207062,-0.6253293,0.54649734,1.7023445,-3.715801,-2.255338,-1.4891934
1570714908,1.8243817,-8.911219,5.3678,-1.0567746,0.96835494,1.1696961,-2.753332,-1.6089035,2.6192567
1570714908,-0.51714754,-5.899313,4.8841715,-1.0194892,1.7204546,0.29295665,-5.559336,1.9393034,1.5753847
1570714908,2.705448,-6.9623384,2.96881,-0.8064298,1.865335,-0.3920293,-3.1794999,1.0726024,0.2873042
1570714908,6.8043213,-7.6135616,2.719813,-0.9097636,1.5755742,-0.09587672,1.3359646,0.8523358,-0.062249243
1570714908,6.5361705,-8.7292595,3.217807,-0.7244019,1.2208303,0.30360964,2.336741,-0.8331822,0.41180268
1570714908,3.6535518,-9.68694,2.72939,-0.8277357,1.0386645,0.4911019,-0.6464345,-1.3790601,-1.1444284
1570714908,4.1132383,-7.97748,4.1706996,-1.1377372,0.7627526,0.14914156,-0.40222588,0.21068975,0.8714894
1570714908,4.1611223,-7.369353,2.6431987,-1.0652969,0.419727,0.36007038,0.038307227,0.9911995,0.7661445
1570714908,4.4484267,-8.063671,2.8107927,-0.88419646,0.30893612,0.63811284,0.38307226,0.45489833,0.89064306
1570714908,5.329493,-8.944737,3.6104562,-0.9619631,0.14594568,0.6615494,1.0199299,0.12449849,1.2976574
1570714908,4.1946416,-7.455544,5.257667,-1.1973938,0.4516859,0.7638179,0.8379706,0.9959879,1.8243817
1570714908,0.80445176,-6.4164605,3.845088,-1.1366718,0.60615396,0.6604841,-2.1260512,2.4947581,3.1028855
1570714908,2.633622,-7.929596,3.3758245,-0.6839206,0.51240784,0.21412468,-1.6472107,1.484405,1.2449849
1570714908,4.865018,-9.428367,3.5242648,-0.6551576,0.3483521,0.11079088,1.6089035,-0.61770403,1.7286136
1570714908,3.9839516,-10.007763,5.4779334,-0.5177343,0.5859133,0.3451562,1.2497733,-0.49799395,4.453215
1570714908,3.3039982,-7.2352777,3.2465374,0.13422741,0.09374613,0.15979454,0.23942018,1.9776106,1.8866309
1570714908,2.2122424,-6.679823,3.0550013,1.8685309,-0.27058542,-0.33343795,-0.4165911,2.4037786,1.2593501
1570714908,0.6464345,-7.872135,4.1419687,2.5290148,-0.37178862,-0.8650211,-2.6192567,1.1061212,1.9393034
1570714908,2.3511062,-12.315774,4.6926355,2.5524514,-1.2272221,-2.554582,-1.4556746,-3.7205894,1.8866309
1570714908,11.731588,-15.682021,0.9768343,1.6160555,-1.3337518,-2.848604,7.043741,-7.656657,-2.1547816
1570714908,10.67814,-11.482592,-1.5562311,1.4999381,-0.35474387,-0.8852618,5.535394,-3.8355112,-4.912902
1570714908,5.741296,-6.435614,1.0390835,2.345784,-2.0261948,-0.3451562,0.33518824,0.90979666,-2.5617957
1570714908,3.7588966,-4.1515455,3.7780502,2.2626908,-0.868217,-0.92254716,-1.9488802,2.8299465,-0.062249243
1570714908,1.8962077,-7.1969705,5.9424086,1.5670518,-0.5816521,-1.191002,-4.084508,-0.62728083,1.7860745
1570714908,2.657564,-8.528147,2.8778305,1.1952631,-1.3784943,-1.1601083,-3.6966474,-2.3463178,-1.316811
1570714908,5.3007627,-9.500193,0.5602432,1.1611737,-0.8692823,-0.5401055,-1.3503298,-3.6296098,-3.6104562
1570714908,4.697424,-6.7085533,2.2601264,0.9108289,0.043677174,0.0,-2.0207062,-1.0055647,-2.0398598
1570714908,3.4859576,-6.742072,3.5098996,0.3771151,0.054330144,0.31958908,-3.1747115,-1.067814,-0.90979666
1570714909,3.5913026,-6.4020953,2.896984,-0.045807768,-0.06178722,0.6168069,-2.9735985,-0.61770403,-1.5275006
1570714909,4.4101195,-5.8226986,3.1555579,-0.47831833,-0.18536167,0.8437152,-2.3319526,0.07182605,-1.5705963
1570714909,6.646304,-4.501099,3.596091,-0.75316495,-0.47405714,1.0130974,0.60812724,1.7477672,-0.5363012
1570714909,8.6813755,-4.7740383,3.6535518,-0.82880104,-0.3472868,1.062101,2.3175871,1.7764976,-0.5554548
1570714909,7.771579,-6.847417,5.995081,-0.6604841,0.15553336,0.7957768,1.7908629,-0.033518825,2.2457612
1570714909,6.3206925,-7.8769236,8.710106,0.47831833,-0.14168449,0.009587673,0.32561144,-0.5363012,4.9655743
1570714909,8.882488,-5.0517654,4.865018,0.5923051,-0.81921333,-0.08735435,2.8538885,0.91458505,2.183512
1570714909,7.2209125,-8.010999,-2.0350714,-1.3401436,-0.66794115,0.74357724,1.757344,-1.0965444,-5.497087
1570714909,7.1059904,-20.42254,5.363012,-0.4932325,0.5102772,1.1920673,2.111686,-10.907983,0.89064306
1570714909,5.023035,-11.18571,7.8625584,-1.0429257,0.09055024,-0.08628905,-1.3359646,-8.513782,3.3854012
1570714909,2.7006595,-1.8052281,-2.1404164,-0.60189277,0.15872924,-0.28123838,-1.7142484,5.7987566,-4.381389
1570714909,-0.6655881,-8.781932,-2.6192567,-0.04261188,0.29189137,1.0897988,-6.83784,-0.02873042,-5.521029
1570714909,1.9680338,-9.222465,6.172252,-0.47618774,1.6576021,1.3912778,-3.4763808,-1.4748282,2.2170308
1570714909,3.2225955,-7.666234,5.4683566,-1.0887334,0.92574304,0.3526133,-1.436521,-0.6512229,3.2321723
1570714909,1.9632454,-7.1969705,2.3080103,-1.1079088,1.4498692,-0.3206544,-2.6719291,1.5801731,-0.4165911
1570714909,2.360683,-8.384495,1.4987702,-0.94704896,1.6139249,0.0,-2.5330653,-0.8475474,-2.1739352
1570714909,4.7740383,-7.599196,4.4580035,-0.9907262,1.6352308,0.2056023,-0.0047884034,0.33039984,1.2354081
1570714909,6.172252,-7.7332716,2.825158,-0.78299326,1.1334759,0.204537,1.5035586,0.8283938,-0.59376204
1570714909,4.7309427,-9.615114,2.2218192,-1.022685,1.0674275,0.21732058,0.770933,-1.0342951,-1.2162545
1570714909,4.5154643,-7.9870567,3.0119057,-1.2677033,0.6168069,0.23969181,0.22026655,0.29688102,0.770933
1570714909,4.9559975,-7.651869,1.8914193,-1.0684928,0.1384886,0.51240784,1.0630256,1.2258313,0.0
1570714909,4.2904096,-8.374918,3.3183637,-1.043991,0.13316211,0.84904164,0.8571242,0.545878,-0.14844051
1570714909,2.5617957,-7.85777,4.132392,-0.9949873,0.53797495,1.0471869,-0.58897364,1.115698,2.801216
1570714909,1.1587936,-6.8186865,4.0557775,-1.1441289,0.6210681,0.7169448,-2.0638018,2.2744915,2.3080103
1570714909,2.5617957,-7.2831616,3.7253778,-0.6413088,0.33769912,0.11185618,-0.5315128,1.8914193,2.1787236
1570714909,4.855441,-9.442732,2.7724855,-0.5145384,0.14488038,-0.012783563,1.7525556,-0.24420857,1.3455414
1570714909,2.6767175,-8.954314,5.746084,-0.50495076,0.44422883,0.31319728,-0.34955344,0.2777274,4.4484267
1570714909,3.3758245,-7.0724716,4.8602295,0.07883197,0.15340276,-0.0085223755,0.39264908,2.1787236,3.5625722
1570714909,3.4237084,-5.8705826,2.5091233,1.5734435,-0.59656626,-0.39096397,0.35434186,3.3183637,0.9864111
1570714909,0.93852705,-7.0964136,4.1419687,2.6163692,-0.6839206,-0.7925809,-2.3080103,1.9153614,2.0638018
1570714909,1.0390835,-14.384364,4.146757,2.7814903,-1.2975317,-2.7356825,-2.767697,-5.7604494,1.436521
1570714909,11.745954,-19.191921,0.8619126,1.6490797,-0.74890375,-3.2534168,6.9958572,-11.200075,-2.2601264
1570714909,9.208099,-11.841722,-0.0047884034,1.4125837,-0.1054644,-0.74464256,4.074931,-4.209007,-3.4141316
1570714910,7.704541,-4.620809,0.009576807,2.3766775,-1.9356445,-0.53690964,2.3080103,2.7006595,-3.6535518
1570714910,5.93762,-3.1603463,2.111686,2.4405954,-1.550007,-0.8479764,0.17717093,3.7684734,-1.757344
1570714910,2.8538885,-7.350199,5.7029886,1.4115185,-0.37285393,-1.1270841,-3.1747115,-0.81402856,1.5610195
1570714910,2.480393,-8.6334915,3.0119057,0.9278736,-1.0344033,-1.2240262,-3.8738184,-2.456451,-1.1875241
1570714910,4.381389,-8.949526,1.7764976,0.9960526,-1.1238883,-0.6999001,-2.2936451,-3.083732,-2.3702598
1570714910,4.43885,-6.0142345,1.8100165,0.9374613,-0.409074,0.067113705,-2.3750482,-0.320823,-2.3558946
1570714910,3.1986535,-6.363788,2.7964275,0.5496932,0.023436533,0.37604982,-3.4332852,-0.78529817,-1.541866
1570714910,2.9592333,-5.9041014,3.2704794,0.036220096,0.057526033,0.68072474,-3.763685,-0.22984336,-1.0342951
1570714910,4.381389,-5.3342814,3.2225955,-0.4868407,-0.16405573,1.0791458,-2.5234885,0.37828386,-1.0534488
1570714910,6.7468605,-3.9360676,4.1611223,-0.64876586,-0.36220095,1.3518618,-0.04309563,2.207454,-0.05746084
1570714910,10.477027,-3.964798,4.5920787,-0.3494174,-0.83306223,1.3529271,3.6535518,2.7485435,0.7086837
1570714910,9.519346,-6.4643445,6.612785,-0.2780425,-0.48044893,0.86289054,4.247314,0.8714894,1.9009962
1570714910,8.331821,-8.360553,7.85777,0.7648832,-0.71055305,-0.1054644,2.0685902,-1.5131354,4.735731
1570714910,8.724471,-9.26556,0.9576807,-0.19707993,-1.2165691,-0.011718267,2.4851813,-1.4221559,-1.4939818
1570714910,7.7428484,-18.416199,2.1787236,-0.49003658,-0.47618774,0.31106672,2.6671407,-9.562442,-1.4556746
1570714910,4.9176903,-10.070012,5.267244,-0.10759499,-0.08415846,-0.29615256,-1.4460979,-5.9567738,1.4891934
1570714910,2.3654714,-5.0900726,-0.4213795,-0.527322,0.2066676,0.15766394,-3.0262709,1.910573,-3.064578
1570714910,-0.019153614,-8.791509,-1.8195933,-0.07457078,-0.04154658,1.5159175,-6.679823,-0.9959879,-4.630386
1570714910,2.825158,-8.456321,4.4723687,-0.46660006,1.1590431,1.4978075,-3.0358477,-0.82360536,0.770933
1570714910,1.8914193,-10.31901,4.903325,-0.868217,0.80749506,1.004575,-2.7868507,-2.4899697,2.0159178
1570714910,1.2641385,-5.415684,3.9025488,-1.1707613,1.4807627,-0.1022685,-3.7301662,2.3798366,1.0534488
1570714910,2.4133554,-6.909666,2.834735,-0.9406572,1.6501449,-0.25780186,-3.1986535,1.0199299,-0.19632454
1570714910,5.616797,-7.2304893,3.0358477,-0.8991106,1.5936842,0.02769772,0.36870706,0.93373865,-0.32561144
1570714910,6.981492,-8.896853,3.572149,-0.6647453,1.1707613,0.2769772,2.2361844,-0.8714894,0.521936
1570714910,3.9456444,-9.682152,1.8866309,-0.87993526,1.043991,0.33024204,-0.15322891,-1.2976574,-0.8571242
1570714910,3.6727054,-8.403648,3.2321723,-1.0855376,0.760622,0.12357444,-0.7517793,-0.1436521,0.32561144
1570714910,3.763685,-7.7189064,3.2513258,-1.0471869,0.419727,0.25567126,-0.61770403,0.60333884,0.6943185
1570714910,4.5394063,-8.073248,2.8299465,-0.9534408,0.39096397,0.5230608,0.009576807,0.78529817,-0.2681506
1570714910,4.8985367,-8.552089,3.3279405,-0.9459837,0.15020686,0.71481425,0.8762778,0.095768064,1.0390835
1570714910,4.6255975,-8.010999,3.7684734,-1.2059162,0.3483521,0.78299326,0.80924016,0.79008657,1.7381904
1570714910,2.0638018,-6.5457473,4.9416323,-1.2730298,0.71161836,0.83306223,-1.4987702,2.4181437,3.193865
1570714910,0.9911995,-7.1826053,2.4708161,-1.004575,0.56780326,0.4559471,-2.360683,1.9057846,0.9672575
1570714910,4.333505,-9.107543,2.930503,-0.60615396,0.3920293,-0.023436533,1.0342951,0.023942016,1.5658079
1570714910,3.6727054,-9.385271,5.884948,-0.68605125,0.6274599,0.22371235,0.4213795,-0.21068975,4.663905
1570714911,4.0797195,-7.335834,4.098873,-0.012783563,0.19707993,0.2066676,0.91458505,1.8674773,2.9113493
1570714911,4.2042184,-6.6510925,2.2457612,1.4072572,-0.40800872,-0.14807628,1.0199299,2.5187001,0.8571242
1570714911,0.8762778,-7.5704656,3.4859576,2.5055783,-0.6157416,-0.50708133,-2.4181437,1.460463,1.5658079
1570714911,0.545878,-10.778696,4.3047748,2.7314212,-1.1814142,-1.7609358,-2.9352913,-0.8762778,1.9440918
1570714911,7.762002,-16.347609,1.9536686,1.9558852,-1.3188376,-3.2693963,3.169923,-8.197746,-1.0055647
1570714911,11.042058,-13.397953,-0.36391866,1.4083226,-0.18003519,-1.2463974,5.851429,-5.717354,-3.5673606
1570714911,8.791509,-7.776367,-0.16280572,2.2126217,-1.6757121,-0.47299185,3.3375173,-0.39743748,-3.6248214
1570714911,4.912902,-3.122039,1.9680338,2.5449944,-1.374233,-0.67752886,-0.82360536,3.9073372,-1.7381904
1570714911,2.657564,-6.5265937,6.1243677,1.8610737,-0.21838588,-1.0578399,-2.930503,0.7086837,1.3838485
1570714911,2.7150247,-8.293514,3.9504328,1.2133732,-1.1771531,-1.2112426,-3.7014358,-1.661576,0.25857377
1570714911,4.6782703,-9.682152,1.7238252,1.1547819,-1.2314832,-0.7979074,-2.4516625,-3.5290532,-2.0685902
1570714911,5.449203,-7.240066,1.4652514,1.2005897,-0.3920293,0.01384886,-1.0773908,-2.1978772,-2.9640217
1570714911,2.9400797,-6.38773,3.323152,0.68072474,-0.034089502,0.39842105,-3.7301662,-0.7422025,-1.1444284
1570714911,2.6240451,-5.81791,3.2034419,0.13103153,-0.13529271,0.67752886,-4.1036615,-0.02873042,-1.0007763
1570714911,3.9839516,-5.6120086,2.9879637,-0.35580918,-0.22903883,1.054644,-2.906561,0.15322891,-1.364695
1570714911,6.4164605,-3.9264908,4.0892963,-0.6359823,-0.36859274,1.4083226,-0.4309563,2.087744,-0.062249243
1570714911,10.553641,-3.5865142,4.3478703,-0.46340418,-0.8351928,1.6490797,3.5434184,3.0262709,0.39743748
1570714911,10.481815,-6.483498,6.8043213,-0.32811147,-0.4836448,1.2282873,5.3821654,1.0199299,1.6280571
1570714911,7.599196,-9.332599,9.629479,0.98539966,-0.65196174,-0.26738954,1.7525556,-2.2888567,5.616797
1570714911,7.153875,-4.1802764,1.2497733,0.07244019,-1.4338896,-0.014914157,1.4987702,2.3175871,-0.47405192
1570714911,7.441179,-13.40753,1.5610195,-0.7041613,-0.68605125,0.77447087,2.2505496,-4.050989,-3.2513258
1570714911,2.5474305,-20.987572,0.5793968,-0.18749227,-0.3462215,0.7041613,-2.7102363,-15.7825775,-3.5098996
1570714911,5.4061074,-4.343082,2.1021092,-0.4825795,-0.22584295,-0.116117366,0.45968673,1.8387469,0.6512229
1570714911,-1.1683705,-7.97748,-2.6240451,0.23330003,-0.16405573,0.8767394,-6.579266,0.25857377,-5.12838
1570714911,0.7374141,-8.935161,2.6862943,-0.60082746,1.1814142,1.5095258,-4.477157,-2.030283,-1.532289
1570714911,2.207454,-9.749189,6.943185,-0.9033718,1.3731678,1.0248157,-3.241749,-2.255338,3.8642416
1570714911,1.412579,-5.535394,4.4005427,-1.1654348,1.4551957,0.07457078,-3.5051112,2.3750482,1.340753
1570714911,2.2744915,-8.288726,0.8762778,-1.0844723,1.7172587,-0.3526133,-2.552219,-0.31124622,-2.1643584
1570714911,4.510676,-8.111555,4.027047,-0.9949873,1.7460216,0.09694202,-0.62728083,0.19632454,0.08619126
1570714911,5.6646814,-7.575254,4.6160207,-0.82453984,1.4860892,0.17683929,1.13964,0.5793968,1.5801731
1570714911,4.381389,-9.337387,2.2457612,-0.9395919,1.3806248,0.29721785,0.047884032,-1.0630256,-0.7565677
1570714911,4.654328,-8.379706,3.7732618,-1.2080467,0.8618252,0.12996623,0.47405192,0.009576807,0.89543146
1570714911,4.7309427,-7.8865004,2.5474305,-1.1696961,0.45914298,0.30467492,0.6512229,0.63206923,-0.08619126
1570714912,4.237737,-8.312668,2.1978772,-1.0834069,0.33450323,0.6189375,0.320823,0.34955344,-0.20111294
1570714912,3.6822822,-8.154651,4.8362875,-1.1462595,0.5401055,0.77766675,-0.009576807,0.6655881,2.6767175
1570714912,2.9879637,-7.417237,4.5394063,-1.2613115,0.85756403,0.7180101,-0.46447513,1.5610195,2.633622
1570714912,1.508347,-5.3007627,2.7341783,-1.1057782,0.6828553,0.39096397,-1.7525556,3.7972038,1.0773908
1570714912,4.295198,-7.321469,3.3183637,-0.50068957,0.3920293,0.025567126,1.1061212,1.8243817,1.8052281
1570714912,3.5242648,-8.456321,4.525041,-0.42292288,0.43357584,0.21518998,0.38307226,0.7230489,3.107674
1570714912,3.7780502,-7.5848308,5.506664,0.2791078,0.34089503,0.09587672,0.6991069,1.6089035,4.036624
1570714912,2.8107927,-5.6982,2.7581203,1.5446806,-0.1725781,-0.37498453,-0.30645782,3.4332852,1.0247183
1570714912,0.81881696,-7.393295,3.7732618,2.7719026,-0.3451562,-0.9822038,-2.4947581,1.532289,1.4317327
1570714912,2.8491,-16.112978,4.9559975,2.8454082,-1.0812764,-2.9807007,-1.0726024,-7.642292,1.9393034
1570714912,15.030798,-18.760965,-1.0965444,1.4626527,-0.36539686,-2.7964044,10.189722,-10.951078,-4.525041
1570714912,9.835381,-10.43872,-0.58418524,1.4946116,-0.40161693,-0.721206,4.7500963,-2.930503,-4.31914
1570714912,6.4787097,-3.4763808,0.30645782,2.2616253,-2.3021066,-0.8085604,0.19632454,3.6774938,-3.6056678
1570714912,5.0996494,-4.2664676,3.4284968,2.1103532,-0.79045033,-1.2495933,-0.7613561,2.432509,-0.6751649
1570714912,3.289633,-7.086837,4.3478703,1.1569124,-0.4889713,-1.3838208,-3.0550013,-0.82360536,0.0
1570714912,2.3127987,-8.470686,2.4708161,0.868217,-0.85117227,-1.2794216,-3.964798,-2.1787236,-1.7046716
1570714912,3.6727054,-9.030929,2.0111294,0.9097636,-0.7691444,-0.6647453,-3.3901896,-3.5051112,-2.2505496
1570714912,4.4244847,-6.349423,1.9009962,0.60189277,-0.3792457,0.088419646,-2.2697031,-1.4269443,-2.5570073
1570714912,3.4141316,-5.884948,3.3375173,0.12677033,0.053264845,0.5102772,-3.193865,-0.5746084,-1.2210429
1570714912,3.2273839,-5.4539914,3.4955344,-0.26738954,0.09374613,0.88313115,-3.5482068,0.04309563,-1.0055647
1570714912,5.085284,-4.0318356,3.6822822,-0.7808626,-0.13316211,1.3081846,-1.8243817,1.508347,-0.78529817
1570714912,8.968679,-3.8402996,3.6104562,-0.9992485,-0.8298663,1.5883577,1.8291701,2.6479871,-0.4405331
1570714912,13.412318,-5.329493,4.6495395,-0.66794115,-0.65089643,1.1238883,7.4507556,1.7669208,0.6799533
1570714912,6.9144545,-7.541735,8.389283,0.506016,-0.05113425,-0.10972559,1.5179238,-0.05746084,4.582502
1570714912,8.75799,-10.79785,3.7253778,0.38670278,-0.92148185,-0.30254433,2.7485435,-3.787627,1.1061212
1570714912,9.179369,-14.053964,2.0973208,-0.96835494,-0.8362581,0.034089502,3.2848446,-6.5026517,-1.9201498
1570714912,5.4204726,-13.297397,3.5577838,-0.12144385,0.089484945,-0.24608359,-0.46926352,-8.269572,-0.5650316
1570714912,3.2609026,-5.281609,0.12928689,-0.9012412,0.15659864,-0.03089361,-2.3894134,1.1971009,-1.958457
1570714912,-0.7326257,-8.149862,-0.8379706,-0.2056023,0.13529271,1.4615874,-6.9862804,-0.38307226,-4.0653543
1570714912,2.5330653,-8.719683,3.2465374,-0.61361104,0.8341275,1.5872924,-3.5769374,-1.5705963,-0.6799533
1570714912,2.3558946,-9.710882,5.722142,-1.0354686,0.81175625,0.87567407,-2.4947581,-2.27928,3.3997664
1570714912,1.2018893,-5.2624555,3.6774938,-1.3646454,1.104713,0.07670138,-4.036624,2.4995465,0.770933
1570714912,2.2888567,-6.919243,3.2752678,-0.92254716,1.9249916,-0.21412468,-2.8443117,0.90500826,0.35434186
1570714913,5.746084,-6.445191,3.040636,-0.800038,1.5382888,0.14914156,0.7517793,1.4556746,0.07182605
1570714913,7.4603324,-8.566454,3.2321723,-0.7329243,0.98113847,0.27165073,2.6384103,-0.5602432,0.24420857
1570714913,4.5202527,-9.988609,1.8243817,-0.9150901,0.74357724,0.41013932,-0.1388637,-1.8579005,-1.067814
1570714913,3.7349546,-8.336611,3.620033,-1.11217,0.7307937,0.27165073,-0.78050977,-0.076614454,0.8714894
1570714913,4.405331,-7.0964136,3.6774938,-1.1079088,0.46127358,0.37072334,0.0,1.292869,1.1444284
1570714913,4.745308,-7.728483,2.3319526,-0.8437152,0.25886714,0.6317211,0.50278234,0.79966336,-0.0047884034
1570714913,5.4779334,-8.264784,3.596091,-0.9012412,0.23436533,0.6700718,1.4221559,0.33997664,1.4556746
1570714913,4.132392,-7.1969705,4.4819455,-1.0535786,0.36326626,0.82453984,0.2873042,1.6184803,2.5713725
1570714913,0.63206923,-6.4164605,3.1316159,-1.0067056,0.4932325,0.7244019,-2.9592333,2.5474305,1.436521
1570714913,2.336741,-8.058883,2.1499932,-0.5986969,0.33663383,0.23969181,-1.115698,0.9911995,0.62728083
1570714913,4.122815,-10.060435,2.9352913,-0.60189277,0.27165073,0.15979454,0.7134721,-0.9672575,1.5370775
1570714913,2.8778305,-9.950302,5.243302,-0.52945256,0.6796594,0.39735577,-0.4213795,-0.80445176,3.9600096
1570714913,4.4723687,-7.1826053,2.7868507,0.18642697,0.122509144,0.03089361,1.2354081,1.982399,1.484405
1570714913,4.4580035,-7.0102224,3.2704794,1.8706614,-0.57206446,-0.24608359,1.1683705,2.087744,1.6759412
1570714913,1.5227122,-8.580819,4.582502,2.6930707,-0.6594188,-0.7329243,-1.9249382,0.33518824,2.3942018
1570714913,2.4468741,-12.291832,3.4332852,2.4512482,-1.2996622,-2.3905263,-1.508347,-3.7493198,0.6751649
1570714913,9.102755,-13.757083,0.38307226,1.912208,-1.0312074,-2.81558,3.8498764,-5.865794,-2.432509
1570714913,10.223241,-12.20564,0.22984336,1.4264326,-0.1384886,-1.2400056,5.023035,-4.620809,-3.1842883
1570714913,7.479486,-9.002198,1.4317327,1.9452322,-1.2719646,-0.64343935,2.8107927,-2.3415294,-2.5617957
1570714913,4.5777135,-3.2034419,2.6192567,2.299976,-1.022685,-0.9278736,-1.0630256,3.6727054,-1.3024458
1570714913,2.27928,-7.2687964,5.559336,1.7428257,-0.47725302,-1.2570504,-3.4524388,-0.24420857,1.5562311
1570714913,2.906561,-8.422802,2.8778305,1.0535786,-1.2719646,-1.230418,-3.8402996,-1.9871874,-0.89543146
1570714913,6.191406,-9.088389,0.92895025,0.91615534,-0.91828597,-0.67539823,-1.067814,-3.4093432,-2.944868
1570714913,5.2241483,-6.066907,1.9536686,0.81601745,-0.08735435,-0.018110048,-1.1204864,-1.0151415,-2.6623523
1570714913,2.8203697,-5.746084,3.4141316,0.31958908,-0.063917816,0.4506206,-3.9600096,-0.44532153,-0.9624691
1570714913,2.5570073,-5.1523223,3.1747115,0.0074570784,-0.03835069,0.9246777,-4.19943,0.5602432,-1.340753
1570714913,4.1946416,-4.3526587,3.8163576,-0.4847101,-0.15659864,1.4221714,-2.681506,1.4891934,-0.80445176
1570714913,7.398083,-4.213795,3.8355112,-0.7925809,-0.87460876,1.7524135,0.4309563,2.2122424,-0.19153613
1570714913,13.120225,-5.377377,4.582502,-0.71374893,-0.92254716,1.3614495,6.5984197,1.5131354,0.7134721
1570714913,7.3789296,-6.7372837,9.299079,0.24927948,-0.15659864,0.19601464,2.1499932,0.48841715,5.2289367
1570714913,7.326257,-7.7093296,4.9559975,0.6210681,-0.9481143,-0.36326626,1.6184803,-1.2689269,3.107674
1570714913,9.121908,-10.951078,-0.39264908,-0.8991106,-0.8991106,0.23436533,2.4995465,-3.3087866,-4.0557775
1570714913,5.7125654,-20.149601,2.0254946,-0.2769772,0.045807768,0.57632565,0.2825158,-12.957419,-1.2976574
1570714913,5.449203,-5.7987566,3.787627,-0.6540923,0.02450183,-0.37604982,-0.2633622,-0.17717093,2.3415294
1570714914,0.06703765,-6.789956,-2.0733786,-0.01065297,0.0031958907,0.42505348,-5.363012,1.1683705,-5.0374002
1570714914,1.3455414,-9.576807,0.78050977,-0.23116943,0.36646214,1.5436152,-4.7548847,-2.791639,-3.5673606
1570714914,2.1164744,-9.950302,5.674258,-0.6168069,1.474371,1.4072572,-3.2752678,-2.3989902,2.4947581
1570714914,1.5131354,-7.264008,4.4005427,-1.434955,0.88952297,0.33769912,-3.5865142,0.51714754,1.3072342
1570714914,0.7565677,-7.5082164,2.6240451,-1.2421362,1.8291148,-0.26525894,-4.2425256,0.38307226,-0.34476504
1570714914,3.3566709,-7.513005,2.135628,-1.1153659,1.8482902,0.046873067,-1.508347,0.46447513,-0.8283938
1570714914,5.3725886,-7.455544,4.3766007,-0.9065677,1.7374994,0.11505207,0.6991069,0.63206923,1.388637
1570714914,5.60722,-8.595184,2.384625,-0.8671517,1.2836828,0.175774,1.0965444,-0.40701428,-0.58897364
1570714914,4.390966,-9.23683,3.2609026,-1.1473248,0.9992485,0.054330144,0.019153614,-0.94331545,0.37828386
1570714914,4.6255975,-7.0581064,3.3135753,-1.2634422,0.6285252,0.088419646,0.32561144,1.340753,0.6464345
1570714914,5.2145715,-8.078036,2.27928,-1.0077709,0.312132,0.4516859,1.0151415,0.4405331,-0.15322891
1570714914,5.046977,-8.341399,4.0701427,-1.1036476,0.42079228,0.8564987,1.0582372,0.33997664,1.8579005
1570714914,3.5482068,-7.690176,3.892972,-1.2293527,0.6125457,0.9694202,-0.15801731,1.1731589,1.9393034
1570714914,1.3694834,-6.3589997,4.687847,-1.2836828,0.70629185,0.574195,-2.0925324,2.657564,3.0071173
1570714914,3.0693667,-7.0245876,3.3039982,-0.67646354,0.46553475,-0.0031958907,-0.31124622,2.0590134,1.8291701
1570714914,4.295198,-8.920795,4.2042184,-0.50921196,0.35367858,0.122509144,0.91937345,0.18195933,2.8395233
1570714914,3.9983168,-8.408437,6.1626754,-0.029828314,0.3185238,0.38670278,0.7278373,0.7422025,4.841076
1570714914,4.189853,-7.038953,2.719813,1.0589051,-0.33024204,0.023436533,0.9624691,2.1021092,1.2401965
1570714914,1.5610195,-6.8569937,2.360683,2.4810765,-0.6881818,-0.26738954,-1.7286136,2.1691468,0.40222588
1570714914,0.33039984,-10.237606,4.936844,2.8944118,-0.9023065,-1.4445426,-3.2561142,-0.34955344,2.3750482
1570714914,5.8322754,-17.223886,3.3997664,2.3926568,-1.3124459,-3.3162694,-0.30645782,-7.469909,1.6472107
1570714914,12.943054,-14.978126,-1.4317327,1.3049887,-0.50921196,-1.736434,8.078036,-7.867347,-4.5920787
1570714914,9.160215,-8.264784,-0.33518824,1.9026203,-0.9438531,-0.64237404,4.4244847,-1.9153614,-3.8738184
1570714914,4.6495395,-3.2082303,1.0342951,2.4320729,-1.9633423,-0.50068957,-0.44532153,3.3854012,-3.2848446
1570714914,3.5242648,-6.0046577,5.056554,1.872792,-0.3100014,-1.0674275,-2.0398598,1.5275006,0.2825158
1570714914,2.657564,-7.9391727,4.1419687,1.1899366,-0.936396,-1.2677033,-3.5482068,-1.2449849,0.45968673
1570714914,3.7253778,-9.035717,1.7764976,0.98859555,-1.1238883,-1.1398677,-3.1842883,-2.906561,-2.231396
1570714914,5.3199162,-7.9870567,1.3742718,0.99711794,-0.4911019,-0.351548,-1.412579,-2.7341783,-2.9879637
1570714914,3.2513258,-6.4308257,2.8395233,0.53371376,0.026632423,0.20240642,-3.2704794,-0.47884035,-1.8100165
1570714914,2.7581203,-6.325481,3.41892,0.091615535,0.091615535,0.5603462,-3.9312792,-0.842759,-1.0151415
1570714914,3.620033,-5.731719,3.2225955,-0.24608359,-0.07883197,1.0099015,-3.2704794,-0.25857377,-0.9720459
1570714914,6.0046577,-3.371036,3.3758245,-0.79151565,-0.3419603,1.4200408,-0.8619126,2.360683,-0.842759
1570714914,9.993398,-3.5242648,3.6774938,-0.7925809,-0.64876586,1.553203,2.9352913,3.2465374,-0.5650316
1570714915,12.100295,-6.220136,6.8043213,-0.5880439,-0.6956389,0.886327,6.5505357,1.1444284,2.4133554
1570714915,7.4124484,-7.455544,8.652645,0.32491556,-0.6413088,-0.113986775,1.8962077,-0.46447513,5.209783
1570714915,6.5840545,-7.015011,-0.04309563,0.06178722,-1.1143006,0.14168449,0.4405331,0.58418524,-1.6759412
1570714915,6.5505357,-16.242264,0.41180268,-0.82560515,0.2801731,0.74357724,1.0630256,-6.6510925,-4.2281604
1570714915,8.1402855,-16.361975,6.0381765,-0.28549957,0.39629045,-0.5315832,1.364695,-15.217546,1.5705963
1570714915,5.0278234,-3.1890767,0.521936,-0.63811284,-0.26419365,-0.5283873,-1.0342951,3.241749,-1.4173675
1570714915,-1.5131354,-7.943961,-2.3511062,-0.067113705,0.067113705,0.84584576,-7.5800424,-0.8810662,-5.425261
1570714915,0.58897364,-11.3964,1.8004397,-0.42292288,0.8234745,1.9548199,-5.3199162,-4.1180267,-2.0350714
1570714915,2.930503,-7.6470804,6.933608,-1.0130974,1.4860892,1.0589051,-2.2122424,0.05746084,3.7205894
1570714915,1.5514427,-7.297527,2.15957,-1.1643696,1.4946116,0.005326485,-2.8060043,0.90979666,0.7134721
1570714915,2.0446482,-8.317456,0.8810662,-1.0099015,1.4658486,-0.3483521,-2.4995465,0.01436521,-2.231396
1570714915,4.074931,-6.579266,4.271256,-1.0599705,1.6810386,-0.15233746,-0.63206923,1.4460979,1.1779473
1570714915,5.8562174,-7.714118,3.715801,-0.64237404,1.3763636,0.21732058,1.2976574,0.39743748,0.61291564
1570714915,4.8267107,-10.089166,1.6519991,-0.907633,1.2059162,0.32171968,0.46447513,-1.8626889,-1.4317327
1570714915,4.4101195,-8.456321,3.0214825,-1.1430637,0.5688686,0.15127216,0.18674773,-0.10534488,0.08140286
1570714915,4.7884035,-8.255207,2.528277,-1.1089741,0.21625528,0.33130735,0.6464345,0.21547815,-0.16759412
1570714915,4.357447,-8.508993,3.4955344,-1.09406,0.24714889,0.79045033,0.38307226,0.11492168,1.043872
1570714915,3.9073372,-7.762002,4.4244847,-1.1846102,0.46873066,1.0067056,0.19632454,1.0486604,2.231396
1570714915,2.0398598,-7.120356,4.7548847,-1.3774289,0.839454,0.8234745,-1.3694834,1.8674773,2.834735
1570714915,1.412579,-6.5265937,3.4380736,-1.0759499,0.4911019,0.29934844,-1.8195933,2.5809495,1.7956513
1570714915,4.3047748,-8.748413,2.456451,-0.47086126,0.14701098,-0.04154658,1.0869676,0.39264908,0.9672575
1570714915,3.0550013,-9.9790325,7.129933,-0.56780326,0.74357724,0.30360964,-0.095768064,-0.79487497,5.746084
1570714915,3.8977604,-6.0046577,5.0374002,-0.0010652969,0.25034478,0.044742472,0.80924016,3.1986535,3.6631286
1570714915,4.4819455,-5.3582234,2.3127987,1.2996622,-0.4506206,-0.3494174,1.2497733,3.715801,0.7469909
1570714915,1.1300632,-7.455544,4.429273,2.7133112,-0.67326766,-0.6945736,-2.207454,1.5035586,2.2505496
1570714915,1.7286136,-13.01488,4.865018,2.8688447,-1.5095258,-2.1124837,-2.3127987,-2.753332,2.2266076
1570714915,13.072341,-18.65562,-0.8714894,1.872792,-1.3721025,-3.0595329,8.279149,-10.70687,-4.0414124
1570714915,9.308656,-13.804967,-0.033518825,1.3976696,-0.14488038,-1.0173585,5.3199162,-7.5082164,-4.213795
1570714915,6.6846113,-6.799533,0.78529817,2.0783944,-2.2808008,-0.6903124,1.910573,-0.19632454,-2.7150247
1570714915,4.1419687,-3.016694,2.4708161,2.4160933,-1.1313454,-0.71374893,-1.6711528,3.98874,-1.9632454
1570714915,2.6671407,-6.981492,5.329493,1.6842345,-0.23436533,-1.1665001,-3.241749,-0.17717093,1.4269443
1570714915,2.834735,-8.523358,2.5139117,1.1558472,-1.259181,-1.2186997,-3.643975,-2.0446482,-1.2162545
1570714915,4.6686935,-9.653421,1.3982137,1.0333381,-1.0386645,-0.7638179,-2.3654714,-3.9025488,-2.6671407
1570714916,4.9655743,-6.8186865,1.8962077,1.0003139,-0.25993246,-0.07883197,-1.685518,-2.006341,-2.5617957
1570714916,3.098097,-6.8665705,3.371036,0.43890235,-0.12463974,0.29295665,-3.5625722,-1.2545617,-0.91458505
1570714916,2.8107927,-6.4739213,2.8634653,-0.036220096,-0.13316211,0.6189375,-4.060566,-0.866701,-1.4413095
1570714916,3.9312792,-5.6551046,2.8203697,-0.5315832,-0.2056023,1.0248157,-3.0885203,-0.12928689,-1.4173675
1570714916,6.421249,-3.9121256,3.596091,-0.7797974,-0.31532788,1.3763636,-0.6799533,2.0207062,-0.60333884
1570714916,10.730812,-2.695871,5.363012,-0.5571503,-0.3494174,1.5638559,3.7445314,3.7924154,1.5993267
1570714916,8.834604,-6.742072,8.279149,0.29615256,0.04261188,0.7542302,3.5529952,0.6847417,3.667917
1570714916,8.815451,-8.954314,8.690952,0.9822038,-0.8053645,-0.574195,2.7868507,-2.633622,5.6215854
1570714916,8.8777,-3.6727054,2.336741,-0.29082605,-1.4711751,-0.11824796,2.6384103,2.896984,-1.4077905
1570714916,7.680599,-11.247959,2.0925324,-0.8096257,-0.74357724,0.74996907,1.4030021,-4.4915223,-1.2449849
1570714916,3.1268275,-19.871874,0.45489833,-0.08096257,-0.43357584,0.49216717,-3.0358477,-12.952631,-2.753332
1570714916,6.2632318,-5.5976434,2.8395233,-0.6157416,-0.17044751,-0.3185238,0.047884032,1.3263878,-0.25857377
1570714916,0.009576807,-7.9966335,-2.2697031,0.29721785,-0.16192514,0.5102772,-6.181829,-1.0342951,-5.3247046
1570714916,0.93852705,-10.036493,2.9640217,-0.41440052,1.0109668,1.3412088,-4.9703627,-2.873042,-0.19153613
1570714916,2.504335,-8.408437,6.181829,-0.9001759,1.1878061,1.0258809,-3.016694,-0.9576807,2.992752
1570714916,1.6519991,-6.0764837,3.6008794,-1.1036476,1.3007276,0.33130735,-3.2609026,1.4413095,0.8858546
1570714916,1.4556746,-8.6813755,1.340753,-0.9715508,1.718324,-0.02769772,-3.6535518,-0.93852705,-1.8291701
1570714916,4.8027687,-7.97748,3.9791632,-1.0386645,1.6128596,-0.1374233,-0.17238252,-0.14844051,0.79008657
1570714916,5.8226986,-6.885724,3.4763808,-0.9534408,1.2453321,0.06285252,0.9528923,1.0247183,0.32561144
1570714916,4.6016555,-7.9726915,2.6192567,-0.7968421,1.3188376,0.36752746,-0.076614454,0.05267244,-0.51235914
1570714916,5.281609,-8.154651,3.643975,-0.98966086,0.7925809,0.16192514,0.7613561,-0.0047884034,0.5793968
1570714916,6.1530986,-7.7572136,2.8203697,-1.0610358,0.32385027,0.32385027,1.7286136,0.51235914,-0.038307227
1570714916,5.5401826,-7.867347,2.7868507,-0.95663667,0.26099774,0.59656626,1.4221559,0.36870706,0.49320555
1570714916,5.0421886,-7.2687964,3.620033,-1.0248157,0.3206544,0.8319969,1.1061212,0.94331545,1.8004397
1570714916,2.719813,-6.7372837,4.9320555,-1.1846102,0.47086126,0.868217,-1.3503298,2.0159178,2.7485435
1570714916,0.79008657,-6.919243,3.5434184,-0.9726161,0.527322,0.5262567,-2.791639,1.9967642,1.5945383
1570714916,2.0015526,-8.66701,2.873042,-0.5486279,0.23116943,0.16618632,-1.5705963,0.38307226,0.51714754
1570714916,3.5434184,-10.46745,3.3806129,-0.5614115,0.1384886,0.29082605,0.047884032,-1.13964,1.4508862
1570714916,4.477157,-10.16578,6.3111157,-0.71055305,0.50814664,0.34302562,0.7757214,-1.4748282,4.5298295
1570714916,5.6551046,-6.8282633,5.4300494,-0.58058685,0.13209683,0.023436533,2.2601264,2.0685902,4.596867
1570714916,5.3438582,-5.779603,1.8770541,0.82880104,-0.8138869,-0.12890093,2.3942018,3.347094,0.6751649
1570714916,2.27928,-5.645528,2.2984335,2.1465733,-1.1356065,-0.116117366,-0.34476504,3.8115692,0.5267244
1570714917,6.7851677,-15.298949,2.0685902,2.0208683,-0.7414467,-3.1841726,0.91458505,-6.6175733,-0.5554548
1570714917,6.7851677,-15.298949,2.0685902,2.0208683,-0.7414467,-3.1841726,0.91458505,-6.6175733,-0.5554548
1570714917,9.639056,-14.834474,1.8195933,1.6576021,-0.2119941,-2.3330002,4.185065,-7.5321584,-1.115698
1570714917,7.216124,-10.764331,2.2170308,1.9633423,-0.31319728,-0.6903124,2.1404164,-3.9695864,-1.4173675
1570714917,5.3342814,-7.541735,1.3838485,2.4853377,-1.5681171,-0.57099915,0.0047884034,-1.388637,-2.4756045
1570714917,4.146757,-4.3143516,2.96881,1.9686687,-0.023436533,-1.2623769,-1.7238252,2.4516625,-1.9153614
1570714917,4.5154643,-6.9958572,3.8498764,1.1835449,-0.74464256,-1.4679792,-1.8243817,-0.6368576,-0.19632454
1570714917,5.616797,-8.623915,1.9440918,0.81601745,-1.0674275,-1.2442669,-1.043872,-2.5474305,-2.1739352
1570714917,5.4204726,-8.470686,1.4987702,0.9491796,-0.33343795,-0.37072334,-1.1587936,-3.3758245,-2.9783869
1570714917,2.60968,-5.506664,2.9113493,0.50495076,-0.204537,0.39735577,-3.9217024,-0.47405192,-1.8148049
1570714917,2.6767175,-5.0517654,3.1028855,0.12570503,-0.3920293,0.89698005,-4.1180267,0.40222588,-1.388637
1570714917,3.845088,-4.2521024,3.1842883,-0.18536167,-0.36752746,1.5936842,-3.1507695,1.364695,-1.3838485
1570714917,6.895301,-3.6822822,3.7780502,-0.43464115,-0.36859274,2.0112805,0.521936,2.4229321,-0.49799395
1570714917,13.9198885,-5.861006,5.5641246,-0.53797495,-0.65196174,1.5308317,7.833828,0.94810385,1.2976574
1570714917,6.823475,-4.7548847,9.370906,0.039415985,-0.24501829,0.46020827,2.542642,1.4748282,4.3957543
1570714917,7.752425,-6.4164605,6.1243677,0.7382508,-1.2325486,-0.56780326,1.388637,-1.043872,3.3327289
1570714917,5.923255,-3.7062242,0.023942016,-0.5017549,-1.4498692,0.39948636,-0.35913026,2.834735,-3.6966474
1570714917,5.9424086,-14.374787,2.9161377,-0.40161693,0.17044751,1.09406,-0.22984336,-7.5848308,-0.5410896
1570714917,7.369353,-26.618734,1.7908629,-0.26738954,0.40800872,0.93000424,1.5035586,-19.61809,-1.7812861
1570714917,5.889736,-2.9352913,0.90979666,-1.0770152,-0.78299326,-0.12144385,-0.033518825,4.1515455,-2.3750482
1570714917,-2.0398598,-6.6750345,-2.4516625,0.09800732,0.019175345,1.0695581,-7.8912888,0.5315128,-5.60722
1570714917,-1.2018893,-9.730036,3.5673606,-0.9491796,2.2871926,1.9154038,-6.5505357,-2.1883004,0.30166942
1570714917,1.8770541,-8.571242,10.630256,-0.7584914,2.019803,0.49003658,-2.9400797,-0.7565677,7.1826053
1570714917,4.783615,-5.5737014,1.364695,-1.2858135,1.5840966,-0.7627526,0.04309563,2.2984335,-2.0494366
1570714917,3.0119057,-8.920795,0.6512229,-1.2730298,1.8035477,-0.3824416,-1.7142484,-1.0055647,-2.695871
1570714917,3.0214825,-8.106767,5.6790466,-0.975812,1.6906263,0.20134112,-1.5179238,-0.076614454,2.3463178
1570714917,4.486734,-8.1402855,2.6862943,-0.9960526,1.4594568,0.25780186,0.15322891,0.009576807,-0.62249243
1570714917,4.9799395,-9.471462,3.6583402,-1.32736,1.3795595,0.08096257,0.842759,-1.1731589,0.45489833
1570714917,5.1235914,-7.560889,3.122039,-1.3699719,0.771275,0.046873067,1.0773908,0.8619126,0.1436521
1570714917,4.855441,-8.226477,2.6862943,-1.1494554,0.40587813,0.3057402,0.6751649,0.36870706,-0.79487497
1570714917,4.501099,-7.9631147,3.5482068,-1.0631664,0.3845722,0.56673795,0.8714894,0.521936,0.770933
1570714917,3.8307228,-7.728483,4.8602295,-1.2037855,0.71055305,0.721206,0.10055647,1.1204864,2.5953147
1570714917,2.135628,-6.3685765,4.189853,-1.3124459,0.8948494,0.64663523,-1.1779473,2.6384103,2.183512
1570714917,3.0502129,-6.411672,2.2505496,-0.8298663,0.5528891,0.26525894,-0.110133275,2.695871,0.46926352
1570714917,4.879383,-9.792285,1.7956513,-0.6551576,0.56247675,0.09587672,1.6089035,-0.31603462,-0.33997664
1570714918,2.896984,-7.536947,5.8562174,-0.6903124,0.9715508,0.15553336,0.17717093,1.2545617,4.223372
1570714918,3.2848446,-6.042965,4.9464207,-0.13635801,0.7563608,-0.1033338,0.21068975,2.6384103,4.0653543
1570714918,3.394978,-5.985504,2.6288335,1.4466733,-0.14914156,-0.5582156,0.6751649,3.1028855,0.7086837
1570714918,1.1444284,-6.7372837,4.271256,2.5396678,-0.37072334,-0.89271885,-1.9728222,2.7341783,1.7860745
1570714918,3.193865,-15.217546,5.1906295,2.9125218,-1.1920673,-2.8145144,-1.4987702,-4.8841715,2.4468741
1570714918,13.996503,-19.416975,1.0582372,1.2975317,-0.48151422,-3.1447566,8.39886,-12.239159,-1.4652514
1570714918,9.193734,-11.209652,0.8858546,1.4019308,-0.3877681,-1.0429257,4.280833,-5.1810527,-3.1172507
1570714918,6.3111157,-5.693412,0.79487497,2.497056,-2.9359584,-0.7084225,1.5945383,0.4357447,-3.0358477
1570714918,5.0996494,-3.3854012,2.0111294,2.1305938,-1.0503827,-1.0056403,-0.7278373,4.0940847,-2.0925324
1570714918,2.8107927,-5.770026,4.084508,1.2581156,-0.3920293,-1.1601083,-3.0310593,1.0055647,0.5363012
1570714918,1.7764976,-8.269572,2.695871,1.1462595,-1.0077709,-1.0855376,-4.477157,-1.7190368,-1.2258313
1570714918,2.8921957,-9.739613,2.2649148,1.3305559,-0.8437152,-0.29721785,-4.1802764,-4.1946416,-1.661576
1570714918,4.2185836,-7.5800424,1.910573,1.1718266,-0.46127358,0.32811147,-2.5953147,-1.9871874,-2.3894134
1570714918,3.9552212,-6.167464,3.3614593,0.44849002,-0.21945117,0.66368,-2.944868,-0.62249243,-1.1492168
1570714918,4.477157,-6.1243677,3.1172507,-0.0692443,-0.36752746,0.7968421,-2.1978772,-0.41180268,-1.2306197
1570714918,5.4683566,-5.023035,3.4284968,-0.5219955,-0.3163932,0.95450604,-1.2497733,0.7038953,-0.9672575
1570714918,7.2065473,-4.295198,4.1419687,-0.50495076,-0.4495553,1.1633042,0.78050977,1.9057846,0.08619126
1570714918,9.548077,-4.3622355,4.7884035,-0.4112046,-0.63811284,1.3412088,3.2944214,2.1308396,0.93373865
1570714918,7.8146744,-6.4547677,7.728483,0.012783563,-0.41866168,0.99818325,2.3415294,0.59376204,2.896984
1570714918,7.431602,-6.2823853,7.771579,0.88419646,-1.0429257,-0.044742472,1.3072342,0.38307226,3.9983168
1570714918,6.9767036,-3.7924154,0.6751649,-0.33876443,-1.2645074,0.49429777,0.7469909,2.882619,-2.896984
1570714918,8.1881695,-16.395493,3.4955344,-0.31532788,-0.23649593,1.1164312,2.054225,-9.490616,0.19153613
1570714918,5.722142,-25.594017,0.8523358,-0.4154658,-0.32385027,0.5241261,0.6512229,-19.603724,-2.111686
1570714918,3.6631286,-2.6288335,-0.45968673,-0.45807767,-0.6604841,-0.12996623,-2.4133554,4.462792,-3.4380736
1570714918,-3.1028855,-8.130709,-2.6384103,0.23756121,0.43357584,1.2123079,-9.064447,-0.93373865,-5.60722
1570714918,0.8571242,-10.510546,3.2800562,-0.7979074,1.628839,1.6032718,-4.644751,-3.0071173,0.18195933
1570714918,3.0454245,-8.298303,6.9240313,-0.8309316,1.2954011,0.68498594,-2.0254946,-0.5267244,3.7445314
1570714918,1.6328455,-6.3542113,2.858677,-1.2069814,1.6980833,-0.37285393,-3.3039982,1.5179238,-0.2681506
1570714918,1.7477672,-9.241618,0.6368576,-1.1601083,1.6916915,-0.41653112,-3.2848446,-1.5035586,-2.1308396
1570714918,4.367024,-8.078036,4.213795,-1.1856755,1.8461596,-0.028763017,-0.7422025,-0.062249243,1.1204864
1570714918,5.482722,-7.6375036,2.6384103,-0.87993526,1.4786321,0.21305938,0.90979666,0.47405192,-0.4309563
1570714918,4.4244847,-9.868899,2.3558946,-1.0535786,1.4232367,0.24927948,0.39743748,-1.4221559,-0.50278234
1570714918,4.43885,-8.331821,2.8060043,-1.32736,0.85862935,-0.0042611877,0.37349546,-0.41180268,0.5363012
1570714919,4.3382936,-7.52737,1.9632454,-1.1771531,0.44209823,0.14594568,0.16759412,1.2066777,0.38307226
1570714919,4.912902,-8.106767,2.6862943,-0.9960526,0.27165073,0.47938362,0.7230489,0.45968673,0.23463176
1570714919,4.759673,-8.437167,3.7110126,-1.0674275,0.31958908,0.7254672,0.6607997,0.82360536,0.48362875
1570714919,3.3518825,-7.52737,4.8123455,-1.1931325,0.59656626,0.8362581,0.1436521,1.0247183,2.4660277
1570714919,1.2880806,-6.143522,2.801216,-1.0738193,0.47938362,0.53690964,-1.8579005,2.6479871,2.9879637
1570714919,3.2225955,-8.5473,2.8203697,-0.51240784,0.29295665,0.08735435,-0.94810385,1.0151415,0.63206923
1570714919,4.6255975,-8.6095495,4.261679,-0.54330146,0.23543063,0.09907261,1.4221559,0.04309563,2.4851813
1570714919,3.8786068,-8.461109,5.45878,-0.18323107,0.27271602,0.22051647,0.32561144,1.043872,4.2042184
1570714919,3.715801,-7.431602,2.231396,0.9790079,-0.39096397,-0.053264845,0.47405192,1.5610195,1.283292
1570714919,1.9440918,-7.374141,3.0550013,2.342588,-0.6668759,-0.3877681,-0.6368576,1.7717092,1.3934253
1570714919,0.8475474,-10.022128,4.7309427,2.8145144,-1.0844723,-1.5585294,-2.7006595,-0.37828386,2.4708161
1570714919,5.5497594,-16.19917,3.845088,2.2509725,-1.3433394,-3.3247917,-0.5602432,-6.493075,1.8004397
1570714919,12.406754,-13.541605,-0.90979666,1.1366718,-0.38670278,-1.8237884,7.627927,-6.7803793,-3.8546648
1570714919,9.074024,-8.614338,0.10534488,1.8131354,-1.2240262,-0.67539823,4.132392,-2.2361844,-3.5051112
1570714919,5.5641246,-3.1842883,1.8914193,2.478946,-2.22434,-0.46553475,0.30645782,2.9400797,-2.0638018
1570714919,3.8163576,-5.410896,5.530606,2.138051,-0.57739097,-0.88845766,-1.7429788,2.1978772,0.78050977
1570714919,2.336741,-7.517793,4.9224787,1.4179102,-1.162239,-0.96835494,-3.8546648,-0.90500826,1.3599066
1570714919,2.9496565,-9.533711,2.6910827,1.1931325,-1.4115185,-0.80749506,-3.691859,-3.5625722,-1.3551182
1570714919,4.960786,-8.762778,1.436521,1.2922052,-0.74464256,-0.01384886,-1.8914193,-3.0310593,-2.6048915
1570714919,4.271256,-5.923255,2.3223755,0.9278736,-0.28869548,0.2791078,-2.6192567,-0.29688102,-1.8100165
1570714919,3.3854012,-6.2967505,2.920926,0.4516859,-0.17044751,0.46340418,-3.41892,-0.7661445,-1.13964
1570714919,3.2321723,-6.2249246,2.5809495,-0.025567126,-0.044742472,0.7979074,-3.5051112,-0.46926352,-1.6136919
1570714919,4.5633483,-5.032612,3.2944214,-0.4452941,-0.19388404,1.0983212,-2.0207062,0.94810385,-0.8283938
1570714919,6.9767036,-3.9264908,4.175488,-0.46660006,-0.5283873,1.3710371,0.5746084,2.3558946,0.21068975
1570714919,10.548853,-4.841076,5.473145,-0.4474247,-0.6253293,1.3539925,4.343082,1.757344,1.7190368
1570714919,7.9822683,-7.273585,7.848193,-0.057526033,-0.26312834,0.6988348,1.9488802,-0.4405331,4.223372
1570714919,7.3885064,-7.8529816,7.8050976,0.5944357,-0.7297284,-0.089484945,1.0534488,-0.9624691,4.8937483
1570714919,8.63828,-9.528923,1.1731589,-0.6125457,-1.0269462,0.025567126,2.4420857,-2.7341783,-2.2409728
1570714919,6.229713,-17.650055,0.94331545,-0.3398297,-0.24714889,0.4836448,0.02873042,-10.740389,-2.2218192
1570714919,6.3589997,-9.56723,4.8698063,-0.25354066,0.3462215,-0.5113425,0.16759412,-2.6671407,1.661576
1570714919,1.5370775,-6.8426285,-1.6807296,0.03089361,-0.37604982,0.36326626,-4.6830587,0.07182605,-4.7740383
1570714919,1.2737153,-10.117896,-0.01436521,-0.025567126,0.50282013,1.54255,-4.0653543,-2.5378537,-1.8004397
1570714919,1.9009962,-9.404425,4.76925,-0.800038,1.4882199,1.4583915,-4.0174704,-1.4939818,0.8619126
1570714919,1.3455414,-6.6510925,4.0078936,-1.395539,1.1281495,0.54649734,-3.8786068,1.043872,0.90500826
1570714920,0.58418524,-7.8912888,2.1308396,-1.2112426,1.668255,0.17683929,-4.673482,0.58418524,-0.9576807
1570714920,3.2848446,-7.0341644,3.4859576,-1.1292148,1.728977,-0.05113425,-1.5849615,0.92895025,0.48362875
1570714920,5.363012,-6.5505357,4.6591167,-0.9246777,1.503134,-0.122509144,0.60812724,1.484405,1.661576
1570714920,5.3965306,-8.274361,2.2361844,-0.92148185,1.5041993,0.18855755,0.8714894,0.2825158,-0.30166942
1570714920,5.267244,-9.466674,3.6104562,-1.0407951,1.1473248,0.23223473,0.58897364,-1.3072342,0.37349546
1570714920,5.4444146,-7.6853876,2.2697031,-1.1707613,0.47831833,0.19814523,1.0582372,0.61291564,-0.40222588
1570714920,5.281609,-7.9822683,2.834735,-0.9534408,0.2119941,0.39522517,0.9672575,0.6703765,0.31603462
1570714920,4.548983,-8.073248,3.7924154,-0.9662243,0.3100014,0.7766015,0.4357447,0.5554548,0.3878607
1570714920,3.394978,-7.7189064,5.171476,-1.1292148,0.60934985,0.9704855,-0.16280572,0.9768343,2.8299465
1570714920,1.6424223,-6.2009826,3.466804,-1.1462595,0.47725302,0.6785942,-1.6089035,2.4899697,2.681506
1570714920,2.882619,-7.9248075,2.183512,-0.70735717,0.380311,0.10120321,-0.6943185,1.436521,0.81881696
1570714920,2.992752,-9.11712,4.156334,-0.68072474,0.38670278,0.13103153,-0.2825158,0.062249243,2.3989902
1570714920,3.371036,-9.423578,5.913678,-0.4154658,0.4836448,0.17044751,-0.46447513,-0.61291564,4.477157
1570714920,5.12838,-6.742072,3.964798,0.28549957,0.1043991,-0.059656627,1.6424223,2.1547816,2.3511062
1570714920,3.2561142,-5.971139,2.0685902,1.9090121,-0.58484805,-0.15233746,0.51235914,3.1603463,0.35434186
1570714920,0.18195933,-8.508993,4.2999864,2.8091881,-0.51240784,-0.89698005,-3.0262709,0.94810385,1.2018893
1570714920,1.8052281,-14.551958,4.3957543,2.4874682,-1.0844723,-2.9753745,-3.1268275,-5.2289367,1.5705963
1570714920,11.243171,-16.203957,0.30166942,1.4381509,-0.40800872,-2.8443427,5.449203,-9.011775,-2.1739352
1570714920,9.198523,-10.505757,-0.22505496,1.4828933,-0.019175345,-0.7339896,4.1132383,-4.0078936,-3.7588966
1570714920,8.101978,-6.459556,-0.1388637,2.231797,-1.5862272,-0.43890235,2.6431987,0.7182605,-3.98874
1570714920,5.78918,-3.4141316,1.6328455,2.160422,-1.4179102,-0.8042992,0.0,3.394978,-2.3942018
1570714920,3.2082303,-7.335834,5.530606,1.1973938,-0.43037996,-1.2421362,-2.633622,-0.7517793,1.5658079
1570714920,3.2034419,-8.480263,2.8443117,0.8596946,-1.140933,-1.2964664,-3.1986535,-2.4372973,-1.4748282
1570714920,4.256891,-9.174581,1.3742718,0.9289389,-0.93000424,-0.79151565,-2.4756045,-3.4524388,-2.882619
1570714920,4.2904096,-6.4643445,1.4939818,0.84158456,-0.39096397,0.01065297,-2.5761611,-0.92416185,-2.791639
1570714920,3.3039982,-5.9663506,3.5673606,0.38883337,0.0042611877,0.39522517,-3.5338416,-0.45010993,-0.78529817
1570714920,3.490746,-5.7365074,3.715801,0.02130594,0.031958908,0.7467731,-3.241749,-0.11971009,-0.6751649
1570714920,5.353435,-5.2480903,3.3183637,-0.3920293,-0.29828313,1.1611737,-1.2306197,0.58897364,-1.0103531
1570714920,7.800309,-4.0318356,3.7684734,-0.703096,-0.8224092,1.416845,0.6799533,1.8052281,-0.32561144
1570714920,11.549629,-4.5872903,4.855441,-0.7968421,-0.7957768,1.1963284,5.267244,1.9393034,1.1013328
1570714920,8.532935,-6.181829,7.943961,-0.22477765,-0.3781804,0.25567126,1.7190368,0.5363012,4.3622355
1570714920,7.9152308,-8.24563,4.841076,0.6285252,-0.839454,-0.2098635,1.6328455,-1.5993267,1.283292
1570714920,9.749189,-12.670115,1.2976574,-0.58484805,-1.0599705,0.14701098,3.3518825,-6.0285997,-2.054225
1570714921,6.14831,-17.314867,2.7581203,-0.20027582,-0.21518998,0.3877681,-0.21547815,-10.548853,-0.39264908
1570714921,5.2002063,-5.985504,2.528277,-0.50495076,-0.33556855,-0.49642837,-1.2258313,0.7422025,-0.5554548
1570714921,2.0685902,-5.884948,-1.0773908,-0.6498311,0.05646074,-0.25780186,-3.3087866,1.2018893,-3.4524388
1570714921,-0.047884032,-9.859323,-0.9672575,0.10013791,0.4857754,1.3465353,-7.1059904,-2.552219,-4.6686935
1570714921,3.0789435,-10.433931,5.1140146,-0.48151422,1.1963284,1.5308317,-2.5570073,-3.2082303,2.0350714
1570714921,2.327164,-8.255207,4.9224787,-1.0599705,1.2570504,0.8522375,-2.7389667,-1.3694834,2.3798366
1570714921,2.1404164,-7.335834,2.3558946,-1.4360203,1.8504208,0.09694202,-3.098097,0.33997664,0.18674773
1570714921,3.0071173,-7.599196,2.767697,-1.072754,1.5276358,0.088419646,-2.27928,-0.02873042,-0.062249243
1570714921,5.449203,-6.933608,3.9360676,-0.6977695,1.4360203,0.23010413,0.06703765,1.5993267,0.47884035
1570714921,5.0613422,-7.795521,2.0398598,-0.5614115,1.0951252,0.29828313,0.62249243,0.05746084,-0.6943185
1570714921,4.0940847,-8.1402855,2.8874073,-0.63491696,0.8703476,0.36859274,-0.47405192,-0.3878607,0.4357447
1570714921,4.223372,-9.308656,2.3415294,-0.8810006,0.49642837,0.32385027,0.16759412,0.12449849,-0.5410896
1570714921,4.606444,-7.795521,2.1212628,-0.78618914,0.31958908,0.4218576,-0.24899697,-0.62249243,-0.24420857
1570714921,3.9552212,-7.833828,2.9879637,-0.67646354,0.3206544,0.68179005,-0.23463176,0.45968673,-0.31124622
