time,ax,ay,az,gx,gy,gz,la_x,la_y,la_z,fox,foy,foz
1570715146,1.3772583,-4.024658,5.0146484,0.72276306,4.648407,0.42778015,6.236729,-1.6620095,-2.6590414
1570715146,1.6160889,-6.0770874,2.8353271,0.16668701,7.529953,-0.959198,8.063559,-3.7605827,-4.2772245
1570715146,-1.2467804,-7.339432,-0.17477417,-0.6354523,7.991211,-2.5922394,6.802469,-4.433179,-5.426401
1570715146,-5.2002106,-9.457703,5.020645,-0.82933044,7.050583,-3.4529724,3.373393,-5.8137903,1.0520813
1570715146,-10.047272,-8.846573,6.0495453,0.43727112,7.0143585,-3.4923859,-0.8275194,-4.197031,4.8853016
1570715146,-16.664246,-8.9830475,2.803009,-0.05381775,3.739746,-3.6468506,-7.895177,-3.2431598,1.9251413
1570715146,-19.607315,-8.474869,8.371323,0.3105011,0.7665863,-3.2399292,-11.955618,-2.0086913,8.203963
1570715146,-19.612701,-6.1046143,4.6231995,0.87402344,-0.8174591,-1.9030151,-12.202667,0.79039955,4.631962
1570715146,-16.777374,-4.3574524,3.2028503,0.5874634,-1.5237274,-0.9357605,-9.646107,3.0101647,2.345085
1570715146,-12.901749,-3.4973297,3.2782593,0.6385956,-1.3628693,-0.5447998,-5.7022734,3.9195147,1.878734
1570715146,-9.508575,-2.5031433,1.3688812,0.7515259,-0.6150665,-0.34240723,-2.5069866,4.77115,-0.34911704
1570715146,-8.724472,-2.442093,1.3419495,0.7611084,0.22756958,-0.096328735,-1.5889988,4.8617563,-0.702966
1570715146,-6.9401855,-2.4091644,-7.284363,-0.45010376,0.74635315,0.16040039,0.1431427,4.7266474,-9.325014
1570715146,-9.25119,-4.5836945,-0.044891357,-1.1499786,-0.25500488,0.13270569,-1.8677363,2.7132936,-1.5370032
1570715146,-8.733444,-3.241745,1.6310425,-0.6972351,-0.22410583,0.8485565,-1.2031546,3.84648,0.24203432
1570715146,-9.476257,-5.404907,4.139572,0.18693542,0.41931152,1.20755,-1.8119993,1.276257,2.8006363
1570715146,-3.1334076,-8.87291,3.2273865,0.47561646,0.7154541,0.87413025,4.707193,-1.4769874,1.985591
1570715146,-6.8964996,-10.289078,1.4646454,0.99546814,0.42356873,0.69836426,1.3462477,-3.7879992,0.1895262
1570715146,-8.028351,-9.416397,2.0063477,0.15922546,-0.14208984,0.91033936,0.17794895,-3.2181568,0.18933809
1570715146,-8.508392,-9.780914,5.379776,-0.066604614,0.08482361,1.1585541,0.059275627,-4.072511,3.9272022
1570715146,-8.443146,-8.112152,3.0669708,-0.4660797,-1.1540833,0.2157898,0.14737701,-2.29663,1.1941239
1570715146,-8.979446,-6.925232,-1.4167633,0.09744263,0.7335663,0.014465332,-0.52386093,-1.1467671,-2.4378352
1570715146,-3.6320038,-5.972336,0.55784607,-0.5214691,-2.0616913,-0.7173767,4.639408,0.100120544,-2.083116
1570715146,-5.9657593,-9.997589,10.383057,-0.038909912,-0.05899048,-1.6398926,2.2715297,-3.668748,7.167927
1570715147,-13.969574,-4.517853,-0.94750977,0.34991455,-0.50213623,0.11885071,-5.6851926,1.7094254,-3.2308555
1570715147,-15.275604,2.1236572,-1.1174927,-0.95503235,-1.2680664,0.76226807,-7.8458004,8.074653,-3.0726345
1570715147,-9.971848,-0.9403229,2.3277588,-2.099121,-1.085907,-0.5085907,-2.1353922,5.460799,-0.060683727
1570715147,-8.314468,-4.1329956,0.023345947,-2.159851,0.3660431,-0.99967957,-0.42942095,2.5655403,-1.6530707
1570715147,-5.822693,-7.2592163,2.2673035,-1.268219,-0.03768921,-0.8281708,1.7637987,-0.41548395,0.866963
1570715147,-6.732498,-7.764389,-0.5674286,-0.520401,0.37457275,-0.6119232,0.8366709,-0.9106841,-1.8062639
1570715147,-11.476608,-6.2039795,-1.391037,0.54592896,0.010253906,-0.059051514,-3.937173,0.7161212,-2.5177517
1570715147,-13.12381,-5.5288086,-0.43154907,0.13685608,0.012374878,0.62698364,-5.447868,1.3491225,-1.4116174
1570715147,-9.246414,-4.3221283,4.675873,-1.5462494,-0.52770996,0.5683899,-1.5664988,2.4918504,2.943645
1570715147,-15.482697,-7.7649994,-0.67097473,-1.9574432,1.4174652,0.54815674,-5.964928,-0.60385084,-0.6541323
1570715147,-12.106277,-9.290695,-0.03831482,0.53100586,0.51838684,2.511444,-1.7859831,-3.0693865,-1.0239143
1570715147,-12.106277,-9.290695,-0.03831482,0.53100586,0.51838684,2.511444,-1.7859831,-3.0693865,-1.0239143
1570715147,-9.811432,-6.7265167,-2.5432434,-1.3470459,-2.4430542,2.2557678,-0.40638065,-2.959467,-7.6243577
1570715147,-9.811432,-6.7265167,-2.5432434,-1.3470459,-2.4430542,2.2557678,-0.40638065,-2.959467,-7.6243577
1570715147,-3.5667572,-6.2829895,1.4838104,-0.52360535,0.1306305,0.5641327,7.703682,-2.0459912,3.7679968
1570715147,-4.3023834,-5.6245728,-0.9528961,-1.6708984,1.2448883,-0.64068604,5.1321163,-2.4798045,0.38061035
1570715147,0.63087463,3.4638062,2.466034,-1.8818207,1.750885,-3.3102264,7.8566504,6.3390813,3.363964
1570715147,0.63087463,3.4638062,2.466034,-1.8818207,1.750885,-3.3102264,7.8566504,6.3390813,3.363964
1570715147,-8.059479,1.3222046,0.2926941,-0.6407776,0.109313965,-2.7339172,1.6648941,6.280564,1.6818085
1570715147,-10.718842,-1.5131378,-1.7938538,-0.4927063,0.06990051,-2.7243347,-1.5161262,5.825652,2.3531888
1570715147,-6.9084625,-8.322845,3.313568,1.3352814,0.09120178,-1.1956787,0.35732603,-1.747994,6.1617055
1570715147,-4.2467194,-0.28071594,-1.8764496,2.31427,3.4308167,1.2086182,1.6286669,4.6750913,2.8204253
1570715147,-1.5095367,2.0931244,-3.3746338,1.2990723,3.3083038,0.69836426,5.8826575,8.917289,-0.4504435
1570715147,-11.938095,-9.034515,-7.873932,-0.16567993,0.08908081,0.43417358,-5.314207,-2.953814,-4.333696
1570715147,-11.938095,-9.034515,-7.873932,-0.16567993,0.08908081,0.43417358,-5.314207,-2.953814,-4.333696
1570715147,-12.349884,-2.2906494,-1.8848419,1.2489929,-4.8494873,2.2397919,-5.5387945,4.4114146,-0.5419395
1570715147,2.7347717,-10.359116,1.8465271,-0.822937,0.3436737,1.4823914,12.264103,-5.6203327,3.8149185
1570715147,2.7347717,-10.359116,1.8465271,-0.822937,0.3436737,1.4823914,12.264103,-5.6203327,3.8149185
1570715147,5.3510437,-5.1164093,-1.5759888,1.4854889,-2.807373,-1.1711731,13.372445,0.44907236,0.26203668
1570715147,-12.349884,-9.1931305,1.6968842,0.27748108,0.8582001,-3.8982544,-3.5096402,-1.6809464,1.0633935
1570715147,-12.349884,-9.1931305,1.6968842,0.27748108,0.8582001,-3.8982544,-3.5096402,-1.6809464,1.0633935
1570715147,-6.4409943,-6.1692657,3.3016052,0.65670776,1.5048218,-1.7858429,-0.88427067,1.7789373,3.6499898
1570715147,-5.946594,-5.9184723,3.257904,0.65670776,1.5048218,-1.7858429,-0.88427067,1.7789373,3.6499898
1570715148,-0.746994,-5.332489,-0.15023804,3.8642273,-2.1820679,-5.3683167,2.8977425,3.5290575,-1.0112174
1570715148,-0.046081543,-4.665695,0.008377075,3.895111,-2.3844604,-5.5249176,2.8977425,3.5290575,-1.0112174
1570715148,0.7122803,-4.576523,4.324524,3.1781921,-2.790329,-6.310013,1.28782,4.9041967,1.2762501
1570715148,0.66319275,-4.6866455,4.2036133,3.0684662,-2.5399933,-6.262085,1.28782,4.9041967,1.2762501
1570715148,-0.55485535,-5.708969,-19.612701,1.3352814,-2.2864685,-0.57888794,-1.2319521,3.182108,-23.009413
1570715148,-0.55485535,-5.708969,-19.612701,1.3352814,-2.2864685,-0.57888794,-1.2319521,3.182108,-23.009413
1570715148,-0.596756,-7.590225,8.699326,-3.066391,1.2523499,0.6152649,-1.33065,2.420885,6.584222
1570715148,-0.596756,-7.590225,8.699326,-3.066391,1.2523499,0.6152649,-1.33065,2.420885,6.584222
1570715148,2.3271637,-19.596542,3.2836456,-3.7140656,6.288925,-0.34986877,1.8113747,-9.563198,2.7435393
1570715148,2.6725311,-19.248184,0.56622314,-1.2085724,1.9692688,-3.01622,1.5161647,-8.877198,0.9506738
1570715148,2.6725311,-19.248184,0.56622314,-1.2085724,1.9692688,-3.01622,1.5161647,-8.877198,0.9506738
1570715148,4.901535,-19.612701,-10.171173,-2.1715698,-2.5293427,-0.3914032,2.2176585,-9.548126,-10.777742
1570715148,2.1948853,-15.226517,5.1008453,-1.6932678,-2.438797,-0.29978943,1.8687608,-5.3736687,5.093032
1570715148,-0.5913696,-9.92038,8.844177,-1.3140259,2.0896454,0.07304382,-2.098434,-0.083301544,11.187602
1570715148,1.656784,-5.747284,2.684494,-0.98698425,2.7533112,0.38197327,-0.09826636,3.618063,5.6401052
1570715148,1.7106628,-5.3905487,2.3217773,-0.8165436,2.499771,0.407547,-0.05939591,4.313034,4.9809203
1570715148,3.0101166,-0.10235596,1.0031738,1.1179657,-0.6416931,0.6440277,1.5764825,9.789042,3.0019767
1570715148,2.3852234,-0.47705078,2.4163513,1.4961395,-0.7599335,0.60354614,0.998523,9.407766,4.3081636
1570715148,1.8082275,0.18614197,0.707489,2.1672516,-0.9005585,0.52685547,0.61419296,10.041137,2.327228
1570715148,-4.091095,-11.741165,-19.592346,-0.006942749,-5.2489624,0.3052826,-6.6743755,-0.8554878,-18.97292
1570715148,-4.091095,-11.741165,-19.592346,-0.006942749,-5.2489624,0.3052826,-6.6743755,-0.8554878,-18.97292
1570715148,6.7971344,-16.895874,8.019974,-1.7039185,-1.4203949,-0.50006104,5.5393353,-8.128225,9.905731
1570715148,6.7971344,-16.895874,8.019974,-1.7039185,-1.4203949,-0.50006104,5.5393353,-8.128225,9.905731
1570715148,3.9246979,-6.087265,5.261261,-1.5718231,-1.5929718,-1.5291138,3.0705166,3.456172,7.287068
1570715148,1.5987244,-10.367493,12.896973,-0.8985748,0.43849182,-1.500351,-0.19007325,0.12845707,14.968259
1570715148,-2.9149475,-19.612701,7.897278,3.0109406,2.6265411,-0.42123413,-4.816157,-9.963494,9.191073
1570715148,-2.9149475,-19.612701,7.897278,3.0109406,2.6265411,-0.42123413,-4.816157,-9.963494,9.191073
1570715148,-5.175064,-18.570633,-17.086227,5.023224,-3.7735748,0.918869,-8.054018,-8.879594,-16.732655
1570715148,-5.175064,-18.570633,-17.086227,5.023224,-3.7735748,0.918869,-8.054018,-8.879594,-16.732655
1570715148,2.3852234,-10.290878,-0.9457092,0.47135925,0.5865631,1.2821198,0.44718075,-0.59051895,-3.351679
1570715148,-0.20410156,-7.213135,-5.749069,0.72062683,1.6603394,0.11672974,-1.6705312,2.315627,-7.043127
1570715148,0.16819763,-5.9507904,-6.7456665,0.565094,1.6646118,0.05706787,-1.6671902,2.8680134,-8.412024
1570715148,1.8525085,-3.7612915,-6.736084,-2.1183014,0.19241333,-0.24546814,0.33033466,5.966627,-8.781741
1570715148,1.8525085,-3.7612915,-6.736084,-2.1183014,0.19241333,-0.24546814,0.33033466,5.966627,-8.781741
1570715149,0.16220093,-3.0621796,0.26576233,-2.412323,0.49388123,-0.39886475,-1.3226689,6.800249,-0.8484762
1570715149,-2.059616,-6.584656,1.5388794,-2.6402893,0.5865631,-0.37756348,-3.6467514,3.4576902,1.106932
1570715149,-6.2518616,-19.612701,5.0583496,-3.6181946,1.3674011,0.1689148,-7.774277,-9.806584,5.346327
1570715149,6.514023,-17.825424,-2.9538422,-1.410965,-1.7943115,0.94869995,4.9488163,-7.7191286,-1.3962494
1570715149,6.514023,-17.825424,-2.9538422,-1.410965,-1.7943115,0.94869995,4.9488163,-7.7191286,-1.3962494
1570715149,-2.47081,-17.268784,4.723755,-0.16993713,0.9956207,0.77931213,-3.6038685,-7.5288153,6.266021
1570715149,-3.4584198,-17.665024,3.2381592,-0.05381775,1.0510101,0.77931213,-3.6038685,-7.5288153,6.266021
1570715149,1.0917511,-10.4973755,6.5708923,-0.27326965,1.7114716,0.68769836,0.42219087,-1.1524839,8.76001
1570715149,4.399353,-7.5602875,4.379593,0.08467102,1.9223938,0.39476013,3.5939133,1.7206373,6.7165203
1570715149,4.842865,-0.6081238,-0.54766846,1.566452,-0.6097412,0.37983704,4.405206,9.058448,1.1643068
1570715149,4.842865,-0.6081238,-0.54766846,1.566452,-0.6097412,0.37983704,4.405206,9.058448,1.1643068
1570715149,5.108032,1.0702057,-0.22087097,2.4335785,-1.9679413,0.14868164,4.890337,11.066974,0.8608712
1570715149,-7.1568604,-8.838791,-18.403625,-0.37765503,-2.9533234,-0.6119232,-5.52024,2.5306568,-14.578225
1570715149,-7.1568604,-8.838791,-18.403625,-0.37765503,-2.9533234,-0.6119232,-5.52024,2.5306568,-14.578225
1570715149,1.1677704,-7.967911,4.4963074,-2.1651764,-2.4771423,-0.037734985,0.5662966,2.0003386,4.7235017
1570715149,6.393112,-13.923477,6.2440796,-1.0743408,-1.5684662,-0.7067261,5.629557,-4.476982,7.5686684
1570715149,6.1961975,-13.324936,6.494873,-1.0402527,-1.5929718,-0.7589264,5.629557,-4.476982,7.5686684
1570715149,0.30944824,-10.073608,10.010757,-0.5853882,2.3495636,-1.2542725,-0.9278494,0.12567139,11.526648
1570715149,0.46806335,-10.073608,10.010757,-0.5853882,2.3495636,-1.2542725,-0.9278494,0.12567139,11.526648
1570715149,-1.4915924,-19.612701,10.826584,0.9752197,1.8457031,-1.8103333,-2.061464,-9.943552,11.93922
1570715149,-0.36332703,-19.612701,4.28981,3.3784637,1.4632721,0.08050537,-2.509084,-9.824309,5.6691966
1570715149,-1.2719269,-19.314621,3.237564,4.1220093,1.432373,0.5971527,-3.0174077,-9.413146,2.9350748
1570715149,-3.747528,-18.411407,-19.612701,4.1827393,-6.708374,0.9636078,-6.320982,-10.207193,-22.980795
1570715149,-3.2148132,-14.6992035,-19.612701,2.4878998,-6.5539093,1.0850525,-5.834899,-8.118097,-23.055607
1570715149,0.83677673,-8.022369,0.854126,-0.35849,2.2941742,0.266922,-1.0423756,1.2434587,-1.1517532
1570715149,-0.01675415,-3.7110138,-8.763977,-0.0974884,0.25312805,-0.21777344,-1.7120292,5.5129824,-11.901351
1570715149,-1.6322479,-2.5923157,-6.080078,-1.2980499,0.078430176,-0.258255,-3.5750122,6.613345,-9.888341
1570715149,-1.5675964,-2.8155823,0.56562805,-2.4847565,1.3386383,-0.23374939,-3.39881,6.925294,-2.1137779
1570715149,-0.9403229,-4.3305054,1.4784241,-2.5550537,2.2675476,-0.08886719,-2.5508823,5.6728745,0.33456576
1570715149,-0.9894104,-4.6674957,1.367096,-2.5870209,2.260086,-0.072891235,-2.6990519,5.1230726,0.11015713
1570715149,1.783081,-19.612701,0.37528992,-3.3454895,2.0630188,1.1777344,-0.945351,-9.803263,1.4382644
1570715149,1.783081,-19.612701,0.37528992,-3.3454895,2.0630188,1.1777344,-0.945351,-9.803263,1.4382644
1570715150,6.6522827,-19.612701,-2.6862946,-1.5473175,-2.0542297,0.28077698,5.8719845,-9.7516365,-1.3853755
1570715150,-0.826004,-16.892288,2.5246887,-1.3896637,0.65579224,0.6291199,-1.464475,-7.0473967,3.5776143
1570715150,-1.194107,-16.661255,5.194824,-1.4003143,0.77404785,0.6482849,-1.464475,-7.0473967,3.5776143
1570715150,1.193512,-10.99118,3.7684784,-1.125473,2.4603577,0.7143402,-0.15870667,-1.7835283,6.680192
1570715150,5.582077,-1.3168182,0.17417908,0.92729187,0.56951904,0.61846924,4.541605,7.8533993,2.9449
1570715150,5.582077,-1.3168182,0.17417908,0.92729187,0.56951904,0.61846924,4.541605,7.8533993,2.9449
1570715150,3.9797668,0.79008484,0.30166626,2.171524,-1.7879181,-0.2902069,3.3009396,10.361708,2.1492095
1570715150,3.9797668,0.79008484,0.30166626,2.171524,-1.7879181,-0.2902069,3.3009396,10.361708,2.1492095
1570715150,-4.6788635,-6.0423737,-6.655884,1.2447357,-2.2268066,-0.12722778,-5.4485154,4.492777,-5.4140143
1570715150,-4.6788635,-6.0423737,-6.655884,1.2447357,-2.2268066,-0.12722778,-5.4485154,4.492777,-5.4140143
1570715150,3.7732544,-8.6311035,8.22348,-0.8176117,-1.6877899,0.46507263,2.1705909,1.8740654,7.7011733
1570715150,10.126282,-14.365814,6.7941437,-0.39257812,-3.0172272,-0.88249207,9.04273,-5.493103,8.065432
1570715150,10.126282,-14.365814,6.7941437,-0.39257812,-3.0172272,-0.88249207,9.04273,-5.493103,8.065432
1570715150,0.116119385,-13.596664,11.9991455,0.27001953,3.7621155,-1.5930328,-1.9813179,-2.2963982,14.251323
1570715150,0.116119385,-13.596664,11.9991455,0.27001953,3.7621155,-1.5930328,-1.9813179,-2.2963982,14.251323
1570715150,-3.0017242,-19.612701,8.24025,1.7241058,5.028717,-1.4971466,-4.4926357,-10.004178,8.537697
1570715150,0.029327393,-18.5401,-2.040451,3.8812714,2.4294586,1.0701294,-2.2078636,-9.193462,-3.278462
1570715150,-0.6787567,-18.176178,-3.7289734,5.217102,0.5609894,1.012619,-2.453078,-8.649255,-4.639654
1570715150,1.0265198,-17.896057,-19.612701,6.953491,-5.843384,1.6784058,-2.2747595,-9.492403,-19.259277
1570715150,0.31782532,-4.1688995,4.6674957,-0.7483673,2.1748657,0.34042358,-2.0249379,4.9360275,2.9477825
1570715150,0.31782532,-4.1688995,4.6674957,-0.7483673,2.1748657,0.34042358,-2.0249379,4.9360275,2.9477825
1570715150,-5.328888,-4.56575,-6.549942,-1.1744843,1.0584717,-0.55119324,-7.802522,4.4396257,-9.600599
1570715150,-3.0891113,-1.8447266,-1.6609802,-1.9095154,0.033691406,0.21046448,-5.96996,7.2577333,-4.105677
1570715150,-1.3994141,-2.3660736,-0.4632721,-2.252533,0.27337646,0.31700134,-3.9380648,7.00743,-2.6093767
1570715150,-2.4768066,-12.710815,2.9897614,-3.1239166,1.95755,0.9316559,-4.3335214,-2.8361483,2.0515199
1570715150,-2.4768066,-12.710815,2.9897614,-3.1239166,1.95755,0.9316559,-4.3335214,-2.8361483,2.0515199
1570715150,6.846817,-19.612701,-6.980301,-3.335907,3.3338776,1.0339203,4.3987594,-9.848673,-5.64634
1570715150,7.803299,-19.612701,-6.6911926,-3.405136,2.63826,0.83044434,4.3987594,-9.848673,-5.64634
1570715150,5.3426666,-14.2682495,-2.027893,-0.743042,-0.37750244,0.80274963,4.515313,-4.5342426,-0.36166167
1570715150,5.3426666,-14.2682495,-2.027893,-0.743042,-0.37750244,0.80274963,4.515313,-4.5342426,-0.36166167
1570715150,-0.26097107,-11.93689,3.5721436,-0.92626953,2.019333,0.9359131,-1.9928119,-3.479023,5.2830877
1570715150,4.3155518,-2.0249023,2.945465,0.7600403,0.9604645,0.7313843,3.676875,7.5834045,4.9807663
1570715150,4.3155518,-2.0249023,2.945465,0.7600403,0.9604645,0.7313843,3.676875,7.5834045,4.9807663
1570715150,4.7483063,1.1414337,0.64523315,1.4119873,0.121032715,0.26052856,4.3760505,10.874304,2.347784
1570715151,2.735382,1.7453766,0.22924805,1.8956146,-1.517334,-0.44999695,2.4280531,11.47031,1.0313148
1570715151,2.735382,1.7453766,0.22924805,1.8956146,-1.517334,-0.44999695,2.4280531,11.47031,1.0313148
1570715151,-2.8078003,-8.455719,-19.252975,-1.0136261,-2.6848755,0.34895325,-3.9860609,2.3829002,-17.991318
1570715151,-2.8078003,-8.455719,-19.252975,-1.0136261,-2.6848755,0.34895325,-3.9860609,2.3829002,-17.991318
1570715151,4.9751587,-19.612701,9.044098,-0.9806061,-2.2108307,-0.70565796,3.2951188,-9.933602,10.558575
1570715151,4.9751587,-19.612701,9.044098,-0.9806061,-2.2108307,-0.70565796,3.2951188,-9.933602,10.558575
1570715151,2.723999,-7.8122864,16.543335,-0.113479614,3.4957886,-1.660141,1.7158512,4.360262,17.0863
1570715151,2.6348114,-9.592972,16.582245,0.051635742,4.0060577,-1.7602692,1.1202353,0.81822014,17.751186
1570715151,-2.683899,-19.612701,8.324036,2.0042725,4.18396,-1.1477509,-4.312314,-10.128533,9.48498
1570715151,-2.683899,-19.612701,8.324036,2.0042725,4.18396,-1.1477509,-4.312314,-10.128533,9.48498
1570715153,4.004303,0.3106537,-0.43693542,2.0042725,4.18396,-1.1477509,5.285686,-8.304968,9.68751
1570715153,4.004303,0.3106537,-0.43693542,2.0042725,4.18396,-1.1477509,5.285686,-8.304968,9.68751
1570715153,4.004303,0.3106537,-0.43693542,2.0042725,4.18396,-1.1477509,5.285686,-8.304968,9.68751
1570715153,4.004303,0.3106537,-0.43693542,2.0042725,4.18396,-1.1477509,5.285686,-8.304968,9.68751
1570715153,4.004303,0.3106537,-0.43693542,2.0042725,4.18396,-1.1477509,5.285686,-8.304968,9.68751
1570715153,4.004303,0.3106537,-0.43693542,2.0042725,4.18396,-1.1477509,5.285686,-8.304968,9.68751
1570715153,4.004303,0.3106537,-0.43693542,2.0042725,4.18396,-1.1477509,5.285686,-8.304968,9.68751
1570715153,4.004303,0.3106537,-0.43693542,2.0042725,4.18396,-1.1477509,5.285686,-8.304968,9.68751
1570715153,4.004303,0.3106537,-0.43693542,2.0042725,4.18396,-1.1477509,5.285686,-8.304968,9.68751
1570715153,4.004303,0.3106537,-0.43693542,2.0042725,4.18396,-1.1477509,5.285686,-8.304968,9.68751
1570715153,4.004303,0.3106537,-0.43693542,2.0042725,4.18396,-1.1477509,5.285686,-8.304968,9.68751
1570715153,4.004303,0.3106537,-0.43693542,2.0042725,4.18396,-1.1477509,5.285686,-8.304968,9.68751
1570715153,4.004303,0.3106537,-0.43693542,2.0042725,4.18396,-1.1477509,5.285686,-8.304968,9.68751
1570715153,4.004303,0.3106537,-0.43693542,2.0042725,4.18396,-1.1477509,5.285686,-8.304968,9.68751
1570715153,4.004303,0.3106537,-0.43693542,2.0042725,4.18396,-1.1477509,5.285686,-8.304968,9.68751
1570715153,1.4407043,-5.398926,3.5769348,2.0042725,4.18396,-1.1477509,5.285686,-8.304968,9.68751
1570715153,1.4407043,-5.398926,3.5769348,2.0042725,4.18396,-1.1477509,5.285686,-8.304968,9.68751
1570715153,1.4407043,-5.398926,3.5769348,2.0042725,4.18396,-1.1477509,5.285686,-8.304968,9.68751
1570715153,1.4407043,-5.398926,3.5769348,2.0042725,4.18396,-1.1477509,5.285686,-8.304968,9.68751
1570715153,1.4407043,-5.398926,3.5769348,2.0042725,4.18396,-1.1477509,5.285686,-8.304968,9.68751
1570715153,1.4407043,-5.398926,3.5769348,2.0042725,4.18396,-1.1477509,5.285686,-8.304968,9.68751
1570715153,1.4407043,-5.398926,3.5769348,2.0042725,4.18396,-1.1477509,5.285686,-8.304968,9.68751
1570715153,1.4407043,-5.398926,3.5769348,2.0042725,4.18396,-1.1477509,5.285686,-8.304968,9.68751
1570715153,1.4407043,-5.398926,3.5769348,2.0042725,4.18396,-1.1477509,5.285686,-8.304968,9.68751
1570715153,1.4407043,-5.398926,3.5769348,2.0042725,4.18396,-1.1477509,2.9042215,9.795599,2.9023356
1570715153,4.641159,-16.987457,10.238205,2.0042725,4.18396,-1.1477509,2.9042215,9.795599,2.9023356
1570715153,4.641159,-16.987457,10.238205,2.0042725,4.18396,-1.1477509,2.9042215,9.795599,2.9023356
1570715153,4.641159,-16.987457,10.238205,2.0042725,4.18396,-1.1477509,2.9042215,9.795599,2.9023356
1570715153,4.641159,-16.987457,10.238205,2.0042725,4.18396,-1.1477509,-3.3816555,-10.333526,15.829406
1570715153,4.641159,-16.987457,10.238205,2.0042725,4.18396,-1.1477509,-2.391977,3.7566195,-8.734922
1570715153,4.641159,-16.987457,10.238205,2.0042725,4.18396,-1.1477509,-3.1769412,6.603835,-3.3028586
1570715153,4.641159,-16.987457,10.238205,2.0042725,4.18396,-1.1477509,-3.1769412,6.603835,-3.3028586
1570715153,4.641159,-16.987457,10.238205,2.0042725,4.18396,-1.1477509,-3.1769412,6.603835,-3.3028586
1570715153,4.641159,-16.987457,10.238205,2.0042725,4.18396,-1.1477509,10.559749,-10.155269,6.698204
1570715153,4.641159,-16.987457,10.238205,2.0042725,4.18396,-1.1477509,2.3087223,-0.28838253,5.641509
1570715153,4.641159,-16.987457,10.238205,2.0042725,4.18396,-1.1477509,4.5432777,10.860358,-0.094394326
1570715153,4.641159,-16.987457,10.238205,2.0042725,4.18396,-1.1477509,4.5432777,10.860358,-0.094394326
1570715153,4.641159,-16.987457,10.238205,2.0042725,4.18396,-1.1477509,4.5432777,10.860358,-0.094394326
1570715153,4.641159,-16.987457,10.238205,2.0042725,4.18396,-1.1477509,4.5432777,10.860358,-0.094394326
1570715153,4.641159,-16.987457,10.238205,2.0042725,4.18396,-1.1477509,4.5432777,10.860358,-0.094394326
1570715153,4.641159,-16.987457,10.238205,2.0042725,4.18396,-1.1477509,2.1404877,13.399207,-3.8194876
1570715153,4.641159,-16.987457,10.238205,2.0042725,4.18396,-1.1477509,-5.0632315,-6.7803564,-4.793411
1570715153,4.641159,-16.987457,10.238205,2.634903,2.9024353,-0.25505066,4.621716,-7.176201,7.237795
1570715153,4.641159,-16.987457,10.238205,2.9757996,2.369812,0.8176727,4.621716,-7.176201,7.237795
1570715153,4.641159,-16.987457,10.238205,6.372925,-12.487427,0.88157654,4.621716,-7.176201,7.237795
1570715153,4.641159,-16.987457,10.238205,-0.47779846,-0.020645142,1.4653473,4.621716,-7.176201,7.237795
1570715153,4.641159,-16.987457,10.238205,-1.0881958,1.6784515,-0.24758911,4.621716,-7.176201,7.237795
1570715153,4.641159,-16.987457,10.238205,-2.2450714,-0.2326355,0.6291199,4.621716,-7.176201,7.237795
1570715153,4.641159,-16.987457,10.238205,-2.5454712,0.38308716,0.83258057,4.621716,-7.176201,7.237795
1570715153,4.641159,-16.987457,10.238205,-2.7201843,1.528244,0.7079468,4.621716,-7.176201,7.237795
1570715153,4.641159,-16.987457,10.238205,-3.480774,7.2007904,2.0448456,4.621716,-7.176201,7.237795
1570715153,4.641159,-16.987457,10.238205,-3.2187195,0.524765,0.20301819,4.621716,-7.176201,7.237795
1570715153,4.641159,-16.987457,10.238205,0.5054474,0.93063354,0.7644043,4.621716,-7.176201,7.237795
1570715153,4.641159,-16.987457,10.238205,-0.7622223,-1.8401184,-0.7589264,4.621716,-7.176201,7.237795
1570715153,4.641159,-16.987457,10.238205,-0.8463745,-2.2598267,-1.4438934,4.621716,-7.176201,7.237795
1570715153,4.641159,-16.987457,10.238205,-0.37979126,-1.2211914,-1.4619904,4.621716,-7.176201,7.237795
1570715153,4.641159,-16.987457,10.238205,1.2447357,6.4433746,-1.390625,4.621716,-7.176201,7.237795
1570715153,4.641159,-16.987457,10.238205,2.426117,6.4998474,-0.096328735,4.621716,-7.176201,7.237795
1570715153,4.641159,-16.987457,10.238205,3.143036,5.4398956,0.7686615,4.621716,-7.176201,7.237795
1570715153,4.641159,-16.987457,10.238205,3.143036,5.4398956,0.7686615,4.621716,-7.176201,7.237795
1570715153,4.641159,-16.987457,10.238205,5.789154,-1.245697,1.4035645,4.621716,-7.176201,7.237795
1570715153,4.641159,-16.987457,10.238205,6.1023407,-4.3903656,1.8232727,4.621716,-7.176201,7.237795
1570715153,4.641159,-16.987457,10.238205,6.2248535,-5.5706787,1.9649506,4.621716,-7.176201,7.237795
1570715153,4.641159,-16.987457,10.238205,6.2397614,-6.312088,2.0267487,4.621716,-7.176201,7.237795
1570715153,4.641159,-16.987457,10.238205,3.4061584,-12.898621,1.952179,4.621716,-7.176201,7.237795
1570715153,4.641159,-16.987457,10.238205,-0.8272095,-0.41586304,1.1148834,4.621716,-7.176201,7.237795
1570715153,4.641159,-16.987457,10.238205,-0.8272095,-0.41586304,1.1148834,4.621716,-7.176201,7.237795
1570715153,4.641159,-16.987457,10.238205,-0.8272095,-0.41586304,1.1148834,4.621716,-7.176201,7.237795
1570715153,4.641159,-16.987457,10.238205,-3.3934174,2.0939026,0.7036896,4.621716,-7.176201,7.237795
1570715153,4.641159,-16.987457,10.238205,-1.1872559,0.27442932,1.4323273,4.621716,-7.176201,7.237795
1570715153,4.641159,-16.987457,10.238205,-1.3523712,2.371933,0.3095398,4.621716,-7.176201,7.237795
1570715153,4.641159,-16.987457,10.238205,1.3704376,0.44381714,0.3372345,4.621716,-7.176201,7.237795
1570715153,4.641159,-16.987457,10.238205,1.9733734,-0.7056122,-0.20817566,4.621716,-7.176201,7.237795
1570715153,4.641159,-16.987457,10.238205,0.47987366,-3.7693024,0.17958069,4.621716,-7.176201,7.237795
1570715153,4.641159,-16.987457,10.238205,-0.87620544,-1.97966,0.29249573,4.621716,-7.176201,7.237795
1570715153,4.641159,-16.987457,10.238205,-0.027191162,-1.8710022,-1.4822388,4.621716,-7.176201,7.237795
1570715153,4.641159,-16.987457,10.238205,-0.035705566,3.3317413,-1.629242,4.621716,-7.176201,7.237795
1570715153,4.641159,-16.987457,10.238205,4.7260284,3.5107117,0.7558899,4.621716,-7.176201,7.237795
1570715153,4.641159,-16.987457,10.238205,5.2991333,-12.069855,1.6709442,4.621716,-7.176201,7.237795
1570715153,4.641159,-16.987457,10.238205,-0.45861816,4.1285553,0.21046448,4.621716,-7.176201,7.237795
1570715153,4.641159,-16.987457,10.238205,-0.4841919,-1.0454254,0.19023132,4.621716,-7.176201,7.237795
1570715153,4.641159,-16.987457,10.238205,-1.7007141,1.7189331,0.20513916,4.621716,-7.176201,7.237795
1570715153,4.641159,-16.987457,10.238205,-2.9960785,0.63874817,0.7686615,4.621716,-7.176201,7.237795
1570715153,4.641159,-16.987457,10.238205,-3.2357635,3.3338776,2.3399353,4.621716,-7.176201,7.237795
1570715153,1.3634949,-16.00943,-19.612701,6.696762,-7.553131,0.29782104,-4.540517,-10.088142,-23.213093
1570715153,-3.525467,-9.351746,-6.922241,0.49905396,-5.8242035,0.93058777,-5.3681884,-1.2608004,-17.670301
1570715153,-2.15419,-5.4420166,-3.0268707,-0.02079773,1.2757874,-0.2859497,-4.174262,3.0001125,-6.0352526
1570715153,-1.1827393,-0.5596466,-3.178894,-0.101760864,-0.9197235,0.22006226,-3.6293874,7.956702,-6.5772347
1570715153,-1.1827393,-0.5596466,-3.178894,-0.101760864,-0.9197235,0.22006226,-3.6293874,7.956702,-6.5772347
1570715153,2.659958,0.7918854,-4.4771576,-0.96035767,0.19348145,0.12312317,0.034096956,9.452838,-7.8459044
1570715153,0.90979004,-1.7800903,-0.30586243,-1.9148407,0.7378235,-0.105911255,-1.3953013,6.987879,-3.7221637
1570715154,-7.878128,-19.612701,12.880203,-3.1516113,2.0960388,1.286377,-10.378042,-10.5096655,9.531639
1570715154,-7.878128,-19.612701,12.880203,-3.1516113,2.0960388,1.286377,-10.378042,-10.5096655,9.531639
1570715154,5.3659973,-19.612701,1.577774,-2.3249664,4.679306,0.47358704,4.2257276,-10.09276,1.143765
1570715154,5.7299194,-19.612701,0.63327026,-2.3931427,4.6878204,0.33937073,4.2257276,-10.09276,1.143765
1570715154,10.348938,-19.612701,-3.9145203,-2.1321564,4.504593,-2.3877106,9.416253,-10.01388,-2.0822058
1570715154,-3.0729523,-19.598938,0.19273376,-1.3438568,-1.1679382,-0.10272217,-4.634628,-10.00041,1.853708
1570715154,-3.0729523,-19.598938,0.19273376,-1.3438568,-1.1679382,-0.10272217,-4.634628,-10.00041,1.853708
1570715154,2.3696594,1.8213959,-0.120910645,0.6886749,-1.5397034,-0.736557,-0.14999992,9.878344,-2.2582426
1570715154,2.3696594,1.8213959,-0.120910645,0.6886749,-1.5397034,-0.736557,-0.14999992,9.878344,-2.2582426
1570715154,2.3696594,1.8213959,-0.120910645,0.6886749,-1.5397034,-0.736557,-0.14999992,9.878344,-2.2582426
1570715154,2.3696594,1.8213959,-0.120910645,0.6886749,-1.5397034,-0.736557,-0.14999992,9.878344,-2.2582426
1570715154,2.3696594,1.8213959,-0.120910645,0.6886749,-1.5397034,-0.736557,-0.14999992,9.878344,-2.2582426
1570715154,2.25354,-5.7933655,5.9166718,-0.0048217773,-3.5637054,-0.39993286,1.9253279,6.5756426,3.7906754
1570715154,2.435501,-7.1598663,7.5411377,0.14431763,-3.4156342,-0.31471252,1.7253726,4.1992464,6.205615
1570715154,11.076767,-19.612701,15.987289,-0.3211975,-6.8575134,-1.7932892,14.016093,-10.199952,12.401703
1570715154,-0.26515198,-6.4655457,11.672928,-0.28071594,0.27656555,-1.7773132,-1.3588126,1.4450827,11.209656
1570715154,-2.7587128,-11.328766,14.939819,-0.52360535,5.5176697,-1.644165,-4.06715,0.056821823,15.206751
1570715154,-6.9162445,-19.612701,4.853653,1.1754913,8.009323,-0.29660034,-3.9158058,-10.29281,8.001189
1570715154,-4.668686,-19.612701,-4.0228577,5.210724,-0.16125488,0.88264465,-7.3602057,-10.254036,-4.78332
1570715154,-3.5308533,-16.993439,-3.8756104,4.7601166,-4.2156525,1.8776093,-5.3996935,-8.978052,-6.569099
1570715154,7.0646973,-8.788513,-18.379684,1.4151764,-9.339584,1.572937,8.152193,-1.2526083,-23.625418
1570715154,7.0646973,-8.788513,-18.379684,1.4151764,-9.339584,1.572937,8.152193,-1.2526083,-23.625418
1570715154,0.4513092,-4.1575317,0.32800293,-1.0977783,2.8289337,-0.26358032,-1.1199065,4.5726366,-2.008954
1570715154,-5.609009,-4.9637756,-1.2054749,-1.1510468,-0.1538086,-0.7418823,-7.5161858,3.3794804,-5.842786
1570715154,-5.9789276,-3.493744,-0.47764587,-1.328949,0.49813843,-0.23161316,-8.032519,5.107189,-2.6298661
1570715154,-1.0432739,-5.0924683,1.4766235,-3.2442932,1.3620758,0.5939636,-2.86907,4.4106407,-1.132796
1570715154,-1.0217285,-5.0924683,1.4766235,-3.2442932,1.3620758,0.5939636,-2.86907,4.4106407,-1.132796
1570715154,-1.7818909,-9.310455,4.752487,-3.5414886,2.4678192,0.5875702,-2.8690805,1.2689857,3.1024098
1570715154,-5.170273,-19.612701,6.861191,-3.8386993,5.649765,1.157486,-6.437755,-10.268464,6.9937744
1570715154,4.3221283,-19.612701,-1.735199,-3.3934174,5.4494934,1.0530853,1.119967,-10.202796,0.8588552
1570715154,9.281723,-15.887924,-7.553711,-2.4527893,0.38308716,0.92100525,9.573944,-7.442959,-7.017275
1570715154,8.1414795,-15.272614,-6.4056854,-2.3995361,0.13275146,0.7675934,9.573944,-7.442959,-7.017275
1570715154,-1.4095917,-17.067673,1.0917511,-1.249054,-0.40519714,0.3095398,2.9386535,-5.7450886,3.2336864
1570715155,-1.4095917,-17.067673,1.0917511,-1.249054,-0.40519714,0.3095398,2.9386535,-5.7450886,3.2336864
1570715155,-1.4095917,-17.067673,1.0917511,-1.249054,-0.40519714,0.3095398,2.9386535,-5.7450886,3.2336864
1570715155,-1.4095917,-17.067673,1.0917511,-1.249054,-0.40519714,0.3095398,2.9386535,-5.7450886,3.2336864
1570715155,-1.4095917,-17.067673,1.0917511,-1.249054,-0.40519714,0.3095398,2.9386535,-5.7450886,3.2336864
1570715155,-1.4095917,-17.067673,1.0917511,-1.249054,-0.40519714,0.3095398,2.9386535,-5.7450886,3.2336864
1570715155,-1.4095917,-17.067673,1.0917511,-1.249054,-0.40519714,0.3095398,2.9386535,-5.7450886,3.2336864
1570715155,-1.4095917,-17.067673,1.0917511,-1.249054,-0.40519714,0.3095398,2.9386535,-5.7450886,3.2336864
1570715155,-1.4095917,-17.067673,1.0917511,-1.249054,-0.40519714,0.3095398,2.9386535,-5.7450886,3.2336864
1570715155,13.4422455,-19.612701,5.269638,-0.07192993,-5.084915,-1.5259094,15.463563,-10.348418,2.5431702
1570715155,-1.1240845,-7.857773,6.6522827,-1.0146942,2.3250732,-1.8423004,-2.3939905,2.6200724,6.915475
1570715155,-1.1240845,-7.857773,6.6522827,-1.0146942,2.3250732,-1.8423004,-2.3939905,2.6200724,6.915475
1570715155,-6.9120636,-19.612701,-3.7325592,4.609909,1.239563,0.012329102,-8.108622,-10.4802475,-3.0776017
1570715155,-6.9120636,-19.612701,-3.7325592,4.609909,1.239563,0.012329102,-8.108622,-10.4802475,-3.0776017
1570715155,-2.9951477,-17.402847,-2.2822723,5.1446686,-2.35997,1.8371277,-5.5790915,-9.260056,-3.845527
1570715155,2.898178,-10.778702,-19.612701,2.28656,-7.312378,1.0413666,3.144013,-4.106889,-23.14449
1570715155,2.898178,-10.778702,-19.612701,2.28656,-7.312378,1.0413666,3.144013,-4.106889,-23.14449
1570715155,0.2813263,-4.3233337,-0.80145264,-0.64823914,1.6763153,-0.17835999,-1.4164195,3.968131,-3.813194
1570715155,-1.4335327,-0.86790466,-4.1838684,-1.266098,0.15299988,-0.32003784,-3.5116615,7.6825924,-8.106838
1570715155,-1.4335327,-0.86790466,-4.1838684,-1.266098,0.15299988,-0.32003784,-3.5116615,7.6825924,-8.106838
1570715155,-1.5484467,-2.1062927,1.6597748,-2.3334808,1.3652649,0.19874573,-3.49899,7.1666346,-0.54981136
1570715155,-1.5484467,-2.1062927,1.6597748,-2.3334808,1.3652649,0.19874573,-3.49899,7.1666346,-0.54981136
1570715155,-5.8969116,-19.612701,4.2443237,-3.1846313,5.3695984,1.3918457,-7.5960107,-10.493654,5.042268
1570715155,-5.8969116,-19.612701,4.2443237,-3.1846313,5.3695984,1.3918457,-7.5960107,-10.493654,5.042268
1570715155,8.951324,-19.612701,3.6978455,-2.2812805,0.3905487,-1.8742523,10.150851,-10.300776,5.011123
1570715155,4.823715,-19.612701,-4.4454346,-1.8583832,-0.55433655,-1.1157837,5.446823,-10.309194,1.6165924
1570715155,5.091263,-15.978302,3.3273468,-1.906311,-0.67259216,0.44056702,7.0375338,-6.2082434,0.88085175
1570715155,-0.7362213,-10.658981,4.355652,-1.8296204,2.735199,0.2818451,-1.1574616,-1.6904707,4.7093573
1570715155,-0.7362213,-10.658981,4.355652,-1.8296204,2.735199,0.2818451,-1.1574616,-1.6904707,4.7093573
1570715155,4.1725006,3.0071106,0.502182,1.3576508,-0.30506897,0.36813354,3.230699,12.071533,2.793314
1570715155,4.1725006,3.0071106,0.502182,1.3576508,-0.30506897,0.36813354,3.230699,12.071533,2.793314
1570715155,2.640213,3.4590302,2.5594025,1.744339,-1.4491577,0.0155181885,2.0246274,12.739178,3.545815
1570715155,1.42276,-0.48661804,-0.7302246,1.519577,-3.265442,0.22750854,0.71199596,8.702719,0.3280669
1570715155,1.5508423,-0.5590515,-0.85054016,1.486557,-3.3559875,0.20939636,0.71199596,8.702719,0.3280669
1570715156,3.4638062,-7.451355,2.178131,0.30836487,-2.1320038,-0.8856964,2.5458338,2.069291,3.4954252
1570715156,3.4638062,-7.451355,2.178131,0.30836487,-2.1320038,-0.8856964,2.5458338,2.069291,3.4954252
1570715156,15.103226,-19.612701,9.809647,-1.8221588,-4.828186,-1.7751923,15.767221,-10.52159,5.648211
1570715156,6.2165375,-11.5364685,7.9110413,-0.22853088,-0.37217712,-1.6494904,7.3143587,-4.3025265,9.468677
1570715156,-4.3508606,-19.612701,16.14949,-0.4607544,5.761612,-1.1956787,-5.643526,-9.87902,15.87789
1570715156,-3.5404205,-19.612701,4.5950775,3.3124084,4.8135223,-0.35412598,-4.6096077,-10.649316,6.587501
1570715156,-5.012268,-19.612701,-3.2782593,4.7164307,-1.2009583,1.2629547,-7.4073944,-10.636569,-5.6657896
1570715156,-4.897339,-19.612701,-2.803009,4.7611694,-1.4523621,1.3588257,-7.1687584,-10.647572,-5.2968993
1570715156,-1.5113373,-17.255005,-16.295532,6.5604095,-5.339508,1.7678833,-5.1699147,-9.260033,-10.921564
1570715156,1.459259,-9.117126,-5.9944763,0.26150513,-4.700348,2.0725555,0.41706204,-2.3945332,-17.065372
1570715156,0.27114868,-3.9911346,-5.549164,-0.69511414,1.6965637,-0.4617157,-0.03901303,4.986762,-6.3017316
1570715156,-1.6280518,-3.1609497,-4.7536926,-1.7198944,-0.19108582,-0.3168335,-2.822474,5.857314,-8.500488
1570715156,-1.6280518,-3.1609497,-4.7536926,-1.7198944,-0.19108582,-0.3168335,-2.822474,5.857314,-8.500488
1570715156,-2.724594,-2.6934814,2.3355408,-2.252533,0.34155273,-0.11550903,-4.780081,5.7388954,-1.2013528
1570715156,-2.1380157,-2.114685,2.5115204,-2.2014008,1.6901703,-0.12509155,-4.255228,6.749942,1.23702
1570715156,-3.1376038,-5.3773804,0.96546936,-2.7276306,2.1855164,-0.072891235,-4.6480846,4.13346,-0.4025904
1570715156,-4.0821075,-19.612701,1.256958,-3.3785095,6.417816,2.317566,-10.631382,-10.562847,4.8967967
1570715156,3.7379456,-19.612701,-4.665695,-3.022705,5.235367,1.8765411,0.9144789,-10.48885,-2.539085
1570715156,11.9758,-15.825073,-9.549271,-1.6911316,1.0435486,1.1329803,12.85722,-8.39033,-4.8373985
1570715156,10.5763855,-15.862183,-9.131485,-1.7784882,0.72824097,0.9913025,11.381871,-6.8433294,-7.383751
1570715156,-3.4332886,-17.840988,7.0616913,-0.756897,0.84329224,1.077591,-4.861811,-10.010401,9.870878
1570715156,1.2611389,-9.375687,2.896988,-1.1169586,1.9895172,0.7601471,-0.29426628,-1.1076155,4.34836
1570715156,4.558563,-0.7757263,2.8365326,0.67800903,0.6089325,0.8613434,3.3979998,6.7812176,5.8867564
1570715156,4.6112366,2.8646698,1.4891968,1.5707092,-0.51812744,0.42778015,3.955297,11.64457,3.1903276
1570715156,4.672882,2.9939423,-0.47705078,1.8434143,-1.2094727,-0.12722778,4.3515286,12.230283,0.94901216
1570715156,3.4320831,0.7870941,1.1725616,1.9105225,-1.1508942,-0.6087189,3.0847783,10.451382,2.412689
1570715156,1.2521667,-8.104965,-15.843033,-1.7657013,-3.6063232,0.2637329,-2.696368,0.8841324,-18.872946
1570715156,1.2521667,-8.104965,-15.843033,-1.7657013,-3.6063232,0.2637329,-2.696368,0.8841324,-18.872946
1570715156,14.823105,-19.612701,9.591766,-0.42240906,-3.889679,-1.6505432,12.766687,-10.612443,11.178767
1570715156,14.823105,-19.612701,9.591766,-0.42240906,-3.889679,-1.6505432,12.766687,-10.612443,11.178767
1570715156,2.905365,-4.5920715,4.5591583,0.4085083,-0.7428894,-1.2457428,1.5049034,3.5865612,6.2707176
1570715156,2.2110443,-11.085754,6.8162994,0.30517578,0.8422241,-1.8604126,0.7015662,1.7038393,5.890765
1570715156,0.94151306,-19.612701,8.807068,1.0689697,5.364273,-1.1775665,-3.0088367,-10.720685,11.949417
1570715157,-1.8327637,-19.612701,1.5496521,4.4586334,3.4276123,0.37132263,-4.309319,-10.690202,2.5336142
1570715157,-5.716156,-19.612701,-5.9274445,5.980896,-2.2076263,1.5047607,-7.9034214,-10.85361,-7.4374685
1570715157,-5.716156,-19.612701,-5.9274445,5.980896,-2.2076263,1.5047607,-7.9034214,-10.85361,-7.4374685
1570715157,0.39683533,-4.7099915,-2.4384918,-0.68551636,2.2302551,0.934845,-2.1982021,2.8937683,-4.7118707
1570715157,0.39683533,-4.7099915,-2.4384918,-0.68551636,2.2302551,0.934845,-2.1982021,2.8937683,-4.7118707
1570715157,-3.4907532,-3.3003998,-3.604477,-0.6354523,-0.32957458,-0.3924713,-6.231298,4.305231,-7.647807
1570715157,-3.312378,-1.2276306,-1.5945435,-1.1467743,0.08161926,-0.094192505,-5.834497,7.0493584,-4.031968
1570715157,-3.194458,-1.2707214,-1.4664459,-1.2298737,0.121032715,-0.07714844,-5.834497,7.0493584,-4.031968
1570715157,-1.6705475,-1.6023254,0.38008118,-2.0703583,0.6866913,-0.23268127,-4.205633,6.877426,-2.0058362
1570715157,-1.8249817,-5.7610474,-0.08081055,-2.4187012,1.432373,0.2115326,-4.0942526,3.7463264,-1.5515856
1570715157,-5.652115,-13.717575,2.2116394,-3.4392242,2.6318665,0.86880493,-6.8216476,-3.4610977,0.44664013
1570715157,-7.4016724,-19.612701,4.3113556,-3.5510864,5.887314,2.6509857,-12.096718,-10.707947,6.998405
1570715157,7.483078,-19.612701,9.430756,-1.6261444,-0.6821747,-0.69607544,9.389581,-10.503878,7.603402
1570715157,8.798096,-19.612701,2.2445679,-0.82081604,0.9998779,0.35214233,5.781669,-10.480756,8.101071
1570715157,-1.4532776,-14.50766,2.3834229,-1.2075043,2.0779266,1.1723938,-3.1416793,-6.2421436,4.660678
1570715157,-0.51116943,-13.539215,1.6184845,-1.2266693,1.9618073,1.1873169,-3.1416793,-6.2421436,4.660678
1570715157,-0.51116943,-13.539215,1.6184845,-1.2266693,1.9618073,1.1873169,-3.1416793,-6.2421436,4.660678
1570715157,-0.51116943,-13.539215,1.6184845,-1.2266693,1.9618073,1.1873169,-3.1416793,-6.2421436,4.660678
1570715157,-0.51116943,-13.539215,1.6184845,-1.2266693,1.9618073,1.1873169,-3.1416793,-6.2421436,4.660678
1570715157,-0.51116943,-13.539215,1.6184845,-1.2266693,1.9618073,1.1873169,-3.1416793,-6.2421436,4.660678
1570715157,-0.51116943,-13.539215,1.6184845,-1.2266693,1.9618073,1.1873169,-3.1416793,-6.2421436,4.660678
1570715157,-0.51116943,-13.539215,1.6184845,-1.2266693,1.9618073,1.1873169,-3.1416793,-6.2421436,4.660678
1570715157,-0.51116943,-13.539215,1.6184845,-1.2266693,1.9618073,1.1873169,-3.1416793,-6.2421436,4.660678
1570715157,-0.51116943,-13.539215,1.6184845,-1.2266693,1.9618073,1.1873169,-3.1416793,-6.2421436,4.660678
1570715157,-0.084991455,-8.868729,10.148422,-0.42985535,1.0563354,-1.2734528,-0.82117057,-0.6770077,10.593459
1570715157,-0.084991455,-8.868729,10.148422,-0.42985535,1.0563354,-1.2734528,-0.82117057,-0.6770077,10.593459
1570715157,2.3026276,-19.596542,14.50766,2.0799103,6.751236,-0.95173645,0.9896513,-10.035892,17.395308
1570715157,-0.73202515,-19.612701,2.1326294,3.6916504,3.644928,0.17851257,-2.1896117,-10.748175,1.3508527
1570715157,-4.514267,-19.612701,-4.7686462,7.3582916,-3.4902039,1.523941,-5.265299,-11.012268,-7.162963
1570715157,-4.514267,-19.612701,-4.7686462,7.3582916,-3.4902039,1.523941,-5.265299,-11.012268,-7.162963
1570715157,5.763443,-11.658569,-19.612701,2.8543549,-14.489059,1.5473785,6.339399,-5.8171206,-23.953175
1570715157,2.834137,-4.4011383,7.0742645,-1.4003143,2.163147,1.6102295,-0.12125182,3.2886124,4.680667
1570715157,-3.2944183,-5.3025513,-6.1105957,-0.6791229,0.2840271,-1.0018005,-3.7124736,3.7037268,-9.806537
1570715157,-5.609619,-2.818573,1.2282257,-0.96461487,-0.08456421,-0.4063263,-7.759442,5.3633595,-1.7448721
1570715158,-4.519058,-2.395401,-3.0975037,-1.4365387,1.3599396,-0.024963379,-6.943617,5.717613,-4.842997
1570715158,-3.3058014,-2.1685486,-4.937439,-1.7859344,1.1809692,0.17530823,-5.828376,6.1351967,-7.158852
1570715158,-0.25019836,-7.0551147,-0.917572,-3.096222,1.4345093,0.58117676,-2.0655818,2.4220257,-3.9678438
1570715158,-6.621765,-19.612701,6.202179,-4.121002,6.9632263,1.6475067,-8.121959,-10.801199,7.7818418
1570715158,9.636658,-19.612701,-6.4332275,-3.5425568,2.7298737,-0.14427185,7.896321,-10.60928,-6.265663
1570715158,4.4723663,-19.612701,5.597046,-1.8647766,-1.6781921,-1.3980865,5.4030495,-10.583946,5.835319
1570715158,-1.2126617,-13.959991,9.653427,-1.3140259,0.58335876,0.33616638,-0.5280252,-5.08465,7.5180535
1570715158,-2.6886902,-14.035416,10.684723,-1.49086,1.1894989,0.29782104,-0.5280252,-5.08465,7.5180535
1570715158,3.3883972,-5.191223,6.8438263,-0.75582886,0.7367554,0.6216583,1.917947,2.8487988,7.5493507
1570715158,5.072113,-0.7691345,5.525818,0.107040405,0.7623291,0.7473602,4.3103967,6.514923,7.329904
1570715158,3.4165192,5.4976807,2.0225067,0.97628784,0.6920166,-0.07609558,2.9223993,14.212494,3.6940486
1570715158,2.363678,5.367798,1.4263458,1.1808167,0.35432434,-0.2156372,2.032737,14.494887,2.725906
1570715158,-0.98101807,0.98820496,-3.2632904,1.582428,-1.5833893,-0.1410675,-2.3007421,8.72861,-4.4071593
1570715158,3.8809967,-8.725662,-19.612701,-1.0828705,-2.934143,0.18702698,2.255068,1.5802412,-19.067745
1570715158,2.731781,-11.022903,-0.9295502,-1.5728912,-1.9519653,-0.094192505,2.9412775,-1.5198088,-9.4721985
1570715158,9.580399,-16.640305,7.4214325,0.60025024,-3.7341614,-0.49687195,8.126736,-10.57844,9.069965
1570715158,9.730637,-13.314163,6.8983,0.62049866,-3.7650452,-0.5171051,8.126736,-10.57844,9.069965
1570715158,0.67277527,-17.509995,19.556442,0.015426636,2.2632904,-2.3024902,1.7503046,-2.2251225,17.873137
1570715158,0.67277527,-17.509995,19.556442,0.015426636,2.2632904,-2.3024902,1.7503046,-2.2251225,17.873137
1570715158,-2.8748322,-19.612701,2.3295593,3.9068298,4.8795776,1.26828,-6.6269236,-10.863453,3.476335
1570715158,-2.8748322,-19.612701,2.3295593,3.9068298,4.8795776,1.26828,-6.6269236,-10.863453,3.476335
1570715158,-1.2000885,-19.612701,-19.598938,7.9793396,-7.6436768,1.6762695,-3.7092817,-11.297879,-22.853138
1570715158,4.775238,-10.53389,-18.726852,3.114273,-14.821426,2.2589722,3.9425838,-3.2628303,-23.506145
1570715158,2.5552063,-3.3141785,-0.8661041,-0.3946991,-1.3000336,1.9873352,-0.88529587,3.407404,-7.2120833
1570715158,-5.487503,-3.7702637,-2.7407684,-1.7752838,-0.17723083,-0.7503967,-7.912961,3.7701197,-7.5968933
1570715158,-5.735306,-3.2902374,-0.054473877,-1.8743591,-0.27630615,-0.57144165,-7.912961,3.7701197,-7.5968933
1570715158,-1.885437,-1.1749573,-4.88237,-1.5888672,-0.30506897,0.24136353,-4.857219,7.169505,-7.130356
1570715158,-1.885437,-1.1749573,-4.88237,-1.5888672,-0.30506897,0.24136353,-4.857219,7.169505,-7.130356
1570715158,-2.968216,-10.387238,4.529831,-3.481842,1.255539,1.0232697,-3.8645666,0.8252773,2.0685525
1570715158,-2.968216,-10.387238,4.529831,-3.481842,1.255539,1.0232697,-3.8645666,0.8252773,2.0685525
1570715158,5.173279,-19.612701,-8.960892,-3.9228668,4.3032684,1.8371277,2.731341,-10.764695,-5.327263
1570715158,4.649536,-19.612701,10.724228,-1.554779,-2.708313,0.29249573,2.9404082,-10.726637,11.045045
1570715158,4.649536,-19.612701,10.724228,-1.554779,-2.708313,0.29249573,2.9404082,-10.726637,11.045045
1570715159,0.35853577,-14.024033,0.09516907,0.33073425,1.2651367,0.19342041,3.411044,-3.9445305,-2.0073366
1570715159,-1.0229187,-11.223419,-1.5688019,-0.42985535,1.8052216,1.1681366,-3.8111448,-4.161397,0.35403764
1570715159,3.9629974,-4.7345276,1.8028412,-0.40109253,1.3833771,0.48316956,3.1815972,3.7822475,3.2545934
1570715159,4.853653,0.46447754,1.3096313,0.2913208,0.85606384,0.28289795,4.415867,8.634276,2.7409532
1570715159,2.2194214,3.7379456,-0.5638275,1.0668335,0.39801025,-0.36584473,1.87252,12.726001,0.4854446
1570715159,2.2194214,3.7379456,-0.5638275,1.0668335,0.39801025,-0.36584473,1.87252,12.726001,0.4854446
1570715159,1.3491364,2.1320343,-3.1687317,0.41915894,-0.031295776,-0.42230225,0.778481,11.006707,-2.3815892
1570715159,0.43215942,-0.31243896,-6.16626,0.17840576,-1.4949646,-0.5224304,-0.43936437,9.157644,-4.8776646
1570715159,1.1821442,-9.604935,5.478531,-0.5587616,-2.6997833,-0.80792236,0.27708668,-0.24228096,4.6199484
1570715159,6.842621,-19.612701,6.6858063,-1.345993,-1.2393036,-1.21698,3.7150679,-10.95945,7.5900145
1570715159,6.6067963,-19.612701,7.573456,-0.6876526,-1.2659302,-1.1232452,5.5196977,-10.980701,9.112263
1570715159,1.2282257,-16.074677,18.234833,1.4418182,3.7972717,-0.6129761,-0.44571435,-4.9167347,18.263046
1570715159,1.4155731,-17.544708,18.561646,1.646347,4.3959503,-0.5458679,-0.44571435,-4.9167347,18.263046
1570715159,0.63386536,-19.612701,1.5831604,3.476471,4.681427,0.24668884,-2.6106815,-10.893762,4.589862
1570715159,-5.3624115,-19.612701,-2.110489,6.724457,-2.9767456,1.3620148,-6.893771,-11.039965,-4.5990963
1570715159,-5.3624115,-19.612701,-2.110489,6.724457,-2.9767456,1.3620148,-6.893771,-11.039965,-4.5990963
1570715159,2.043457,-6.435013,-1.766922,-0.62480164,-0.83343506,1.8616333,-0.10338545,1.2854247,-5.750952
1570715159,2.043457,-6.435013,-1.766922,-0.62480164,-0.83343506,1.8616333,-0.10338545,1.2854247,-5.750952
1570715159,-4.158722,-3.1645355,-1.6190796,-0.661026,-1.6760712,-0.63534546,-5.7633314,4.490135,-6.0810614
1570715159,-4.5016937,-3.0609894,-1.1198883,-0.743042,-1.482193,-0.6140442,-6.38517,4.756459,-5.0667706
1570715159,-2.6827087,-1.6083069,-4.059967,-1.7667694,1.4558105,0.14335632,-5.646147,6.770981,-6.330275
1570715159,-2.6827087,-1.6083069,-4.059967,-1.7667694,1.4558105,0.14335632,-5.646147,6.770981,-6.330275
1570715159,-0.82839966,-6.6911926,-2.2954407,-2.9524078,1.0446167,0.15293884,-2.7327502,3.3328857,-5.645651
1570715159,-8.616135,-19.596542,8.51857,-4.419281,2.9823303,0.5588074,-8.627857,-9.922474,3.7930439
1570715159,2.5881348,-19.612701,4.2700653,-3.4264526,6.3464355,1.9042358,0.7549509,-10.814025,4.708575
1570715159,9.883865,-19.612701,1.6496124,-3.5265808,3.502182,0.32658386,4.415748,-10.717761,0.8869804
1570715159,2.2074585,-15.676636,-12.820953,-2.0533142,0.09654236,0.43736267,2.8312807,-6.3447714,-9.1566305
1570715159,2.3810272,-15.436615,-11.013321,-2.0554504,-0.4094696,0.37664795,1.0133781,-6.7700434,-11.478479
1570715159,3.4189148,-6.438614,4.76326,-1.2873993,2.068344,0.5705261,2.5950873,2.5783768,6.302103
1570715159,3.5015259,-6.161484,4.8871613,-1.205368,1.9809875,0.569458,2.652922,2.5368671,6.2585855
1570715159,4.735138,-1.4323273,2.7096405,-0.41174316,1.0787048,0.5620117,3.7629638,5.961767,5.118696
1570715159,3.949234,2.9969482,3.3632507,0.6460571,-0.25926208,0.5939636,3.4112763,11.197508,4.682471
1570715160,2.1481934,3.4674072,1.2186432,0.6599121,-1.2542267,-0.19113159,1.9781357,12.669514,2.761436
1570715160,2.127243,2.8694458,0.44831848,0.69506836,-1.4246674,-0.21777344,1.9781357,12.0501175,2.0432887
1570715160,0.58358765,1.7369995,0.5392914,1.074295,-1.9508972,-0.340271,0.55009127,10.202958,1.4065553
1570715160,3.6320038,-4.6830597,-6.894699,0.99121094,-1.5407715,-0.7962036,2.736207,3.3036938,-6.6114974
1570715160,18.191147,-19.612701,6.2638245,-1.5132294,-8.114517,-3.4700165,18.571407,-10.88165,-1.3339126
1570715160,2.2236176,-12.764084,17.485458,-0.39790344,-1.4832458,-1.4034119,2.0434947,-6.8318577,20.622871
1570715160,-1.7369995,-8.544312,9.814438,-0.18591309,5.2140656,-1.0987396,-3.4361262,2.5562525,9.624281
1570715160,-2.363678,-19.612701,4.7530823,1.0732269,5.5826416,-0.29234314,-4.459367,-11.037872,6.6743045
1570715160,-3.2519226,-19.612701,-0.7080841,4.0889893,1.1063995,0.184906,-5.112996,-10.973592,-0.6728332
1570715160,-2.3780365,-16.795319,-1.3114166,4.7579803,-3.396469,1.713562,-4.6152415,-8.52537,-4.280001
1570715160,1.3605042,-12.15416,-19.612106,3.9526367,-5.8710785,1.0626831,0.17808235,-5.495002,-22.9308
1570715160,1.3605042,-12.15416,-19.612106,3.9526367,-5.8710785,1.0626831,0.17808235,-5.495002,-22.9308
1570715160,-1.593338,-4.1096497,-6.2315063,-0.14224243,1.3386383,-0.27209473,-3.6189346,3.5080996,-7.8476577
1570715160,-1.593338,-4.1096497,-6.2315063,-0.14224243,1.3386383,-0.27209473,-3.6189346,3.5080996,-7.8476577
1570715160,0.008377075,-1.6035156,-5.6814423,-1.106308,0.40545654,0.03895569,-1.956926,5.933855,-10.073144
1570715160,0.008377075,-1.6035156,-5.6814423,-1.106308,0.40545654,0.03895569,-1.956926,5.933855,-10.073144
1570715160,0.008377075,-1.6035156,-5.6814423,-1.106308,0.40545654,0.03895569,-1.956926,5.933855,-10.073144
1570715160,0.008377075,-1.6035156,-5.6814423,-1.106308,0.40545654,0.03895569,-1.956926,5.933855,-10.073144
1570715160,0.008377075,-1.6035156,-5.6814423,-1.106308,0.40545654,0.03895569,-1.956926,5.933855,-10.073144
1570715160,0.008377075,-1.6035156,-5.6814423,-1.106308,0.40545654,0.03895569,-1.956926,5.933855,-10.073144
1570715160,0.008377075,-1.6035156,-5.6814423,-1.106308,0.40545654,0.03895569,-1.956926,5.933855,-10.073144
1570715160,0.008377075,-1.6035156,-5.6814423,-1.106308,0.40545654,0.03895569,-1.956926,5.933855,-10.073144
1570715160,2.8730469,-4.8883667,7.0174103,-1.3630371,-1.7900543,0.49809265,-1.956926,5.933855,-10.073144
1570715160,2.8730469,-4.8883667,7.0174103,-0.8783417,0.4129181,0.8379059,-1.956926,5.933855,-10.073144
1570715160,5.7023926,3.3423004,1.8513184,0.820755,-0.10586548,0.25201416,5.880004,11.444329,3.875908
1570715160,3.438675,3.6942596,1.7453766,1.3693695,-2.4622345,-0.72483826,3.4738271,13.199187,2.792845
1570715160,3.438675,3.6942596,1.7453766,1.3693695,-2.4622345,-0.72483826,3.4738271,13.199187,2.792845
1570715160,-1.8082275,-1.7765045,-4.325119,1.2298279,-2.950119,0.14228821,-1.654496,7.5570097,-1.7491226
1570715160,5.00029,-13.275848,5.7293243,0.7983856,-4.458542,0.20407104,3.5432742,-7.409363,4.7525215
1570715160,5.00029,-13.275848,5.7293243,0.7983856,-4.458542,0.20407104,3.5432742,-7.409363,4.7525215
1570715160,2.087738,-6.269821,6.34404,-0.8272095,1.893631,-2.0819855,2.621448,0.37727737,9.52212
1570715160,2.087738,-6.269821,6.34404,-0.8272095,1.893631,-2.0819855,2.621448,0.37727737,9.52212
1570715160,-2.1009064,-19.612701,10.772705,1.3395386,5.649765,-1.2372284,-2.902329,-10.947493,11.396396
1570715160,-2.1009064,-19.612701,10.772705,1.3395386,5.649765,-1.2372284,-2.902329,-10.947493,11.396396
1570715161,-5.1457367,-17.870926,-11.724411,6.0671844,-4.856949,1.6890564,-8.024986,-9.923477,-11.563252
1570715161,-5.1457367,-17.870926,-11.724411,6.0671844,-4.856949,1.6890564,-8.024986,-9.923477,-11.563252
1570715161,3.957016,-10.937912,-15.724518,1.5302277,-3.8193817,1.7274017,2.570311,-4.013749,-22.592463
1570715161,2.8598785,-7.140106,-2.8550873,0.13153076,1.6816559,0.44482422,1.5656533,0.28984356,-5.5189295
1570715161,-4.5962677,-4.6190186,-3.0286713,0.22421265,-0.2454071,-0.47450256,-5.4893622,2.9159622,-7.126935
1570715161,-1.0408783,-1.8860321,-3.487152,-1.1403961,1.239563,-0.4425354,-2.363419,6.5464816,-7.223088
1570715161,-1.0408783,-1.8860321,-3.487152,-1.1403961,1.239563,-0.4425354,-2.363419,6.5464816,-7.223088
1570715161,-2.5839386,-1.6543884,0.7338257,-1.6570435,0.7676544,0.21472168,-4.5950685,6.2978535,-2.4136477
1570715161,-3.782837,-13.556564,1.7495575,-2.366516,0.9647217,0.78463745,-4.54493,-2.7571373,-1.7221766
1570715161,6.1764374,-19.612701,3.3333282,-2.574234,4.393814,1.6698761,2.7821445,-10.899244,3.7286587
1570715161,6.1764374,-19.612701,3.3333282,-2.574234,4.393814,1.6698761,4.824131,-10.86087,2.6811502
1570715161,11.856094,-19.612701,4.126999,-2.667984,3.4595795,-0.60232544,7.3022585,-10.713095,3.1276956
1570715161,6.3099213,-12.184097,-4.652527,-1.840271,-0.085617065,-0.59487915,6.767091,-3.110218,-6.38707
1570715161,6.3099213,-12.184097,-4.652527,-1.840271,-0.085617065,-0.59487915,6.767091,-3.110218,-6.38707
1570715161,0.8271942,-7.250839,5.2642517,-1.5334778,1.4089355,0.3968811,-1.952919,-0.6781235,4.669853
1570715161,0.8271942,-7.250839,5.2642517,-1.5334778,1.4089355,0.3968811,-1.952919,-0.6781235,4.669853
1570715161,1.7441711,1.960846,3.1908722,0.016494751,-0.048339844,0.40222168,1.5962135,10.792612,3.7723627
1570715161,1.6974945,2.403183,3.9989166,0.4596405,-0.5170593,0.42778015,1.0299386,11.116858,4.306485
1570715161,-1.0169373,0.1257019,-6.4290314,1.6836243,0.42037964,0.12738037,1.8464401,9.537117,1.435761
1570715161,-5.743683,-1.1917114,-18.883072,1.3363495,0.75912476,0.19448853,1.8464401,9.537117,-3.8299694
1570715161,4.7961884,-4.332901,-2.5252838,-1.8157654,-4.290222,-0.6332245,4.590622,4.710367,-9.888243
1570715161,5.3630066,-12.783844,13.585297,0.7238159,-1.6206665,-0.74720764,3.6302676,-3.4865847,16.048098
1570715161,7.7218933,-10.807434,12.363663,-0.10708618,-3.6542664,-1.0465393,8.503504,-8.559674,13.977129
1570715161,6.736084,-8.927383,11.456848,-0.06767273,-3.3804932,-1.1658478,8.503504,-8.559674,13.977129
1570715161,1.9632416,-9.047089,12.606674,-0.38937378,1.0233154,-2.3131409,0.57656,2.0979023,11.971709
1570715161,-4.068939,-19.612701,10.5841675,1.9392853,3.980484,-0.32429504,-5.960028,-10.985971,13.586774
1570715161,-3.7385406,-17.851166,-2.1709442,6.3984833,0.712265,0.56733704,-5.1731896,-10.105478,-1.7035866
1570715161,-3.7385406,-17.851166,-2.1709442,6.3984833,0.712265,0.56733704,-5.1731896,-10.105478,-1.7035866
1570715161,-1.4891968,-9.396042,-5.945404,2.0543365,-8.174179,1.8435211,-3.1400065,-2.1203933,-12.973979
1570715161,-1.4891968,-9.396042,-5.945404,2.0543365,-8.174179,1.8435211,-3.1400065,-2.1203933,-12.973979
1570715161,0.46388245,-4.34787,-2.6192627,-0.24450684,1.1522064,0.97639465,-2.4901235,2.765617,-5.591032
1570715161,-4.3652344,-6.1022186,-5.193619,-0.42134094,0.9924164,-0.40419006,-6.4408016,1.5510483,-7.4389205
1570715161,-3.8606567,-2.7503357,-4.037216,-0.85276794,-0.1346283,0.17425537,-6.358242,4.743451,-7.92451
1570715162,0.18734741,-4.126404,-5.8837433,-2.5838165,-0.15699768,0.9859772,-2.2071557,6.269271,-9.061143
1570715162,0.18734741,-4.126404,-5.8837433,-2.5838165,-0.15699768,0.9859772,-2.2071557,6.269271,-9.061143
1570715162,-2.0296783,-19.577988,4.3107605,-4.024063,2.1674042,1.7923889,-2.9373932,-10.95007,2.2843556
1570715162,-2.087738,-19.60971,4.7878113,-4.0783844,2.5849915,1.8190155,-2.9373932,-10.95007,2.2843556
1570715162,8.57962,-19.612701,-3.9773712,-3.0621338,1.9032288,0.583313,6.9625187,-10.749195,-3.8885357
1570715162,6.3081207,-19.612701,5.8131256,-1.4727478,-1.737854,0.35534668,7.8479214,-10.7213125,4.4207654
1570715162,-2.4875793,-16.420029,2.3756409,-0.2796631,0.043273926,0.5779877,0.359942,-5.6401405,4.171988
1570715162,-5.507263,-16.973694,2.2667084,-0.35316467,0.6270447,0.68769836,-3.8635278,-7.254099,0.853282
1570715162,-0.2741394,-11.857285,3.878006,-1.3800812,2.834259,-0.10697937,0.34415346,-2.4785614,2.2083807
1570715162,6.001068,-5.622177,2.9083557,-0.45329285,1.5697937,0.22111511,5.430239,2.1698866,4.093072
1570715162,6.462555,1.7387848,1.2288208,0.57788086,0.27870178,0.22006226,6.0386696,9.034327,2.6318784
1570715162,-0.8032532,1.6220703,-1.8267822,1.3193054,-0.29441833,-0.49687195,-0.395309,11.384087,-0.8044049
1570715162,-1.4538727,1.0528564,-2.1056976,1.2447357,-0.32318115,-0.44680786,-0.395309,11.384087,-0.8044049
1570715162,-3.628418,-3.6224213,-2.9975433,0.47987366,-1.4012299,0.21685791,-3.7249053,5.975071,-2.2281551
1570715162,-0.43754578,-11.471817,-0.31304932,-1.3427887,-4.1677246,1.0882416,-7.0757537,-2.955635,-14.950722
1570715162,10.954071,-19.612701,7.190979,-0.89538574,-3.5892792,-2.0297852,11.70587,-10.83716,9.346325
1570715162,7.8098907,-9.6037445,12.0979,-0.16461182,-0.17297363,-1.2510681,6.2745075,-6.2105913,15.813364
1570715162,-0.11911011,-18.795074,8.438965,-0.19763184,4.4950104,-2.1000977,-1.4265522,-7.187314,9.683609
1570715162,-0.11911011,-18.795074,8.253418,-0.19763184,4.4950104,-2.1000977,-1.9067276,-10.506393,9.068824
1570715162,-1.4431,-19.612701,-1.6364441,6.3494873,4.045471,0.40222168,-3.643317,-10.914465,-1.1277075
1570715162,-1.4431,-19.612701,-1.6364441,6.3494873,4.045471,0.40222168,-3.643317,-10.914465,-1.1277075
1570715162,-3.8241425,-19.612701,-13.119034,5.8253784,0.47683716,1.2895813,-4.988699,-11.067677,-11.375278
1570715162,1.26474,-13.091492,-19.612701,3.064209,-8.682312,2.1460571,-2.0416763,-5.892874,-23.1775
1570715162,2.7102356,-3.2004547,-2.6138763,-0.40748596,-0.071777344,0.32765198,1.7132537,4.3824377,-7.84359
1570715162,2.7102356,-3.2004547,-2.6138763,-0.40748596,-0.071777344,0.32765198,1.7132537,4.3824377,-7.84359
1570715162,-3.1519623,-2.1751251,-4.09169,-1.5398712,1.4707336,-0.6385498,-4.665539,6.2293453,-7.8330936
1570715162,-3.1519623,-2.1751251,-4.09169,-1.5398712,1.4707336,-0.6385498,-4.665539,6.2293453,-7.8330936
1570715162,3.4015656,-3.7978058,-4.2120056,-2.3270874,1.2843018,-0.30085754,1.2792335,4.712826,-6.2508297
1570715162,3.5799255,-4.1180267,-4.257492,-2.4208374,1.288559,-0.3690338,1.2792335,4.712826,-6.2508297
1570715162,-0.4812317,-10.469238,-1.538269,-3.320984,0.9924164,-0.95706177,-0.5481659,-0.22878742,-4.751275
1570715162,-11.865662,-19.612701,8.019974,-5.0030365,5.6561584,1.539917,-16.43548,-10.991425,9.969618
1570715162,9.920975,-19.612701,6.3817444,-2.1172333,-2.2470398,-0.65026855,8.748323,-10.785754,6.3833666
1570715162,9.920975,-19.612701,6.3817444,-2.1172333,-2.2470398,-0.65026855,8.748323,-10.785754,6.3833666
1570715162,6.5451508,-15.601822,-9.882065,-1.3087006,1.701889,0.18383789,5.922885,-8.484193,-8.1823635
1570715163,-1.7417755,-15.492279,2.9939423,-0.63119507,1.4717865,0.8570862,-4.759629,-8.567871,6.633909
1570715163,2.8916016,-8.544907,6.6002197,-0.8314667,2.0459747,0.6131439,0.8624176,-1.3650246,6.524456
1570715163,4.4065247,-2.98378,4.4957123,-1.0477142,3.0579681,0.44589233,4.3230877,5.3587055,6.7122912
1570715163,3.9845428,2.4768066,0.56562805,0.37760925,0.44274902,0.7409668,3.0470073,10.593993,3.3635294
1570715163,3.9707794,2.770691,3.3907928,1.9147949,-1.9732666,0.5662689,3.6671224,11.554522,4.743762
1570715163,2.660553,-0.54766846,0.4554901,1.8807068,-0.9282532,-0.086746216,2.1706715,8.559895,1.3885171
1570715163,2.660553,-0.54766846,0.4554901,1.8807068,-0.9282532,-0.086746216,2.1706715,8.559895,1.3885171
1570715163,0.66378784,-4.2161865,-7.715912,1.8764343,-1.4129486,-0.57144165,1.4036231,6.17922,-1.7353325
1570715163,2.7605133,-8.75679,3.7726593,-1.0146942,-3.3932648,-0.98049927,2.6266887,1.8723097,3.145493
1570715163,5.312729,-19.612701,6.0106506,-1.3417206,-3.8609161,-0.90167236,2.5054097,-6.882244,6.1975017
1570715163,7.72908,-12.704834,10.149017,-0.8655548,-1.9615479,-0.99754333,9.176199,-8.106088,11.370436
1570715163,2.0171204,-12.2642975,10.9049835,-0.14224243,3.119751,-1.4406891,0.38419878,-1.1235123,11.4655075
1570715163,1.4957733,-18.084,11.551422,-0.12625122,4.221237,-1.5269775,0.18191302,-4.6356125,12.001014
1570715163,-2.2655182,-19.612701,1.9865875,4.354248,2.4454498,-0.0025787354,-4.407192,-10.928482,3.0677652
1570715163,-5.667679,-19.612701,-2.5863342,5.3502655,-1.5833893,1.3609467,-7.8308597,-11.009774,-4.8246512
1570715163,-5.47554,-19.612701,-2.5947113,5.423767,-1.8092194,1.4546967,-7.8308597,-11.009774,-4.8246512
1570715163,5.044586,-11.692078,-19.612701,2.7659302,-10.388855,1.1404419,3.940193,-4.297943,-23.048416
1570715163,-0.21427917,-7.8440094,-1.1414337,-0.30947876,-4.0771637,1.6869202,-2.1230865,-1.344142,-10.98552
1570715163,-5.4013214,-4.01149,-6.7887573,-0.85595703,-0.31892395,-0.43081665,-7.713619,3.582097,-10.39979
1570715163,0.29867554,-0.93074036,-0.9516907,-1.2831421,-0.78123474,0.1572113,-2.8434143,7.073388,-4.200001
1570715163,0.29867554,-0.93074036,-0.9516907,-1.2831421,-0.78123474,0.1572113,-2.8434143,7.073388,-4.200001
1570715163,-2.3032227,-5.344452,2.6330261,-2.2749023,1.3152008,-0.19859314,-3.7346416,4.4973383,0.82988
1570715163,-2.3032227,-5.344452,2.6330261,-2.2749023,1.3152008,-0.19859314,-3.7346416,4.4973383,0.82988
1570715163,-6.7809753,-13.490723,6.5319824,-2.9449463,3.0164185,-0.164505,-7.869911,-3.0582075,4.453044
1570715163,-6.7809753,-13.490723,6.5319824,-2.9449463,3.0164185,-0.164505,-7.869911,-3.0582075,4.453044
1570715163,-6.7809753,-13.490723,6.5319824,-2.9449463,3.0164185,-0.164505,-7.869911,-3.0582075,4.453044
1570715163,-6.7809753,-13.490723,6.5319824,-2.9449463,3.0164185,-0.164505,-7.869911,-3.0582075,4.453044
1570715163,-6.7809753,-13.490723,6.5319824,-2.9449463,3.0164185,-0.164505,-7.869911,-3.0582075,4.453044
1570715163,-6.7809753,-13.490723,6.5319824,-2.9449463,3.0164185,-0.164505,-7.869911,-3.0582075,4.453044
1570715163,-6.7809753,-13.490723,6.5319824,-2.9449463,3.0164185,-0.164505,-7.869911,-3.0582075,4.453044
1570715163,-6.7809753,-13.490723,6.5319824,-2.9449463,3.0164185,-0.164505,-7.869911,-3.0582075,4.453044
1570715163,-6.7809753,-13.490723,6.5319824,-2.9449463,3.0164185,-0.164505,-7.869911,-3.0582075,4.453044
1570715163,8.210922,-19.612701,-2.1182709,-2.9449463,3.0164185,-0.164505,1.9271691,2.8682709,4.0688987
1570715164,-0.12869263,-18.769348,8.562271,-2.9449463,3.0164185,-0.164505,1.9271691,2.8682709,4.0688987
1570715164,0.3429718,-12.0781555,-11.389221,-0.7856598,-5.1062164,-0.0622406,-5.847342,-1.9482756,-19.219309
1570715164,1.4484863,-12.633011,-0.8056488,-0.73132324,-4.8058167,-0.21884155,-1.4830331,-3.1916447,-14.78632
1570715164,11.026489,-19.612701,5.107437,0.70783997,-3.7341614,-1.2681122,7.5724106,-9.3147745,9.201449
1570715164,6.6546783,-10.960663,9.571426,-0.19442749,0.32556152,-1.4460144,6.886365,-3.7289333,12.23538
1570715164,0.32022095,-13.032837,8.013397,-0.1401062,4.680374,-1.6612091,-2.0695875,-2.210514,8.183651
1570715164,0.4159851,-14.464569,8.431183,-0.14649963,4.8923492,-1.6484222,-2.0695875,-2.210514,8.183651
1570715164,-1.2653351,-19.612701,9.40921,0.87083435,5.56987,-0.79833984,-3.13166,-10.843476,11.1596775
1570715164,-3.2303772,-18.470062,-4.8045654,6.1470795,-1.404419,1.2501678,-4.459548,-9.77788,-6.3979874
1570715164,-3.5757446,-18.424576,-5.032608,6.348419,-1.9008331,1.2927704,-5.001913,-9.715788,-7.111274
1570715164,-0.101760864,-5.5718994,-0.205307,-0.19656372,-1.4086761,1.4280701,-3.0070286,1.9396915,-6.9278965
1570715164,0.038909912,-5.4372253,0.34776306,-0.3169403,-0.5213165,1.3439026,-2.5992565,2.5755148,-4.1702538
1570715164,-1.6112976,-3.6242218,-5.625778,-0.836792,-0.42544556,-0.09526062,-4.2496815,4.110442,-9.588221
1570715164,-1.6112976,-3.6242218,-5.625778,-0.836792,-0.42544556,-0.09526062,-4.2496815,4.110442,-9.588221
1570715164,-0.68533325,-2.111679,-0.27893066,-1.33107,-0.35939026,0.0357666,-2.9981205,6.1268206,-3.6519704
1570715164,-1.5400696,-4.7961884,0.7553711,-2.3899384,1.1010742,0.17211914,-3.1954203,4.377206,-0.87054825
1570715164,-1.5400696,-4.7961884,0.7553711,-2.3899384,1.1010742,0.17211914,-3.5806465,3.5126343,-1.2843901
1570715164,-1.5322876,-19.612701,5.297165,-2.7776947,4.787964,1.713562,-6.4086537,-10.767184,6.0234013
1570715164,9.6983185,-19.612701,-0.14724731,-1.6687622,2.7043,-0.5820923,7.0955095,-10.577554,-1.405869
1570715164,3.5063019,-19.612701,-0.9038086,-1.5100403,-1.036911,-0.61724854,3.5946848,-10.537246,-3.3453102
1570715164,0.21607971,-13.535019,4.3903656,-0.5022888,-1.1626129,0.12524414,0.31737322,-3.8964186,1.9850212
1570715164,-0.1478424,-13.835495,5.087082,-0.438385,-1.0262604,0.10394287,0.31737322,-3.8964186,1.9850212
1570715164,-2.613266,-12.823944,8.183975,-1.2245483,2.6606293,0.3564148,-4.0322924,-4.414222,7.8244815
1570715164,3.6062622,0.2567749,1.7597351,0.32008362,0.6685791,0.6056824,2.7987232,8.807784,2.9166853
1570715164,3.6062622,0.2567749,1.7597351,0.32008362,0.6685791,0.6056824,2.7987232,8.807784,2.9166853
1570715164,2.992157,2.348709,-1.1061249,1.9062653,-1.9551697,0.74949646,2.7140088,11.4329605,0.022875387
1570715164,2.992157,2.348709,-1.1061249,1.9062653,-1.9551697,0.74949646,2.7140088,11.4329605,0.022875387
1570715164,1.8722687,0.4920044,-3.5769348,1.329956,-2.97995,0.58117676,1.8992734,9.93052,-3.8053591
1570715164,-0.24420166,-2.9095612,-9.397247,-0.031448364,-3.7820892,0.22218323,0.37806085,6.951171,-7.475177
1570715164,7.6907806,-19.612701,10.887634,-1.1798096,-3.1876678,-2.699829,12.170641,-10.666944,11.504718
1570715164,5.246292,-19.612701,10.149017,-1.1371918,-2.867035,-2.473999,12.170641,-10.666944,11.504718
1570715164,-0.17059326,-9.529526,18.905212,0.0058288574,2.021469,-0.8750305,-2.5647166,0.16489315,15.568923
1570715164,-0.61172485,-10.848724,19.612701,0.21888733,2.6957855,-0.8643799,-2.5647166,0.16489315,15.568923
1570715165,-2.8766327,-19.612701,4.4687805,2.3781738,5.4793243,-0.6438751,-3.9973435,-10.740616,5.3184843
1570715165,-4.467575,-19.442719,2.953247,2.8128052,2.7437134,0.45547485,-6.6056404,-10.59407,1.5799553
1570715165,-2.763504,-17.974472,-2.9382782,3.7545013,6.5612793E-4,1.666687,-4.112319,-10.039974,-5.7163067
1570715165,-2.0392609,-17.03894,-3.8845978,5.7124634,-2.7306824,1.8200836,-3.4958472,-8.126227,-6.1597695
1570715165,0.9636688,-7.368759,-7.043747,-0.65782166,-9.121201,1.8158264,-0.5435016,-0.9839616,-15.320391
1570715165,0.65960693,-6.1578827,-4.94104,-0.9422455,-7.7864227,1.811554,-0.5435016,-0.9839616,-15.320391
1570715165,-2.6264343,-4.8692017,-6.3865356,-1.6730194,1.479248,-0.20924377,-4.8030233,3.058217,-9.539906
1570715165,-2.6264343,-4.8692017,-6.3865356,-1.6730194,1.479248,-0.20924377,-4.8030233,3.058217,-9.539906
1570715165,-2.000351,-3.7894287,-2.410965,-2.8501434,-0.057922363,0.0826416,-4.0137634,4.420909,-5.9305935
1570715165,-0.6775665,-7.8871,2.4331055,-2.862915,1.6731262,0.7825165,-2.2130735,1.8083334,1.270534
1570715165,-0.6775665,-7.8871,2.4331055,-2.862915,1.6731262,0.7825165,-2.2130735,1.8083334,1.270534
1570715165,7.5285645,-19.612701,-5.957367,-3.256012,2.0715332,0.9966278,4.931184,-10.553552,-6.5425744
1570715165,7.5285645,-19.612701,-5.957367,-3.256012,2.0715332,0.9966278,4.931184,-10.553552,-6.5425744
1570715165,4.592682,-15.29895,1.885437,-1.1670227,-0.25500488,0.9124756,4.977298,-6.46776,2.5049105
1570715165,4.592682,-15.29895,1.885437,-1.1212158,-0.05152893,0.8869171,4.977298,-6.46776,2.5049105
1570715165,-2.2319946,-15.092453,0.47764587,-1.3832703,2.799118,0.7878418,-1.8148736,-5.9613934,2.1986156
1570715165,4.5807037,-3.711609,3.099289,0.8495178,-0.007858276,1.0189972,3.2605615,4.270254,5.5452604
1570715165,4.8201294,-3.257904,2.9023743,0.92089844,-0.017440796,0.9785156,4.189232,5.1749334,5.063449
1570715165,5.4216766,0.70388794,1.0372925,1.3896179,-0.17829895,0.42671204,5.4637947,9.115261,2.7530959
1570715165,3.8271332,1.8513184,-1.0474701,2.4964294,-1.6174774,-0.7216339,3.787804,10.976953,-0.33093625
1570715165,-6.317108,-6.8761444,-5.684433,0.98054504,-0.90693665,-0.3551941,-4.8273554,3.349495,-5.0319386
1570715165,-6.511032,-7.0862427,-5.907089,0.8218231,-0.9112091,-0.20285034,-6.533708,2.3029995,-5.6770916
1570715165,8.068466,-19.612701,9.424774,-0.21574402,-2.4632874,-0.13999939,3.095131,-2.4489594,7.459299
1570715165,10.87207,-19.612701,7.7308807,-0.21574402,-2.4632874,-0.13999939,6.586358,-8.987228,9.157479
1570715165,1.6112976,-19.612701,6.3937225,0.47880554,-2.661438,-1.6036835,3.0616791,-10.60101,9.235454
1570715165,2.5827484,-7.1215515,7.1520844,-1.1531677,0.1860199,-1.453476,0.46831906,4.118226,3.6755307
1570715165,2.5827484,-7.1215515,7.1520844,-1.1531677,0.1860199,-1.453476,0.46831906,4.118226,3.6755307
1570715165,-1.0941467,-19.612701,5.973526,2.4644623,5.8479004,-0.42337036,-3.2845538,-10.731341,7.5670204
1570715165,-1.0941467,-19.612701,5.973526,2.4644623,5.8479004,-0.42337036,-3.2845538,-10.731341,7.5670204
1570715165,-1.8567047,-18.258179,-10.526108,6.266388,-1.7761993,1.4685516,-3.362464,-10.061734,-10.076776
1570715165,-2.0129242,-17.978653,-11.204269,6.3367004,-2.5591736,1.4206085,-3.3462577,-9.650926,-12.847415
1570715165,4.7375336,-12.613251,-19.612701,5.2234955,-12.74736,1.5825348,1.3400757,-5.49792,-23.32976
1570715165,1.3168182,-4.7572784,1.427536,-0.13478088,-2.788208,1.7114258,-1.9140079,1.3989801,-5.9274683
1570715165,-0.5285187,-4.520859,-4.4214935,-0.9933777,3.1048431,-0.35838318,-2.134324,3.9499369,-6.0953813
1570715166,-4.953598,-3.75531,-5.0894775,-2.0117798,1.0914917,-0.43188477,-7.031536,4.0409555,-9.548817
1570715166,-1.1073151,-3.4614105,-0.36930847,-2.5007324,0.3660431,0.46826172,-3.6868174,4.9606495,-2.7815616
1570715166,-1.1073151,-3.4614105,-0.36930847,-2.5007324,0.3660431,0.46826172,-3.6868174,4.9606495,-2.7815616
1570715166,-3.9037476,-19.612701,2.8951874,-3.9974365,4.3352203,1.2640076,-4.765613,-10.706315,2.378398
1570715166,-3.9037476,-19.612701,2.8951874,-3.9974365,4.3352203,1.2640076,-5.3691196,-10.694453,2.9445076
1570715166,9.289505,-19.612701,1.4011993,-2.1971283,-4.477707,0.5385742,8.68268,-10.582268,0.30847287
1570715166,8.904633,-19.612701,2.558197,-2.1971283,-4.477707,0.5385742,8.68268,-10.582268,0.30847287
1570715166,1.4107819,-13.233353,3.0436249,-1.3630371,2.01828,1.2363129,2.3961024,-5.3271017,3.0168533
1570715166,-4.9542084,-14.009674,-0.25079346,-2.159851,4.6580048,0.90715027,-3.5476985,-4.527375,2.6411223
1570715166,3.7960052,-6.3823395,4.5555725,0.27108765,0.5173187,0.48316956,2.1664915,1.872509,7.205062
1570715166,5.016449,-5.321106,3.383606,0.6215515,0.45446777,0.45228577,4.219704,2.978632,6.334437
1570715166,5.7113647,0.8738861,1.5328827,1.186142,0.24461365,0.0634613,5.6006336,9.342266,3.3063745
1570715166,4.2826233,2.5719757,-2.1080933,2.3590088,-2.3407898,-0.61724854,4.5449967,11.906585,-0.10062504
1570715166,1.3473358,-1.6855164,-5.696411,0.3935852,-1.149826,-0.5543976,0.716136,7.7231884,-5.5329046
1570715166,-0.08081055,-3.5464172,-4.5902863,-0.13796997,-1.6100159,-0.258255,0.017327607,6.140439,-3.257948
1570715166,7.2867584,-19.612701,2.4462738,-0.4564972,-1.5695343,-2.1586761,9.065086,-10.70398,4.8908873
1570715166,7.2867584,-19.612701,2.4462738,-0.4564972,-1.5695343,-2.1586761,9.065086,-10.70398,4.8908873
1570715166,0.27053833,-19.612701,5.606018,-1.1499786,-1.8401184,-1.4300385,-1.8663247,-10.731877,7.779266
1570715166,0.01675415,-5.412094,5.2875977,-0.67700195,0.22969055,-1.0944824,-1.2659569,3.1830502,6.84542
1570715166,-1.1121063,-12.559982,11.288055,-0.9411926,3.1144257,-1.3639984,-3.1119905,-1.3801556,11.542781
1570715166,-3.1082764,-19.612701,11.475403,1.8838959,5.171463,-0.92404175,-5.668646,-10.887405,15.915132
1570715166,-2.0524292,-19.612701,1.0660248,5.531357,3.837738,0.1103363,-4.698941,-10.790469,4.450954
1570715166,-2.7359772,-18.682556,-3.5877075,6.108734,-1.8209381,1.5005035,-5.5000043,-10.947837,-4.746537
1570715166,8.550293,-15.810104,-19.606125,6.3867645,-5.861496,1.5718689,0.9078516,-9.139833,-22.954184
1570715166,0.15562439,-5.6269684,-0.4878235,-0.42453003,0.60572815,-0.5224304,-1.2615006,2.0943642,-3.347522
1570715166,-1.3868408,-5.143936,-2.5282745,-0.11773682,0.06138611,-0.6843567,-2.9315143,2.9407778,-4.973756
1570715166,-2.3445282,-3.7810364,-8.550888,0.09744263,-0.82810974,-0.36157227,-4.2056074,4.216605,-10.0704775
1570715166,-7.478882,-2.6108704,-1.0223236,-1.4631653,-0.33276367,0.4118042,-9.81205,5.2069454,-5.8678694
1570715166,-1.383255,-2.0578156,-0.25737,-2.4336243,1.588974,0.36386108,-4.0659285,6.6253405,-2.6774058
1570715166,-1.3126221,-13.838486,1.3545227,-3.8078156,2.3506317,0.86027527,-2.5281072,-3.3686638,0.16627133
1570715166,-1.3126221,-13.838486,1.3545227,-3.8078156,2.3506317,0.86027527,-2.5281072,-3.3686638,0.16627133
1570715166,3.023285,-19.612701,-1.8956146,-3.4839783,3.995407,1.411026,0.9566494,-10.670105,0.5580668
1570715166,8.901047,-19.612701,1.2898712,-2.395279,-1.2414398,0.17851257,7.995034,-10.609498,0.58369064
1570715167,5.199005,-18.429962,-0.023345947,-1.5803375,-0.8898926,1.0371094,6.0220885,-10.113458,-0.32988167
1570715167,-2.8598785,-18.418,5.9364166,-1.1340027,1.399353,1.1553497,-2.3554273,-9.228744,6.41158
1570715167,-2.5474243,-11.829758,0.7457886,-2.0277557,3.851593,0.710083,-3.1644526,-3.6023912,3.684001
1570715167,5.3618164,-3.210022,3.111267,0.36909485,1.3652649,0.60461426,4.583077,4.97353,5.441655
1570715167,5.2744293,2.1122894,-0.9822235,1.9957428,-0.30932617,0.18702698,4.948026,10.912015,1.1362474
1570715167,5.2744293,2.1122894,-0.9822235,1.9957428,-0.30932617,0.18702698,4.948026,10.912015,1.1362474
1570715167,4.344879,2.3301544,-1.6107025,2.34729,-1.2819214,-0.18580627,4.2520556,11.2849245,-0.66259515
1570715167,0.8457489,0.7266388,-5.331894,1.4577942,-1.3703308,-0.33068848,0.697984,10.364455,-4.388496
1570715167,10.228622,-13.004105,5.775406,0.19012451,-3.047058,-0.19859314,4.7575774,1.0462179,2.3058782
1570715167,12.43309,-15.390533,8.370728,0.42980957,-3.047058,-0.19859314,8.4008875,-2.9126682,4.8289633
1570715167,5.146332,-19.612701,10.00177,-0.5491638,-4.5341644,-2.3685303,10.873133,-10.713649,5.7720547
1570715167,3.65654,-8.028351,12.542618,-0.60243225,-0.9090729,-1.27771,2.9206858,-1.4889097,13.133936
1570715167,0.9038086,-4.4496307,7.039551,-0.30096436,1.7455597,-1.8540192,-0.5643716,4.669202,8.250845
1570715167,-5.015854,-19.612701,15.6167755,0.04524231,5.5783844,-1.6356354,-6.2552814,-10.897603,14.835133
1570715167,-4.3652344,-19.612701,4.835083,3.0301208,4.6846313,0.60461426,-7.797725,-10.859666,6.235825
1570715167,-6.118988,-19.612701,-4.7022095,6.6818542,-3.0417328,0.9838562,-8.050018,-10.996619,-7.812193
1570715167,-5.3701935,-19.1165,-3.0843353,6.854416,-4.242279,1.5356598,-8.1501,-11.115944,-6.579419
1570715167,1.8902283,-7.676407,-4.28981,0.26895142,-4.928314,1.5654907,-0.55432796,-0.9927273,-12.542589
1570715167,2.1051025,-5.319916,-0.12269592,-0.3393097,2.994049,0.33509827,-0.5381837,2.831974,-1.6996925
1570715167,-1.6394348,-4.814743,-7.506424,-0.6045685,0.67071533,-0.5916748,-3.5323465,2.7922602,-10.842577
1570715167,-1.704071,-2.451065,-1.193512,-1.2106934,-0.59802246,-0.22521973,-3.9463737,5.7074957,-5.4953427
1570715167,-2.1685486,-1.0630188,-2.3894196,-1.8317413,1.6145325,-0.12295532,-4.869612,7.294732,-3.0658002
1570715167,-2.032074,-1.3144226,-3.2555084,-1.8828735,1.5687256,-0.1133728,-4.5683894,7.232418,-4.4418654
1570715167,-10.5368805,-19.581573,7.368149,-4.514084,3.2657013,0.789978,-10.055819,-9.608822,3.4803715
1570715167,6.4493866,-19.612701,-5.4007263,-3.6693268,3.0579681,2.0033112,2.8502553,-10.66256,-4.5762577
1570715167,6.4493866,-19.612701,-5.4007263,-3.6693268,3.0579681,2.0033112,2.8502553,-10.66256,-4.5762577
1570715167,12.88559,-19.612701,6.903076,-2.7915497,-2.0201416,-1.18396,13.002458,-10.612801,3.1851268
1570715167,13.169312,-16.647476,-0.026931763,-0.15396118,0.97857666,1.5154114,9.909637,-10.208212,7.5040975
1570715167,0.6368561,-10.386047,3.995926,-1.4546356,2.3090973,0.39901733,0.05189401,-1.2926636,4.7655835
1570715167,1.2425842,-9.744995,4.8434753,-1.3449249,2.1556854,0.4384308,0.05189401,-1.2926636,4.7655835
1570715167,5.056549,-3.0939026,4.5920715,-0.51934814,2.1258698,0.45335388,4.353929,5.077918,6.289691
1570715167,4.814743,1.8022308,1.498764,0.27641296,1.3674011,0.4363098,4.4419775,10.103648,4.414275
1570715167,4.20961,3.7618866,1.4754333,1.6548615,-0.7567444,0.39901733,3.5534647,12.738066,2.6203592
1570715168,1.3617096,0.6470337,-8.489243,0.9698944,-2.199112,0.030441284,1.3179832,10.141157,-6.958331
1570715168,1.3617096,0.6470337,-8.489243,0.9698944,-2.199112,0.030441284,1.3179832,10.141157,-6.958331
1570715168,3.1513672,-9.333801,2.9861755,-0.05381775,-3.3005981,-0.86865234,2.5288136,2.0817242,2.2067146
1570715168,7.088028,-18.836975,9.235031,-0.9720764,-3.2739563,-1.039093,4.4686327,-10.819121,12.00866
1570715168,7.5255737,-16.661255,8.00621,-0.95077515,-2.9724884,-1.022049,4.4686327,-10.819121,12.00866
1570715168,1.3425446,-6.529587,8.668808,-1.2543793,-0.120773315,-1.263855,0.92824423,0.29088116,8.837379
1570715168,1.0690155,-10.413574,14.787186,-0.076187134,4.1338806,-1.406601,-1.2038254,0.41189766,16.185202
1570715168,-3.3961792,-19.612701,5.9280396,2.5741882,4.439621,-0.5373535,-4.822912,-10.967929,6.518834
1570715168,-2.9592285,-19.612701,-1.170166,3.4541016,0.27975464,0.9454956,-4.457963,-10.915065,-2.4071856
1570715168,6.5750732,-15.706558,-19.612701,6.8277893,-9.9095,1.3321838,1.2669485,-9.12332,-23.219498
1570715168,6.1261597,-15.21875,-19.612701,5.6208496,-10.513504,1.2533569,1.2669485,-9.12332,-23.219498
1570715168,-0.0053863525,-5.8711853,-0.7272339,-0.600296,3.1133575,-0.24333191,-2.0033505,1.9739904,-2.494174
1570715168,-0.0053863525,-5.8711853,-0.7272339,-0.600296,3.1133575,-0.24333191,-2.0033505,1.9739904,-2.494174
1570715168,-1.9141693,-2.4253235,-2.8748322,-0.19337463,-1.3426361,-0.15171814,-4.512768,5.457431,-6.22418
1570715168,-1.7645264,-2.1182709,-2.4570465,-0.28604126,-1.2094727,-0.14427185,-4.512768,5.457431,-6.22418
1570715168,-2.7150269,-5.084091,-0.43574524,-2.8096619,1.5335846,0.26585388,-4.859057,4.1415625,-3.187707
1570715168,-2.7150269,-5.084091,-0.43574524,-2.8096619,1.5335846,0.26585388,-4.859057,4.1415625,-3.187707
1570715168,0.08081055,-19.612701,4.282028,-2.6882172,5.177841,2.748993,-3.102789,-10.892105,3.8735147
1570715168,0.08081055,-19.612701,4.282028,-2.6882172,5.177841,2.748993,-3.102789,-10.892105,3.8735147
1570715168,9.724655,-19.612701,2.2511444,-1.8775482,1.6166687,0.87838745,3.1001382,-10.590005,2.9757493
1570715168,9.724655,-19.612701,2.2511444,-1.8775482,1.6166687,0.87838745,3.1001382,-10.590005,2.9757493
1570715168,-1.1665802,-15.1145935,4.4568024,-1.3896637,-0.9378357,0.3691864,1.4073956,-4.924942,-4.4178915
1570715168,1.8788452,-7.602783,4.5597534,-1.8104401,2.542389,0.47572327,0.63713354,0.806221,5.670987
1570715168,1.8788452,-7.602783,4.5597534,-1.8104401,2.542389,0.47572327,0.63713354,0.806221,5.670987
1570715168,3.2740784,-1.6573792,4.782425,-0.67700195,1.5548859,0.6440277,2.4488926,5.461585,6.318277
1570715168,3.8127594,2.5833435,2.9598389,0.5235596,0.12423706,0.5428314,3.228712,11.133592,4.25213
1570715168,5.373184,4.1688995,2.0901337,1.4833527,-1.165802,0.0826416,5.1945767,13.204884,2.5896037
1570715168,3.830719,1.8788452,-1.2485809,1.6367493,-1.2425079,-0.27742004,3.848962,11.680303,0.29155856
1570715168,0.9349365,-3.9217072,-16.737259,-1.0083008,-3.7895508,0.15293884,-1.5677357,5.3897038,-18.66981
1570715168,3.0621796,-6.594223,6.14592,-1.0498352,-2.6539764,-0.62257385,3.665345,3.623598,5.653084
1570715168,8.289917,-19.612701,12.499527,-0.6876526,-4.4702606,-1.8369751,14.523549,-10.787544,8.939957
1570715168,-2.0057373,-4.953598,8.112747,-0.10494995,0.5130615,-1.8678589,-2.31603,4.3146677,9.047367
1570715168,-2.0057373,-4.953598,8.112747,-0.10494995,0.5130615,-1.8678589,-2.31603,4.3146677,9.047367
1570715168,-2.05542,-19.612701,12.559387,0.3882599,4.425766,-2.025528,-1.7069333,-8.404812,14.225432
1570715169,-6.063919,-19.612701,7.463318,2.841568,2.9546356,0.055999756,-9.237356,-10.916293,9.433525
1570715169,-3.4195251,-19.6109,-19.564224,8.295715,-6.1576385,1.3247375,-6.591254,-11.204187,-12.454323
1570715169,-1.9422913,-19.257767,-19.612701,8.235001,-7.0204926,1.3811951,-5.7382703,-11.306637,-20.668531
1570715169,-2.0440521,-10.909775,-7.392105,1.2532654,-7.2527313,2.2834778,-4.5021477,-4.068942,-17.457882
1570715169,0.91218567,-4.075531,1.9638367,-0.066604614,2.844925,0.6759949,-1.0237496,3.5087242,-1.125135
1570715169,-0.89723206,-2.6623535,-8.4216,0.021820068,2.8268127,-0.46064758,-2.7515059,4.972657,-9.615754
1570715169,-2.3768463,-2.6479797,0.36871338,-2.1385498,0.24887085,0.08583069,-4.088531,5.673314,-3.275673
1570715169,-1.8824463,-2.0506287,2.2559357,-2.1683655,1.1255798,0.24562073,-4.0271835,6.008996,-0.43709946
1570715169,-1.2294159,-4.9518127,0.5859833,-2.6775665,1.4217224,0.30847168,-2.2186856,4.760935,-1.6540076
1570715169,-1.5640106,-5.6185913,0.76794434,-2.7404175,1.4313049,0.30207825,-2.6133265,3.8058338,-1.3079618
1570715169,4.141968,-19.612701,-5.5354004,-3.5010223,3.884613,1.9244843,1.6310025,-10.700641,-3.9168975
1570715169,4.141968,-19.612701,-5.5354004,-3.5010223,3.884613,1.9244843,1.6310025,-10.700641,-3.9168975
1570715169,11.917145,-19.612701,6.760025,-3.085556,0.9242401,-0.64601135,9.470634,-10.656282,3.0747724
1570715169,4.7411194,-13.837296,-6.7468567,-1.0999146,0.7804413,0.77293396,7.671282,-4.29031,-7.0074286
1570715169,-2.0811615,-13.299789,4.4843445,-0.37020874,0.5886841,0.6845093,-3.6396701,-6.1861916,5.64242
1570715169,-2.0811615,-13.299789,4.4843445,-0.37020874,0.5886841,0.6845093,-3.6396701,-6.1861916,5.64242
1570715169,2.817978,-6.328476,2.9113464,-0.7622223,2.1290588,0.24562073,1.4614046,1.0749931,4.8570347
1570715169,3.9791565,1.5370789,0.09815979,1.0284882,-0.12184143,0.40008545,3.9131627,10.327039,1.743423
1570715169,4.1808777,2.323578,0.68414307,1.6037292,-1.052887,0.34469604,3.7722583,10.947117,1.3731265
1570715169,4.383789,2.716217,1.0450745,1.9786987,-1.3032227,-0.054779053,4.312743,11.676128,2.0855205
1570715169,1.9841919,0.45489502,-2.7293854,1.4151764,-1.8401184,-0.52349854,2.4277306,9.982491,-1.5035189
1570715169,-2.3493042,-2.656372,-5.379776,0.4170227,-3.063034,-0.25611877,-2.2496796,6.496995,-3.9503007
1570715169,1.7280121,-12.559982,8.668808,0.091049194,-2.5442505,-0.26783752,1.3235899,0.04695511,6.63206
1570715169,13.215393,-19.612701,-0.25498962,-0.123062134,-3.9024658,-0.94641113,12.47775,-10.794546,0.3255423
1570715169,-0.541687,-8.690353,6.5607147,-1.3374634,0.5705719,-1.4694519,-1.459085,1.5865831,5.9304914
1570715169,-0.541687,-8.690353,6.5607147,-1.3374634,0.5705719,-1.4694519,-1.459085,1.5865831,5.9304914
1570715169,1.5951385,-17.753006,11.611282,-1.0605011,2.9887238,-1.5813141,-0.9508139,-5.828434,11.253035
1570715169,-2.1775208,-19.612701,12.382217,2.1757812,5.4654694,-0.83029175,-3.1245532,-10.891267,14.0684185
1570715169,-5.8562164,-19.612701,-2.1056976,5.5718384,-0.783371,1.0861206,-7.3219404,-10.882057,-4.4535446
1570715169,-5.6479187,-19.60971,-3.925293,6.1896973,-2.2374573,1.4568329,-7.6990786,-10.954633,-5.108782
1570715169,0.68115234,-12.332535,-19.612701,2.0969543,-11.503128,1.6155548,0.2907853,-5.9790215,-23.406652
1570715169,-0.3106537,-5.883148,1.091156,-0.58325195,-3.283554,1.8744049,-3.1954758,-0.05519104,-8.80994
1570715169,-4.6124268,-3.5601807,-5.549164,-0.6045685,0.6739044,-0.60765076,-6.735922,4.152233,-8.951873
1570715169,-4.6124268,-3.221405,-5.133774,-0.66741943,0.53862,-0.54693604,-6.735922,4.152233,-8.951873
1570715170,-3.055008,-0.17118835,-0.6775665,-1.4067078,0.9615326,0.026184082,-5.6571193,8.165168,-3.5102727
1570715170,-2.4157562,-1.9841919,0.29089355,-2.0234985,1.7839203,0.1337738,-4.4737487,6.6050644,-2.8395
1570715170,-4.400543,-19.612701,2.4283142,-3.5904999,2.688324,0.9891815,-4.947295,-7.7627916,0.23906887
1570715170,-4.8763885,-19.612701,3.0825348,-3.5702515,2.8545074,1.1361847,-4.947295,-7.7627916,0.23906887
1570715170,10.533295,-19.612701,-4.158127,-2.889557,1.173523,0.33616638,8.568705,-10.676945,-4.1955533
1570715170,3.356079,-16.118958,-2.9861755,-0.8708801,-0.11972046,0.7644043,3.369357,-7.7305555,-2.8766685
1570715170,3.356079,-16.118958,-2.9861755,-0.8708801,-0.11972046,0.7644043,3.369357,-7.7305555,-2.8766685
1570715170,1.6238708,-9.305069,2.142212,-1.4546356,2.432663,0.35746765,-1.6868407,-2.6097603,3.5255885
1570715170,1.6238708,-9.305069,2.142212,-1.4546356,2.432663,0.35746765,-1.6868407,-2.6097603,3.5255885
1570715170,6.949768,-1.5658112,3.1567535,0.03779602,1.2747192,0.37345886,6.1858654,6.1460896,5.5488577
1570715170,4.2473145,3.2273865,1.3293762,1.4279633,-1.0422363,-0.24333191,4.186034,12.542168,2.5970721
1570715170,4.2473145,3.2273865,1.3293762,1.4279633,-1.0422363,-0.24333191,4.186034,12.542168,2.5970721
1570715170,-2.676117,-5.1415405,-7.083252,0.1379242,-1.6781921,0.50341797,-2.9661796,4.1552343,-7.818786
1570715170,-2.676117,-5.1415405,-7.083252,0.1379242,-1.6781921,0.50341797,-2.9661796,4.1552343,-7.818786
1570715170,2.3690643,-6.5176086,3.3710327,-0.65356445,-3.7458801,0.138031,2.0768402,3.4200964,1.4004482
1570715170,4.214386,-9.095566,7.565674,-0.28604126,-3.4955292,0.22431946,2.1914663,1.9420357,4.6656237
1570715170,4.214386,-9.095566,7.565674,-0.28604126,-3.4955292,0.22431946,2.1914663,1.9420357,4.6656237
1570715170,4.214386,-9.095566,7.565674,-0.28604126,-3.4955292,0.22431946,2.1914663,1.9420357,4.6656237
1570715170,4.214386,-9.095566,7.565674,-0.28604126,-3.4955292,0.22431946,2.1914663,1.9420357,4.6656237
1570715170,4.214386,-9.095566,7.565674,-0.28604126,-3.4955292,0.22431946,2.1914663,1.9420357,4.6656237
1570715170,4.214386,-9.095566,7.565674,-0.28604126,-3.4955292,0.22431946,2.1914663,1.9420357,4.6656237
1570715170,4.214386,-9.095566,7.565674,-0.28604126,-3.4955292,0.22431946,2.1914663,1.9420357,4.6656237
1570715170,4.214386,-9.095566,7.565674,-0.28604126,-3.4955292,0.22431946,2.1914663,1.9420357,4.6656237
1570715170,4.214386,-9.095566,7.565674,-0.28604126,-3.4955292,0.22431946,2.1914663,1.9420357,4.6656237
1570715170,-0.56503296,-3.5212708,1.95607,-1.2149658,0.9466095,1.0200653,-6.705696,-11.696365,-9.3843155
1570715170,-3.588913,-2.6743164,-4.285019,-1.0285339,1.8126831,-0.6854248,-5.3650045,5.6632786,-6.989243
1570715170,-5.0296173,-1.3431396,-0.45429993,-1.2266693,-0.11972046,0.067718506,-7.9854593,6.235773,-4.885979
1570715170,-1.3712769,-1.1635895,0.020950317,-1.4567719,1.7775269,0.3649292,-4.015045,7.0838604,-2.1209395
1570715170,-1.3712769,-1.1635895,0.020950317,-1.4567719,1.7775269,0.3649292,-4.015045,7.0838604,-2.1209395
1570715170,1.9494781,-5.6425323,-3.4560242,-1.9212341,0.025161743,0.6259155,0.20206344,3.340826,-6.5964775
1570715170,-8.143875,-19.612701,8.632294,-4.4480286,6.800247,2.1023712,-12.373042,-10.869057,8.930381
1570715170,-8.143875,-19.612701,8.632294,-4.4480286,6.800247,2.1023712,-12.373042,-10.869057,8.930381
1570715171,5.6263733,-19.612701,16.280579,0.12408447,-0.82492065,0.19874573,1.5446461,-10.545834,13.88201
1570715171,5.6263733,-19.612701,16.280579,0.12408447,-0.82492065,0.19874573,1.5446461,-10.545834,13.88201
1570715171,1.5861511,-14.170685,1.406601,-0.9177551,0.269104,0.25627136,3.5438643,-4.4945107,-7.071612
1570715171,1.3652954,-8.150467,5.1247864,-1.2692871,2.561554,0.23603821,0.20652425,0.045205116,4.5498185
1570715171,1.5795746,-7.843399,4.9990997,-1.2692871,2.561554,0.23603821,0.20652425,0.045205116,4.5498185
1570715171,4.549576,1.7567444,1.8968048,0.80371094,-0.4882965,0.37878418,3.7891688,10.415152,2.6972528
1570715171,4.549576,1.7567444,1.8968048,0.80371094,-0.4882965,0.37878418,3.7891688,10.415152,2.6972528
1570715171,4.098282,3.842102,0.51416016,1.3150482,-0.53196716,0.05706787,3.7892485,12.468917,1.5730977
1570715171,-0.38845825,-1.8632812,-5.0511627,-0.22213745,-2.5005798,-0.0036468506,-2.0915146,6.63319,-3.9827578
1570715171,-0.38845825,-1.8632812,-5.0511627,-0.22213745,-2.5005798,-0.0036468506,-2.0915146,6.63319,-3.9827578
1570715171,0.07901001,-10.628464,5.7221375,0.31263733,-1.6132202,0.4394989,-1.1007178,1.3239164,7.0070453
1570715171,1.0330963,-10.628464,5.7221375,0.30410767,-1.6803284,0.5087433,-1.1007178,1.3239164,7.0070453
1570715171,11.751343,-19.612701,8.262985,-0.18058777,-4.3307037,-1.646286,13.404301,-10.7574005,9.385811
1570715171,3.8002014,-9.254181,6.767807,0.6087799,-1.8731384,-1.9562836,3.3313832,-1.2685757,8.196594
1570715171,0.19812012,-16.92221,5.1714783,-0.5257263,0.970047,-1.7123413,-1.7506891,-6.7698307,4.4565873
1570715171,1.6364441,-19.612701,14.402924,-0.15289307,3.579956,-1.7858429,-0.66713023,-10.835266,13.021452
1570715171,-3.7894287,-19.612701,-3.5392303,5.324707,3.2060394,0.6642761,-5.228343,-10.95033,-2.7388484
1570715171,-3.7894287,-19.612701,-3.5392303,5.324707,3.2060394,0.6642761,-5.5738335,-10.9874115,-5.4893055
1570715171,4.833893,-13.827118,-19.612701,5.1457367,-11.570236,1.8861237,1.3059576,-6.633487,-23.653522
1570715171,2.2469635,-3.5093079,-1.0624237,-0.883667,2.1290588,0.3414917,-0.12693119,3.9698253,-4.229944
1570715171,1.9758148,-3.6224213,-1.6454163,-0.9486389,2.3080292,0.09968567,-0.12693119,3.9698253,-4.229944
1570715171,-2.4522552,-1.2324219,-1.7286072,-0.43199158,-0.6139984,-0.5213623,-4.724386,6.190909,-5.7953186
1570715171,-4.5280304,-1.1719666,0.5566559,-0.9060364,0.59721375,-0.513916,-6.7618356,6.979919,-2.8237731
1570715171,-6.400299,-3.1328125,-2.568985,-1.2202911,1.5538177,-0.18048096,-8.752668,5.109336,-4.8609815
1570715171,-3.9815521,-3.103485,-6.290161,-1.7284088,1.0691223,0.33190918,-7.8527603,4.8620815,-8.788964
1570715171,-2.0105286,-11.547836,4.8751984,-3.8056793,2.020401,0.8400421,-2.6341088,-1.7645788,0.31399345
1570715171,-5.262451,-19.612701,4.6148224,-3.97612,5.2129974,1.5942535,-7.088324,-10.975391,4.8598356
1570715171,8.158844,-19.612701,-2.8760376,-3.4424286,4.212723,0.7196655,5.827866,-10.692137,-3.0028543
1570715171,12.9646,-19.612701,2.1284485,-3.1899567,1.3322449,-2.0478973,12.087707,-10.645371,0.2318649
1570715171,-3.7223816,-16.816269,10.1609955,-1.4929962,0.37243652,0.7271271,-4.38447,-7.796014,8.235746
1570715171,-3.7223816,-16.816269,10.1609955,-1.4929962,0.37243652,0.7271271,-4.38447,-7.796014,8.235746
1570715171,1.6202698,-9.538498,6.161484,-2.4368134,2.8672943,0.852829,-2.0434818,-2.5444164,6.1090927
1570715171,6.123169,-0.5117645,4.6866455,-0.65782166,1.6954956,0.9881134,5.4369373,7.068243,7.994919
1570715172,4.256897,3.8528748,2.4319153,1.2191772,-0.49041748,0.43203735,3.4880836,12.641153,4.5641413
1570715172,4.256897,3.8528748,2.4319153,1.2191772,-0.49041748,0.43203735,3.4880836,12.641153,4.5641413
1570715172,3.2519226,4.8015747,1.1480255,1.8775024,-0.9484863,0.09754944,2.844977,13.461274,3.1226864
1570715172,1.4257507,1.1198883,-3.8355103,1.2287598,-2.840393,-0.20924377,1.3959434,11.072058,-2.895795
1570715172,0.5117645,-2.6815033,-3.2004547,0.5203552,-3.2004547,-0.004714966,-0.029686034,6.287422,-1.8076372
1570715172,16.209946,-19.612701,11.990158,1.8604584,-1.6845856,-0.12295532,8.753728,-10.872156,14.322861
1570715172,16.209946,-19.612701,11.990158,1.8604584,-1.6845856,-0.12295532,8.753728,-10.872156,14.322861
1570715172,8.569443,-8.772354,5.7969666,-0.4138794,-5.2819824,0.114593506,6.8694444,-2.2174835,5.6698117
1570715172,2.4163513,-1.8489227,4.3101654,-0.25515747,-2.6166992,-1.1850281,-0.17806953,7.849513,6.266875
1570715172,0.27114868,-19.612701,17.113754,-0.789917,4.1434784,-2.5517578,-0.32137644,-11.005443,15.932647
1570715172,0.27114868,-19.612701,17.113754,-0.789917,4.1434784,-2.5517578,-0.32137644,-11.005443,15.932647
1570715172,-1.430542,-19.612701,-2.7700958,5.290619,5.013794,1.1542969,-4.3569984,-10.914713,-0.87056136
1570715172,-2.5085297,-19.612701,-5.8526306,5.21817,2.8683472,1.2949066,-3.6116934,-10.918598,-6.546462
1570715172,2.7934418,-7.171829,-5.2983704,0.82714844,-6.674286,1.6922455,0.75063944,-2.4124794,-18.394133
1570715172,2.9634247,-5.9819183,-2.8491058,0.49798584,-5.587723,1.5356598,0.6664388,0.27964878,-10.225723
1570715172,-1.0007782,-3.5637665,0.38726807,-0.2604828,1.1777802,-0.816452,-2.8193808,4.146785,-1.7864716
1570715172,-0.84814453,-0.43634033,-9.139862,0.22421265,0.15939331,-0.9911499,-2.5821834,7.129755,-6.904952
1570715172,-2.1643524,-2.7742767,2.2391815,-2.5816956,1.2427673,-0.1602478,-5.285091,5.1161404,0.0041463375
1570715172,-2.1643524,-2.7742767,2.2391815,-2.5816956,1.2427673,-0.1602478,-5.285091,5.1161404,0.0041463375
1570715172,-0.6895294,-3.9911346,0.32321167,-2.3910065,0.81025696,0.046417236,-3.2915452,5.182749,-0.7802036
1570715172,-0.6895294,-3.9911346,0.32321167,-2.3910065,0.81025696,0.046417236,-3.2915452,5.182749,-0.7802036
1570715172,-8.417419,-19.612701,6.5236053,-3.178238,2.6105652,0.38623047,-10.116175,-11.174493,5.5138993
1570715172,7.930191,-19.612701,1.2515717,-2.7915497,0.15299988,1.6634827,4.0600557,-10.86004,-0.4735095
1570715172,9.201523,-19.612701,2.0218964,-2.5263062,-0.15699768,1.477066,6.1057467,-10.84471,1.6780443
1570715172,11.76091,-19.612701,-4.9781494,-1.5899353,1.1170654,0.009140015,12.132125,-10.783125,-3.3877907
1570715172,2.609085,-19.448105,2.5067291,-2.0373383,-0.3434143,0.14335632,4.552721,-10.553356,-2.7900314
1570715172,3.6104584,-5.8209076,3.4823608,-1.4876709,3.4968567,0.8805237,2.483332,0.8329563,5.7861185
1570715172,3.6104584,-5.8209076,3.4823608,-1.4876709,3.4968567,0.8805237,2.483332,0.8329563,5.7861185
1570715172,6.724121,1.506546,-0.292099,0.58213806,1.302414,0.72180176,5.7532597,9.30086,2.810375
1570715172,6.115982,3.9073334,0.5961609,1.8167877,-1.294693,0.29249573,5.831806,12.699357,1.5953315
1570715172,6.115982,3.9073334,0.5961609,1.8167877,-1.294693,0.29249573,5.831806,12.699357,1.5953315
1570715172,4.5723267,3.580536,0.44711304,2.0735168,-1.4289246,-0.4862213,4.5616946,12.579325,1.5839844
1570715172,-2.2990265,-7.60878,-6.7690125,1.4205017,-3.9983368,-0.039871216,-2.8637207,1.8816252,-5.3106422
1570715172,-2.2990265,-7.60878,-6.7690125,1.4205017,-3.9983368,-0.039871216,-2.8637207,1.8816252,-5.3106422
1570715173,9.964066,-19.612701,5.3426666,-0.67700195,-4.7408295,-0.9410858,11.465491,-10.85648,4.192533
1570715173,9.964066,-19.612701,5.3426666,-0.67700195,-4.7408295,-0.9410858,11.465491,-10.85648,4.192533
1570715173,1.0205231,-6.9461823,3.5320435,-0.74624634,-2.4100342,-1.3320312,0.45992196,2.4565306,4.3361154
1570715173,1.0205231,-6.9461823,3.5320435,-0.74624634,-2.4100342,-1.3320312,0.45992196,2.4565306,4.3361154
1570715173,0.7044983,-19.612701,16.767197,1.7432861,4.2116547,-1.9328461,-0.3732369,-10.963098,17.747587
1570715173,0.7044983,-19.612701,16.767197,1.7432861,4.2116547,-1.9328461,-0.3732369,-10.963098,17.747587
1570715173,-5.8286896,-19.612701,-5.531204,6.0959473,3.7344208,1.3375244,-8.024336,-11.056894,-4.5514326
1570715173,-1.2389984,-14.313141,-19.612701,2.9960327,-13.137238,0.8442993,-2.5657399,-7.5586452,-23.556559
1570715173,-2.2337952,-13.248917,-19.612701,2.3621979,-12.288223,1.0680084,-2.5657399,-7.5586452,-23.556559
1570715173,-1.6502075,-5.1529236,-7.7416534,-1.2469177,2.1674042,-0.09207153,-2.3775752,2.608523,-11.148205
1570715173,-1.6502075,-5.1529236,-7.7416534,-1.2469177,2.1674042,-0.09207153,-2.3775752,2.608523,-11.148205
1570715173,-3.383606,-0.7876892,1.4143677,-1.1808624,0.40652466,-0.1879425,-5.653055,7.2595515,-1.3717427
1570715173,-3.383606,-0.7876892,1.4143677,-1.1808624,0.40652466,-0.1879425,-5.653055,7.2595515,-1.3717427
1570715173,-1.2713165,-9.03212,-1.6460114,-3.242157,0.75486755,0.79530334,-3.4929452,0.3357315,-4.7033734
1570715173,-1.2713165,-9.03212,-1.6460114,-3.242157,0.75486755,0.79530334,-3.4929452,0.3357315,-4.7033734
1570715173,7.027588,-19.612701,-6.6355286,-3.4860992,4.3245697,2.576416,3.9763522,-10.83024,-5.393572
1570715173,7.027588,-19.612701,-6.6355286,-3.4860992,4.3245697,2.576416,3.9763522,-10.83024,-5.393572
1570715173,9.30986,-19.612701,-4.7028046,-1.7177582,-1.8837891,0.92526245,8.638364,-10.714805,-3.773231
1570715173,9.30986,-19.612701,-4.7028046,-1.7177582,-1.8837891,0.92526245,8.638364,-10.714805,-3.773231
1570715173,-5.5054626,-12.978973,3.6888733,-2.2194977,3.7514648,0.8911743,-8.984925,-6.5187454,3.2468815
1570715173,-3.9366608,-11.526886,4.8524475,-2.0181732,3.3658295,0.8421631,-8.984925,-6.5187454,3.2468815
1570715173,5.851425,4.4304657,3.1735077,0.3808136,1.4100037,0.24668884,5.712525,12.090111,4.8151436
1570715173,5.6425323,4.5322266,2.64859,0.41383362,1.3716583,0.20939636,5.442499,13.020826,4.9918795
1570715173,3.534439,5.4492035,1.3048401,2.7989655,-1.419342,0.16786194,3.6479623,14.456737,3.0466902
1570715173,3.534439,5.4492035,1.3048401,2.7989655,-1.419342,0.16786194,3.6479623,14.456737,3.0466902
1570715173,-2.5013428,-9.402023,-19.612701,5.0354004E-4,-3.3240356,0.2722473,-2.9034412,0.6294317,-16.940725
1570715173,-2.5013428,-9.402023,-19.612701,5.0354004E-4,-3.3240356,0.2722473,-2.9034412,0.6294317,-16.940725
1570715173,8.689163,-19.612701,11.616074,-1.361969,-4.2305756,-1.2851562,11.042134,-10.848106,12.628102
1570715173,8.689163,-19.612701,11.616074,-1.361969,-4.2305756,-1.2851562,11.042134,-10.848106,12.628102
1570715173,9.11174,-4.7806244,15.481506,1.010376,-1.7985687,-3.0567017,7.6312027,6.992691,13.81151
1570715173,8.014587,-8.484451,14.50647,1.1169128,-1.421463,-3.3102264,7.9867992,4.9749136,15.842201
1570715173,-1.4287415,-19.612701,7.2807617,3.1504974,6.3091583,-1.4811707,-3.1885068,-11.04119,8.836441
1570715173,-1.4287415,-19.612701,7.2807617,3.1504974,6.3091583,-1.4811707,-3.1885068,-11.04119,8.836441
1570715173,-7.0078278,-19.522919,-10.525513,9.359924,-2.6518402,0.46400452,-8.746619,-10.715474,-13.971481
1570715174,-1.438324,-18.089996,-19.612106,7.7865295,-14.189728,0.5417633,-7.8582067,-11.927433,-23.47328
1570715174,-0.71047974,-1.7387848,2.6473846,-0.31054688,1.5804443,1.2288666,-5.250301,4.653336,-0.086319685
1570715174,-2.2978363,-3.747528,-2.9855652,-0.756897,-2.2140198,0.014465332,-5.681569,3.7348223,-6.65886
1570715174,-2.2978363,-3.747528,-2.9855652,-0.756897,-2.2140198,0.014465332,-5.681569,3.7348223,-6.65886
1570715174,-2.573761,-1.742981,2.5671844,-1.4823456,-0.58735657,0.017654419,-5.74776,5.7153783,-0.8141916
1570715174,-5.953781,-6.4924774,-3.5086975,-2.1151123,0.13807678,0.70581055,-8.976916,2.191496,-5.5167665
1570715174,-5.0415955,-14.399933,4.344284,-2.9151154,0.16471863,1.3588257,-7.6301413,-5.680197,0.36834824
1570715174,-0.90740967,-19.612701,3.1381989,-2.9683838,6.559494,3.9143982,-4.8086176,-11.076696,3.8912888
1570715174,-0.90740967,-19.612701,3.1381989,-2.9683838,6.559494,3.9143982,-4.8086176,-11.076696,3.8912888
1570715174,8.28035,-19.612701,10.320801,-2.141739,1.0616608,-1.8209991,9.997141,-10.785123,7.6941013
1570715174,8.28035,-19.612701,10.320801,-2.141739,1.0616608,-1.8209991,9.997141,-10.785123,7.6941013
1570715174,2.779663,-12.265503,1.5191193,-1.1563721,-0.54156494,0.7324524,6.164245,-3.763524,-9.163876
1570715174,-1.6226654,-10.417175,6.375763,-1.7848816,2.8736725,1.0328522,-5.9914384,-5.3296022,7.6151657
1570715174,3.2938232,-6.2357025,4.554962,-1.6410675,2.8683472,0.66000366,1.4440002,1.6305275,6.5583563
1570715174,4.766861,4.410721,1.9321136,0.6396637,0.24673462,0.489563,4.205265,12.523242,2.8326378
1570715174,4.766861,4.410721,1.9321136,0.6396637,0.24673462,0.489563,4.205265,12.523242,2.8326378
1570715174,0.12509155,-0.4052124,-10.492584,1.4812317,-0.94636536,-0.19113159,1.2788657,9.94867,-4.639671
1570715174,0.12509155,-0.4052124,-10.492584,1.4812317,-0.94636536,-0.19113159,1.2788657,9.94867,-4.639671
1570715174,3.3692474,-6.442795,5.1918335,-1.3864594,-1.5727386,-0.6875458,3.0384312,2.4456997,1.0798988
1570715174,15.574875,-19.612701,7.697357,0.5714874,-2.346115,-0.95280457,6.210435,-6.1878223,11.829842
1570715174,13.97197,-19.612106,8.023575,0.12727356,-4.76001,-2.1490936,17.98973,-10.966268,6.3021307
1570715174,6.499054,-10.035889,7.7536163,0.10916138,-2.6699524,-1.2574615,6.8881826,-4.8952055,10.792773
1570715174,-0.35253906,-19.27153,13.281235,-0.09111023,4.245743,-1.4225769,-2.7599313,-7.890072,16.080534
1570715174,0.5530548,-19.27153,13.281235,-0.09111023,4.245743,-1.4225769,-2.7599313,-7.890072,16.080534
1570715174,-1.375473,-19.612701,1.3808594,3.718277,2.9684906,0.44589233,-3.6968153,-11.068555,0.9976597
1570715174,-1.375473,-19.612701,1.3808594,3.718277,2.9684906,0.44589233,-3.6968153,-11.068555,0.9976597
1570715174,-4.791992,-19.612701,-6.0393677,7.527664,-2.3695526,1.1095581,-6.813978,-11.309976,-8.360006
1570715174,-0.068237305,-5.458786,2.810196,-0.10601807,1.3674011,1.3705444,-3.4084353,1.9450846,0.28318596
1570715174,0.20709229,-5.0421906,2.0524292,-0.10601807,1.3674011,1.3705444,-3.4084353,1.9450846,0.28318596
1570715174,-1.916565,-2.70784,-3.3081818,-1.6293488,-0.25712585,0.15293884,-4.539341,4.6913695,-7.4296064
1570715174,-1.916565,-2.70784,-3.3081818,-1.6293488,-0.25712585,0.15293884,-4.539341,4.6913695,-7.4296064
1570715174,1.7208252,-2.2972412,-0.6278839,-2.4527893,0.30851746,0.29675293,-0.8976946,5.690197,-3.242561
1570715175,-1.5418701,-11.218033,2.5857391,-2.9342957,0.68562317,-0.035614014,-2.461608,-1.3165407,0.25310493
1570715175,-2.4169464,-12.153564,3.2351685,-2.9342957,0.68562317,-0.035614014,-2.461608,-1.3165407,0.25310493
1570715175,-10.229828,-19.612701,5.0571594,-3.2815704,6.3720093,1.8168793,-13.049096,-11.055056,6.979843
1570715175,2.3056183,-19.612701,-4.1132355,-3.1569366,4.520584,1.9670868,-0.29269648,-10.902682,-3.1675222
1570715175,5.609619,-19.612701,-5.752075,-0.03677368,0.22117615,-0.3168335,3.8939514,-10.769827,1.6147718
1570715175,5.609619,-19.612701,-5.752075,-0.03677368,0.22117615,-0.3168335,3.8939514,-10.769827,1.6147718
1570715175,2.2248077,-16.010025,1.0821838,-0.9156189,-0.62783813,0.9135437,2.3926678,-7.0166273,-3.7981756
1570715175,4.2227783,-6.5176086,3.779251,-1.2969818,2.2302551,0.95295715,1.7487082,0.85710526,5.6254444
1570715175,4.744705,-5.8412476,4.015671,-1.2085724,2.116272,0.94337463,3.2617278,2.0682392,5.0746675
1570715175,4.9009247,3.541031,0.46148682,0.7334137,-0.6917572,0.712204,4.5988526,11.857963,1.424897
1570715175,5.707184,5.446808,1.3940277,1.3416748,-0.8621979,0.55241394,5.058285,13.943797,2.3421638
1570715175,4.6064453,1.7872772,-2.5067291,0.8633728,-1.8539581,-0.3914032,4.564807,10.9497795,-1.9174821
1570715175,4.6064453,1.7872772,-2.5067291,0.8633728,-1.8539581,-0.3914032,4.564807,10.9497795,-1.9174821
1570715175,11.194092,-19.48462,4.826706,1.2926788,-2.565567,-1.40448,7.9698925,-7.562587,7.6752048
1570715175,11.194092,-19.48462,4.826706,1.2926788,-2.565567,-1.40448,7.9698925,-7.562587,7.6752048
1570715175,3.14299,-12.814362,8.643066,-1.0008392,-2.3961792,-1.3682556,2.8687587,-5.9711046,9.259572
1570715175,2.324768,-12.023682,8.766373,-1.0338593,-2.0712738,-1.4172516,2.8687587,-5.9711046,9.259572
1570715175,-1.1611938,-10.004776,10.6631775,-0.7057648,2.7767334,-1.3363037,-2.8023286,0.7362051,11.993052
1570715175,-2.684494,-19.612701,8.916611,1.1392822,5.3525543,-0.77915955,-4.5082583,-11.09035,12.528701
1570715175,-1.5999298,-19.612701,2.2236176,4.6674347,2.3282623,0.28823853,-4.224493,-11.025174,2.7490802
1570715175,-4.8931427,-19.612701,-4.6028595,5.990494,-2.916031,1.6379242,-7.116023,-11.203487,-8.563285
1570715175,-0.5823822,-15.684418,-19.612701,6.7159424,-6.2364655,1.7082367,-4.23691,-8.32231,-17.93491
1570715175,0.17059326,-7.474701,0.35253906,0.10064697,-2.454773,1.5431061,-1.8460956,-1.087491,-9.86391
1570715175,-0.21247864,-2.6617584,-5.209778,0.019683838,-0.8590088,-0.094192505,-3.2923203,4.3524613,-8.305299
1570715175,-0.21247864,-2.6617584,-5.209778,0.019683838,-0.8590088,-0.094192505,-3.2923203,4.3524613,-8.305299
1570715175,-1.9602509,-2.8161774,-0.017959595,-1.8754272,1.2140045,-0.054779053,-4.337935,5.1073933,-2.8229015
1570715175,-1.9602509,-2.8161774,-0.017959595,-1.8754272,1.2140045,-0.054779053,-4.337935,5.1073933,-2.8229015
1570715175,-2.810791,-11.225815,-1.7585449,-2.9577332,0.5652466,0.04322815,-3.8427997,-1.0538568,-4.4178214
1570715175,-2.810791,-11.225815,-1.7585449,-2.9577332,0.5652466,0.04322815,-3.8427997,-1.0538568,-4.4178214
1570715175,0.81163025,-19.612701,-3.4045563,-3.3412323,4.251068,1.6219482,-0.82717127,-10.852815,-2.4383247
1570715175,0.81163025,-19.612701,-3.4045563,-3.3412323,4.251068,1.6219482,-0.82717127,-10.852815,-2.4383247
1570715175,10.378265,-19.612701,3.7804413,-2.862915,0.78681946,-0.09739685,7.6998267,-10.775413,2.652718
1570715175,6.123169,-19.612701,-6.1453247,-0.31480408,1.0584717,-0.34986877,6.2588363,-10.743248,4.199802
1570715175,2.6455994,-18.804657,2.735382,-1.2756805,0.4406128,0.56733704,4.281172,-9.280563,-0.8470078
1570715176,4.1563416,-5.735306,3.708023,-1.5451965,3.1602325,0.46932983,3.2351658,2.4668045,6.2225447
1570715176,4.299988,-5.2822113,3.2507324,-1.4205475,2.9567719,0.4714508,3.3158197,2.9887543,5.4997177
1570715176,4.6585236,0.2166748,0.9684601,-0.15075684,0.6589966,0.44696045,4.143071,8.962157,2.7129097
1570715176,5.2989655,4.2389374,2.8275452,1.0647125,-1.085907,0.5396271,4.66746,12.758688,4.206093
1570715176,4.5124664,3.0903168,0.22924805,1.1765594,-1.0965576,0.0634613,4.1287985,12.023513,1.7044512
1570715176,2.3858185,0.9457092,-3.1304169,0.85058594,-2.1746063,-0.20285034,2.373986,9.792542,-1.7142675
1570715176,2.3858185,0.9457092,-3.1304169,0.85058594,-2.1746063,-0.20285034,2.373986,9.792542,-1.7142675
1570715176,2.4714203,-7.2436523,4.5729218,0.5704193,-2.3194885,-0.6939392,1.6424227,2.4282055,4.0231266
1570715176,12.9322815,-19.612701,3.6158447,0.35417175,-5.754959,-2.7669525,14.435404,-10.977786,2.7008355
1570715176,4.7895966,-19.453491,9.508575,-0.70788574,-4.592758,-1.3309631,0.9547001,-11.001717,14.142404
1570715176,-2.2355804,-11.10611,8.688553,-0.65675354,0.08268738,-1.5546722,-3.2185917,-2.7092896,9.9753895
1570715176,-1.4646454,-19.612701,6.7660065,2.6530151,4.980774,-0.3594513,-3.3027759,-11.028114,8.193597
1570715176,-1.4646454,-19.612701,6.7660065,2.6530151,4.980774,-0.3594513,-3.3027759,-11.028114,8.193597
1570715176,-1.8399506,-19.612701,-1.6669617,4.6621094,1.9138794,0.5236511,-3.6988187,-10.985926,-1.6534305
1570715176,-3.2746735,-18.901627,-4.7147827,5.1766357,-3.1525269,1.8989105,-5.356713,-11.13898,-7.576858
1570715176,0.23881531,-7.3543854,1.9267273,-0.087905884,-2.6230774,1.553772,-1.5808225,0.089717865,-3.280302
1570715176,0.1663971,-7.166443,2.510315,-0.22746277,-1.5791321,1.4429779,-1.5808225,0.089717865,-3.280302
1570715176,0.38546753,-3.3022003,-4.7782288,-0.97953796,2.496582,-0.23374939,-1.4789534,4.113806,-6.6083493
1570715176,-4.5950775,-4.2515106,-5.498886,-1.1691589,0.0113220215,-0.35838318,-6.9022994,2.9601545,-10.469866
1570715176,-1.9865875,-2.1356354,1.3251953,-1.5654297,0.1710968,0.23283386,-4.09329,5.5908327,-2.1191678
1570715176,1.296463,-2.573761,-4.0096893,-1.8935394,1.2768555,0.24243164,-0.37323642,6.2706985,-5.17626
1570715176,-2.0099335,-10.308838,0.912796,-3.3923645,1.4366455,-0.11444092,-1.9630615,0.33657837,-2.9576218
1570715176,-4.68425,-14.477142,3.395584,-4.0475006,2.1397095,-0.21138,-4.603095,-3.0279903,0.8952384
1570715176,3.8013916,-19.612701,-3.8259277,-3.1729126,5.431381,1.5388489,0.34007096,-10.875854,-0.8074277
1570715176,6.2554474,-19.612701,-4.0485992,-3.0599976,3.3328094,0.7505493,3.913641,-10.844413,-3.9453897
1570715176,11.278488,-14.906296,-4.9278717,-1.7880707,-2.5612946,1.1809235,12.101929,-7.091099,-4.810532
1570715176,9.913788,-14.668671,-3.4045563,-1.7209625,-2.7189636,0.9902344,12.101929,-7.091099,-4.810532
1570715176,-0.6775665,-9.954498,3.3255463,-0.90922546,2.0459747,0.96681213,-2.9172878,-2.9074879,5.061448
1570715176,-0.07362366,-9.3667145,3.1459808,-0.9198761,2.0800629,0.90289307,-1.5782951,-1.4682417,5.338825
1570715176,5.1062317,2.0368652,0.2346344,0.7398071,0.41184998,0.2392273,4.811165,10.457372,2.8179035
1570715176,5.1062317,2.0368652,0.2346344,0.7398071,0.41184998,0.2392273,4.811165,10.457372,2.8179035
1570715176,1.8674774,3.680481,-0.35075378,2.190689,-0.6225128,-0.52563477,1.8267716,12.631061,1.4206433
1570715176,0.5321045,2.545044,-2.1254578,2.266327,-0.6587372,-0.6651764,0.93482655,12.131879,0.20708811
1570715177,-0.0574646,-8.170212,1.2922668,-0.9933777,-2.5804749,-0.52775574,-2.9723494,1.2201433,-12.021642
1570715177,-0.0574646,-8.170212,1.2922668,-0.9933777,-2.5804749,-0.52775574,-1.6654224,0.9380579,-4.317573
1570715177,6.8450165,-11.313797,5.213974,-0.98698425,0.1199646,-0.3882141,3.029378,-6.2558002,6.6837254
1570715177,6.8450165,-11.313797,5.213974,-0.98698425,0.1199646,-0.3882141,3.029378,-6.2558002,6.6837254
1570715177,4.0892944,-12.55101,9.9479065,0.78666687,-1.2552795,-1.773056,3.2438884,0.07503033,6.3881617
1570715177,4.0892944,-12.55101,9.9479065,0.78666687,-1.2552795,-1.773056,2.5790935,-2.2690268,8.824333
1570715177,1.5795746,-19.612701,7.8410034,2.905487,1.7072144,0.010192871,-0.7176428,-11.009973,9.080625
1570715177,-0.0143585205,-17.86554,5.166687,3.5702057,2.8662262,0.6610718,-2.230718,-9.942347,2.5760136
1570715177,-0.1257019,-17.755402,4.933853,3.9036407,2.848114,0.67811584,-2.230718,-9.942347,2.5760136
1570715177,-2.9777832,-17.785324,-19.5289,7.774811,-4.5032806,0.7782593,-6.2395935,-10.962788,-20.4173
1570715177,-0.0035858154,-6.964737,1.4658508,-0.052749634,1.0062714,1.5899811,-4.344935,0.18916225,-0.70028853
1570715177,-0.0035858154,-6.964737,1.4658508,-0.052749634,1.0062714,1.5899811,-4.344935,0.18916225,-0.70028853
1570715177,-2.1134796,-6.5319824,-11.717224,-0.4192047,-0.03236389,-0.35838318,-4.1046124,1.2226486,-15.364239
1570715177,-0.62368774,-4.178482,-4.6106415,-0.8708801,-2.245987,-0.13574219,-3.4170513,3.0155993,-11.127744
1570715177,-1.2790985,0.4052124,3.0029297,-1.1840668,0.15512085,-0.0036468506,-3.8139212,7.8582573,1.0461025
1570715177,-1.2790985,0.4052124,3.0029297,-1.1840668,0.15512085,-0.0036468506,-3.8139212,7.8582573,1.0461025
1570715177,-10.825989,-19.612701,5.6593018,-4.233917,2.73732,0.49276733,-9.5686035,-8.944089,0.32489336
1570715177,-11.887817,-19.58696,7.0491333,-4.2403107,3.1101685,0.74842834,-9.5686035,-8.944089,0.32489336
1570715177,9.949707,-19.612701,1.9375153,-3.3145905,1.7146759,0.8762512,6.261735,-10.757181,-0.65338
1570715177,9.949707,-19.612701,1.9375153,-3.3145905,1.7146759,0.8762512,6.261735,-10.757181,-0.65338
1570715177,4.0725403,-12.074554,-10.320206,0.5342102,0.23822021,0.87519836,3.8883083,-3.1801672,-8.785953
1570715177,2.0171204,-12.348099,-11.902771,-0.32333374,0.17536926,0.5609436,2.2888198,-3.2022352,-10.163368
1570715177,2.5671844,-6.5319824,5.716156,-1.5771484,2.7043,0.24668884,-0.736334,0.81818104,6.027558
1570715177,3.6176453,-5.944809,6.083069,-1.6133728,2.7788696,0.22111511,-0.736334,0.81818104,6.027558
1570715177,4.752487,4.538803,1.8118134,0.66096497,-0.6118622,0.97532654,4.146858,13.259449,2.5283277
1570715177,4.752487,4.538803,1.8118134,0.66096497,-0.6118622,0.97532654,4.146858,13.259449,2.5283277
1570715177,5.7903748,5.2588654,2.795227,1.6165161,-1.0923004,1.0893097,5.5529156,14.200549,4.0352373
1570715177,1.2228394,-4.9111023,-19.551056,0.6417999,-3.1770172,-0.105911255,1.0657947,5.435339,-19.573992
1570715177,1.9177551,-5.8556213,-19.612701,0.19758606,-3.4710388,-0.1602478,1.0657947,5.435339,-19.573992
1570715177,3.2004547,-9.6635895,9.23085,-0.6514282,-4.144287,-1.8114014,2.819234,0.49514675,9.418726
1570715177,6.81868,-13.386581,7.004242,-1.2756805,-1.8049622,-1.3448181,5.518756,-7.248888,7.821294
1570715177,6.81868,-13.386581,7.004242,-1.2756805,-1.8049622,-1.3448181,5.518756,-7.248888,7.821294
1570715177,-0.0287323,-9.612122,7.1933746,-1.0722198,0.24887085,-1.6452179,-1.0530077,-1.6151762,7.834293
1570715178,-3.4997253,-19.612701,8.924393,2.22052,6.1855927,-0.8430786,-5.6387014,-11.04736,13.552986
1570715178,-3.178894,-19.612701,4.355057,3.2293243,5.491028,-0.37542725,-5.6096735,-11.019661,6.8088503
1570715178,-5.5138397,-19.612701,-4.107254,4.3808746,-0.48509216,1.3417816,-7.4250827,-11.026167,-5.8834124
1570715178,-5.5138397,-19.612701,-4.107254,4.3808746,-0.48509216,1.3417816,-7.4250827,-11.026167,-5.8834124
1570715178,9.972443,-7.123947,-19.612701,1.3235626,-1.7261353,0.5151367,10.371715,0.37217045,-23.554781
1570715178,9.044693,-7.045532,-19.383453,0.70783997,-1.3383789,0.2541504,10.371715,0.37217045,-23.554781
1570715178,-2.6677399,-8.221085,-1.2006989,-0.83891296,-0.701355,-1.2361603,-3.2916462,-0.6760826,-5.4792905
1570715178,-4.1683044,-3.751114,-6.3709717,0.06549072,-1.929596,-0.62576294,-6.3482375,3.9536982,-8.50813
1570715178,-7.047333,-3.2166138,-7.1652527,-0.567276,-2.2204132,-0.39033508,-8.947394,4.839089,-11.515941
1570715178,-1.7854767,-1.0115509,1.7346039,-2.6764984,2.2185364,0.112457275,-4.194521,7.3721476,-0.21478009
1570715178,-1.6615753,-1.2150574,1.538269,-2.713791,2.3144226,0.0826416,-4.194521,7.3721476,-0.21478009
1570715178,-1.4395142,-8.422806,0.42077637,-3.3497467,2.6180115,0.4863739,-2.8209167,1.2263899,-1.38278
1570715178,-1.4395142,-8.422806,0.42077637,-3.3497467,2.6180115,0.4863739,-2.8209167,1.2263899,-1.38278
1570715178,2.5354614,-19.612701,4.38797,-2.2749023,-2.950119,-0.6619873,5.624385,-10.873594,1.2573798
1570715178,2.5354614,-19.612701,4.38797,-2.2749023,-2.950119,-0.6619873,5.624385,-10.873594,1.2573798
1570715178,2.3708649,-19.612701,3.6481628,-1.6431885,-0.5703125,1.842453,2.115054,-10.816575,7.4554405
1570715178,-4.8614197,-14.7859955,5.2600555,-2.6179047,5.1032715,0.46507263,-4.83233,-5.5931826,7.867975
1570715178,2.9311066,-7.305908,5.3743896,-0.743042,2.675537,0.57691956,0.7584778,0.41143608,7.0753493
1570715178,5.882553,-3.1531677,3.2465363,-0.052749634,2.6052399,0.59503174,4.536134,4.867155,6.039114
1570715178,6.408676,4.8356934,-0.08140564,1.3587189,0.047531128,0.2722473,5.94421,13.775774,2.240878
1570715178,5.4689484,4.253296,0.1149292,1.488678,-0.45207214,0.22857666,5.268734,13.367613,1.743341
1570715178,3.6697083,-0.2340393,-2.5665894,1.3746948,-2.6326752,-0.17196655,3.072243,9.298363,-1.7919923
1570715178,3.6697083,-0.2340393,-2.5665894,1.3746948,-2.6326752,-0.17196655,3.072243,9.298363,-1.7919923
1570715178,-1.766922,-6.420059,-8.7939,0.75364685,-2.1330566,-0.056915283,-1.0809243,3.69423,-4.0226884
1570715178,4.94223,-19.612701,13.890564,-1.0956421,-4.0856934,-0.9496002,4.46985,-10.913166,14.441634
1570715178,5.344452,-18.79747,13.5685425,-1.1371918,-3.696869,-0.7301636,4.46985,-10.913166,14.441634
1570715178,2.6539764,-14.463974,11.708847,0.5278168,1.3152008,-2.552826,1.101864,-2.4789982,12.062622
1570715178,2.6539764,-14.463974,11.708847,0.5278168,1.3152008,-2.552826,1.101864,-2.4789982,12.062622
1570715178,-3.2932281,-19.612701,12.849075,2.094818,5.426056,-0.45957947,-6.3672075,-11.099301,15.241954
1570715178,-8.0421295,-19.612701,-10.626068,9.149002,-4.4319,0.81340027,-9.272604,-11.3716755,-12.297432
1570715178,-8.0421295,-19.612701,-10.626068,9.149002,-4.4319,0.81340027,-9.272604,-11.3716755,-12.297432
1570715178,0.3256073,-4.8327026,2.9412842,-0.4618225,-0.4084015,2.1705475,-4.012224,1.6236701,-4.3902345
1570715178,0.3256073,-4.8327026,2.9412842,-0.4618225,-0.4084015,2.1705475,-4.012224,1.6236701,-4.3902345
1570715178,-0.8164215,-2.0739746,-5.0344086,-0.65356445,-0.9847107,-0.55758667,-1.7790816,5.677678,-10.608344
1570715179,-1.6202698,-2.1565704,-3.5350342,-0.76008606,-0.9708557,-0.5458679,-1.7790816,5.677678,-10.608344
1570715179,-5.103836,-2.7144318,1.459259,-1.4365387,1.495224,-0.27316284,-6.979161,5.7851186,-0.34991074
1570715179,-3.414734,-3.8121643,-9.051285,-2.3835602,0.29574585,0.5396271,-6.812115,4.576273,-11.385612
1570715179,-6.624756,-19.612701,9.828201,-3.9676056,4.4012756,1.5409851,-6.0954237,-7.7408085,7.539279
1570715179,-6.624756,-19.612701,9.828201,-3.9676056,4.4012756,1.5409851,-6.0954237,-7.7408085,7.539279
1570715179,3.877411,-19.612701,-5.9184723,-3.6501465,4.7698517,1.9393921,2.1690614,-10.839284,-3.424605
1570715179,10.976822,-19.612701,4.2078094,-3.9793243,-0.7130585,-0.25505066,8.286683,-10.792665,-1.2534478
1570715179,4.9188843,-19.612701,9.582199,-1.0743408,-1.8731384,-0.5352173,5.2983737,-10.792118,10.484081
1570715179,-8.006805,-19.381668,1.2186432,-0.90283203,3.9581146,0.6014252,-7.7105503,-10.17481,5.937693
1570715179,-8.006805,-19.381668,1.2186432,-0.90283203,3.9581146,0.6014252,-7.7105503,-10.17481,5.937693
1570715179,6.0256042,-4.8296967,3.8822021,-0.8516998,1.286438,0.18276978,4.6720533,2.9482632,5.6106176
1570715179,6.3895264,1.4855957,2.5348663,-0.09643555,0.1434021,0.32444763,5.6920266,8.414065,4.1307006
1570715179,4.6932373,4.438843,2.9412842,0.92941284,-1.8156128,0.07836914,4.192704,12.945675,3.388198
1570715179,2.37146,1.0600281,0.25737,1.4354248,-1.2382355,-0.3040619,1.7801187,10.488497,1.9370944
1570715179,2.37146,1.0600281,0.25737,1.4354248,-1.2382355,-0.3040619,1.7801187,10.488497,1.9370944
1570715179,-2.1128845,-4.993103,-7.954132,1.0838776,-1.1295776,-0.64920044,-0.40825117,6.1418343,-3.1680615
1570715179,-2.269699,-13.007095,-0.50398254,-0.95184326,-3.9003296,-0.09313965,-6.6656837,-7.363476,-15.4334345
1570715179,9.161407,-19.612701,8.125916,-1.7955322,-3.1834106,-0.62257385,9.224851,-10.973725,10.711942
1570715179,7.0856323,-5.7658386,7.8254547,-0.63438416,-1.0028229,-0.2944641,8.388238,-1.2438745,11.758388
1570715179,8.515579,-13.901337,9.320633,0.39997864,0.37031555,-2.5901184,6.712635,2.3332987,7.4987283
1570715179,8.515579,-13.901337,9.320633,0.39997864,0.37031555,-2.5901184,6.712635,2.3332987,7.4987283
1570715179,-1.3557129,-19.612701,6.779175,4.2881927,3.802597,-0.4894104,-3.3522708,-11.048811,7.33601
1570715179,-1.3557129,-19.612701,6.779175,4.2881927,3.802597,-0.4894104,-3.3522708,-11.048811,7.33601
1570715179,-5.012268,-13.115433,-19.612701,3.1526184,-13.484528,1.3087616,-8.743439,-6.862309,-22.781174
1570715179,-4.7782288,-13.115433,-19.612701,3.1526184,-13.484528,1.3087616,-8.743439,-6.862309,-22.781174
1570715179,0.96546936,-4.1838684,-2.458252,-0.47673035,4.299011,-0.02708435,-1.2652509,3.8048983,-4.346814
1570715179,0.96546936,-4.1838684,-2.458252,-0.47673035,4.299011,-0.02708435,-1.2652509,3.8048983,-4.346814
1570715179,-1.8213959,-0.44532776,0.683548,-1.1680908,0.40333557,0.058135986,-4.087072,7.8279247,-2.4834306
1570715179,-1.7423859,-0.6386566,0.61231995,-1.1829987,0.5301056,0.08583069,-4.087072,7.8279247,-2.4834306
1570715179,-0.72125244,-1.3706818,-1.2665253,-1.5910034,1.2661896,0.4363098,-3.290672,6.730999,-3.119026
1570715179,1.3413544,-2.0464478,-3.1573486,-1.7720947,0.82092285,0.47891235,-1.3007102,6.401271,-4.60038
1570715179,-0.28370667,-7.269394,0.09576416,-2.368637,-0.30400085,0.30207825,-0.92843175,2.4910727,-3.7018106
1570715179,-11.580154,-19.612701,10.975021,-3.912201,4.900879,1.3513641,-12.0039625,-11.149798,9.459248
1570715180,6.511627,-19.612701,7.111374,-1.7081757,-1.6781921,-0.51498413,5.385948,-10.858247,8.77426
1570715180,6.511627,-19.612701,7.111374,-1.7081757,-1.6781921,-0.51498413,5.385948,-10.858247,8.77426
1570715180,1.7794952,-19.158997,-1.2336121,-0.18165588,0.6121216,0.4309845,2.4315686,-9.983794,-0.6595607
1570715180,-0.7116699,-15.650894,0.32681274,-0.8272095,1.954361,1.7497711,-3.2534308,-9.441449,1.8185084
1570715180,3.9522247,-8.090607,4.452011,-0.756897,0.66539,0.77186584,3.1539514,0.1334362,5.2342134
1570715180,4.5849,3.2477417,0.27592468,0.62368774,0.47470093,0.27757263,4.35921,11.481374,1.7676449
1570715180,4.5849,3.2477417,0.27592468,0.62368774,0.47470093,0.27757263,4.35921,11.481374,1.7676449
1570715180,3.6098633,4.720764,-0.93792725,1.2053223,-1.6558228,-0.6992645,3.7234695,13.678124,0.052946627
1570715180,3.6098633,4.502899,-1.0498505,1.1723022,-1.7698059,-0.74827576,3.7234695,13.678124,-0.34645742
1570715180,0.952301,-2.0781708,-3.4662018,0.8377991,-4.113388,-0.47662354,-0.31274104,7.4033623,-2.376043
1570715180,-1.7603302,-18.993805,-0.4333496,0.79733276,-2.8915253,0.05706787,-1.5377285,-2.8130207,-1.5846423
1570715180,7.389099,-16.729477,6.26622,-1.441864,-4.872925,-0.46704102,5.334135,-10.116594,6.9364805
1570715180,7.389099,-16.729477,6.26622,-1.441864,-4.872925,-0.46704102,5.334135,-10.116594,6.9364805
1570715180,2.5743713,-17.101181,19.058441,-1.7358704,3.296585,-2.3994293,0.8075541,-3.2046204,14.639002
1570715180,1.9518738,-19.58757,19.612701,-1.5835419,3.8952637,-2.4814606,0.8075541,-3.2046204,14.639002
1570715180,-0.5381012,-19.612701,6.3021393,3.6096191,6.670288,-0.29766846,-3.155763,-11.173562,8.168694
1570715180,-0.5381012,-19.612701,6.3021393,3.6096191,6.670288,-0.29766846,-3.155763,-11.173562,8.168694
1570715180,-1.1827393,-13.126205,-19.60672,3.1632843,-13.759354,1.1937103,-1.2582567,-6.7585397,-23.210024
1570715180,-1.1827393,-13.126205,-19.60672,3.1632843,-13.759354,1.1937103,-2.3922796,-5.865494,-23.108364
1570715180,1.1504211,-4.1287994,-3.4099426,-0.8474426,4.0358887,-0.051589966,-1.3175263,3.3746529,-5.699776
1570715180,1.1504211,-4.1287994,-3.4099426,-0.8474426,4.0358887,-0.051589966,-1.3175263,3.3746529,-5.699776
1570715180,-3.2710724,-0.9870148,2.146408,-1.0700836,-0.30825806,-0.24546814,-5.972131,6.2161083,-1.6601753
1570715180,-3.3512878,-0.50697327,2.984375,-1.1105652,0.18495178,-0.1921997,-6.084094,6.84151,-0.5092988
1570715180,-1.6657715,-2.1727448,-6.534973,-2.2461395,0.25738525,0.4128723,-5.3448453,6.177708,-9.024043
1570715180,0.1083374,-7.991852,0.3214264,-3.066391,0.32876587,1.0573578,-1.6449227,1.8099833,-2.7587698
1570715180,-7.9194183,-19.572006,9.129684,-4.1050262,3.4020538,1.3961029,-8.641569,-11.348403,6.820695
