time,ax,ay,az,gx,gy,gz,la_x,la_y,la_z,fox,foy,foz
1570715143,3.1550446,4.0895996,4.2474976,-0.07714844,-2.2445679,1.3631134,1.0197654,-3.7020345,-2.48805
1570715143,2.4654999,4.1243134,2.4614258,-0.5671692,-2.9455109,1.4195709,-0.7957456,-3.1353488,-4.14549
1570715143,0.137146,3.5425262,2.6385956,-1.2734375,-2.8741455,1.8339539,-3.976087,-3.2173805,-3.9805055
1570715143,2.177002,3.2360687,2.284256,-1.8625336,-2.7601624,2.6733856,-3.569497,-2.9829078,-4.0191154
1570715143,2.2847443,2.536972,4.6652985,-2.6795807,-2.6067657,3.064331,-3.3846064,-2.5134225,-2.6886306
1570715143,1.730484,0.9352417,6.913452,-2.6114044,-3.2395325,4.1221466,-6.0051646,-2.8605623,0.5047784
1570715143,7.2730713,-0.70358276,5.8432465,-2.3397675,-2.531128,4.6260223,-2.0314398,-3.2716074,0.5774336
1570715143,8.7730255,-0.6365509,8.564255,-2.3738556,-1.1974182,4.261688,0.5015478,-2.0313573,1.9286242
1570715143,8.981323,-0.89512634,8.133301,-1.6217804,-2.1923828,4.2648926,-0.50320625,-0.24174237,3.704215
1570715143,11.503616,-2.0419464,7.849579,-1.4449463,-0.42723083,3.9240112,2.2887478,-0.25671172,2.825193
1570715143,10.261032,-1.9521637,10.541855,-0.6566467,-1.1984863,3.6470337,1.6474962,1.0140188,6.288989
1570715143,12.280533,-2.9601288,5.9222565,0.23071289,-1.7460327,3.570343,3.1116524,1.1684868,2.4975395
1570715143,13.2825165,-3.4856567,4.9777374,0.31167603,-0.87783813,2.8757935,4.8997936,1.2622719,1.3388793
1570715143,11.158859,-3.9201965,4.5072784,0.54389954,-0.9140625,2.2888336,3.156106,1.4456525,1.2516115
1570715143,12.478058,-4.7102814,3.2120056,0.49383545,-0.6445465,2.0214386,3.9145937,1.0447383,-0.08586025
1570715143,12.488831,-5.0335083,3.6309967,0.44483948,-0.7084656,1.4557953,4.849985,1.0887275,0.40431857
1570715143,10.55072,-5.300461,3.3544617,0.5779877,-0.7787628,0.9870758,2.935546,1.0195432,0.16720915
1570715143,8.559952,-5.507553,3.723175,0.61634827,-0.6669159,0.90930176,1.0659571,0.9025073,0.41684604
1570715143,9.615784,-5.645218,-2.5927277,-0.5384064,-1.9505615,1.0062408,2.2842278,1.1734695,-6.603798
1570715143,10.276596,-7.3355255,2.5955048,-0.15490723,-1.8355103,1.1383362,2.6547756,-0.42704773,0.41672635
1570715143,7.660919,-7.681488,1.2344055,0.20941162,-1.814209,1.1223602,0.27769136,-0.43346262,-0.4045366
1570715143,8.260666,-7.4887543,3.4370728,0.45228577,-1.8972931,1.0808105,0.7442627,-0.23236799,0.9878297
1570715144,7.1234283,-6.455658,0.38087463,0.64723206,-2.0027618,0.9125061,0.6501689,0.9669738,0.56323504
1570715144,7.3448944,-6.9991455,0.46826172,0.6866455,-2.0943756,0.6792145,1.19803,0.6263466,1.2539843
1570715144,7.6968384,-7.9436493,2.7164154,0.4863739,-1.0429535,0.2850647,0.90552473,-0.2679491,1.161404
1570715144,3.943924,-6.886612,0.80703735,0.3479004,-0.77770996,0.2584381,-2.6451497,0.8514261,-0.29331785
1570715144,3.9116058,-6.0294952,-3.9155273,0.83792114,-1.3582764,1.0648346,-13.046785,1.1179843,5.5740204
1570715144,3.9175873,-5.926544,0.8321686,0.7516327,-0.75639343,0.9402008,-2.6984978,1.9525166,0.4663918
1570715144,3.153839,-4.223068,1.635437,0.7558899,-0.30792236,1.1745605,-3.9041653,4.0145655,0.84680516
1570715144,0.37057495,-6.3586884,-1.9977722,0.70796204,0.44947815,1.2288818,-2.80939,4.7382975,-1.6831107
1570715144,0.03060913,-5.063431,2.4291077,0.6397705,1.5989075,1.3343506,-4.489669,3.6314116,-0.075901866
1570715144,7.766266,-5.226242,3.6968384,1.5484467,0.21299744,1.2214355,2.2974186,6.8810005,7.096227
1570715144,5.0165253,-4.7545776,4.142166,0.6483002,0.51979065,0.8603058,0.9870815,3.9270058,0.7019701
1570715144,5.733597,-8.481155,4.1002655,-0.04838562,0.7115326,0.6898651,-0.36249018,2.176754,1.9510529
1570715144,8.024841,-10.795151,1.3098145,-0.37008667,1.9973145,-0.16447449,3.4802585,-4.950694,-2.6246033
1570715144,6.3285522,-8.918091,2.3776398,-0.026016235,1.6766663,-0.98579407,2.199121,1.2777472,0.21285677
1570715144,5.5743713,-9.012665,4.526428,0.0048828125,2.3807983,-1.2510529,1.790451,-0.4508152,0.723032
1570715144,4.8632965,-13.008591,5.8085175,-0.15065002,0.8979492,0.038986206,0.07030678,-1.4920254,2.849532
1570715144,1.840622,-11.864166,2.703247,-0.33067322,-0.10658264,1.3812256,-2.537191,-3.824294,-0.38230777
1570715144,3.1658173,-6.432907,0.8417511,0.053878784,0.94270325,2.1183777,-0.6006961,2.069623,-2.1948378
1570715144,-0.5009155,-5.8164062,1.9670258,-0.598053,2.631134,3.0707245,-2.755635,3.5548315,-2.1234925
1570715144,1.4515686,-10.650299,4.6688843,-1.1317596,-1.179306,3.5341187,-0.63974404,-5.5011663,15.359833
1570715144,-0.7558899,-7.0386505,2.0568085,-0.6087189,-0.67012024,3.998581,-1.4950511,2.9572668,-0.97181535
1570715144,2.2847443,-11.718109,2.7798615,-0.18367004,-0.6147156,2.4837646,2.47428,-1.9101658,0.1062479
1570715144,1.8837128,-5.890625,1.6940918,0.14123535,-0.6157837,0.053894043,3.710349,2.1804676,0.3402853
1570715144,-0.7690582,-4.6348724,1.6318359,-0.49046326,-0.2919464,0.31915283,0.094624996,5.5912,-1.3805339
1570715144,-1.234726,-3.7573853,2.8169708,-0.08140564,0.15866089,0.27867126,-0.7563423,5.8329296,0.68433595
1570715144,-0.49012756,2.3729553,4.35524,1.0275269,1.9057007,-1.5802155,1.2772982,13.479566,-0.89789605
1570715144,-5.503601,-11.965912,2.5643768,1.1298065,2.8271484,-0.6108246,-3.418842,5.383115,-4.752793
1570715144,-3.6265411,-21.554688,5.936615,1.1798706,-1.7225952,2.3207855,-2.656694,-9.7466755,2.5392125
1570715144,5.288269,-15.029297,3.501709,-1.1253662,-3.4280853,2.8981628,5.09359,-11.204987,0.54857874
1570715144,-2.2462769,-10.432419,3.2000427,0.6014252,-1.956955,-0.48405457,1.9878882,0.5557947,2.3523204
1570715144,-1.9685516,-9.511856,0.6789398,0.76335144,-0.29940796,0.4096985,-1.8347719,-0.4999361,-4.52118
1570715144,-0.13699341,-8.348267,5.4051056,-0.16023254,-0.28874207,0.42674255,0.37997735,1.2769127,1.1117594
1570715144,-0.111846924,-8.790009,0.74957275,-0.1953888,0.6135254,0.31062317,1.6355366,0.7798834,-2.4469388
1570715145,-1.5675201,-7.361862,-1.6937103,-0.2742157,0.91926575,0.23072815,-0.3398205,1.9338398,-1.6562076
1570715145,-0.18727112,-8.506287,1.288269,-0.12721252,0.0809021,0.25523376,0.5583596,0.83662033,-2.1502905
1570715145,-0.063964844,-9.035416,-0.085998535,-0.89953613,1.3091431,0.27015686,1.6852272,0.006872177,-2.7836292
1570715145,-0.3548584,-9.273636,3.8787994,-0.75679016,3.0700226,0.42248535,1.4636145,0.31340027,-1.3773432
1570715145,-0.15734863,-9.347855,2.7212067,0.44909668,-0.68821716,0.39372253,1.8062906,0.25077248,1.2167068
1570715145,0.028213501,-9.049774,-0.8162384,-0.061172485,0.0074005127,0.31062317,2.3076599,0.22995663,-4.373869
1570715145,-2.1732635,-10.589249,0.2635498,-0.36157227,-0.20672607,0.12313843,0.22502589,-0.9175215,-2.654302
1570715145,-1.7973633,-10.216949,-2.0947418,-0.8281555,-0.1694336,0.13806152,0.7354789,-0.7343588,-4.6862097
1570715145,-1.2514954,-10.193008,-2.3975983,-1.4268341,0.014846802,0.020874023,0.95567703,-0.50562763,-4.7642365
1570715145,-1.0611572,-9.418488,-3.222412,-2.1959534,-0.009643555,-0.2401123,1.1726658,0.12953281,-5.061145
1570715145,-1.4346466,-8.880981,-0.71447754,-3.0907745,0.060653687,-0.49790955,0.9276862,0.9329157,-2.988132
1570715145,-3.1082,-10.942398,1.2355957,-2.8990326,0.23323059,-0.7834015,-1.001025,-0.23932838,0.2052716
1570715145,-2.4569702,-12.527359,2.5895233,-2.3312378,1.0438995,-0.90164185,-1.3588626,-2.62298,2.835112
1570715145,1.9615326,-13.570023,1.892807,-1.7208557,0.9373779,-1.2893982,3.2016954,-3.690631,3.966298
1570715145,0.8194885,-12.39328,-2.653778,-2.223648,-0.37609863,-1.5663605,2.3295503,-2.8852777,0.097099185
1570715145,-1.3831787,-12.1466675,-0.59716797,-2.2598724,-1.384903,-1.636673,-0.34548306,-2.5168266,1.4277456
1570715145,-2.917862,-12.310684,-1.5117493,-1.648407,-1.4360352,-1.480072,-2.7227278,-2.5589285,1.5451436
1570715145,-2.2750092,-10.37616,-0.1482544,-1.1242981,-1.3263092,-1.1849976,-2.750109,-1.6854506,2.508247
1570715145,-0.49731445,-7.5522003,1.0644073,-0.549057,-1.4275208,-0.7706146,-0.99678636,1.4364996,4.5370083
1570715145,-1.863205,-3.63768,0.78549194,0.31806946,-1.2165985,-0.49790955,-1.3454735,4.6502094,4.498714
1570715145,-3.851593,0.17388916,0.89801025,1.3055725,-0.5614624,-0.35728455,-3.772073,8.877483,4.380224
1570715145,-3.5690765,1.8917236,-0.42237854,2.42836,0.2577362,0.12313843,-3.8329296,11.461668,2.3431
1570715145,-1.0503845,1.6391449,-2.2252197,2.587082,0.8414917,0.5971832,-1.526719,11.494218,0.16922927
1570715145,0.6890106,-2.2274933,-7.182419,1.7007751,0.62312317,0.40544128,-0.11192765,8.974608,-3.7065868
1570715145,17.17308,-22.071838,-32.601654,-3.9642944,4.3376923,-1.3597107,17.515604,-8.821077,-37.532917
1570715145,-8.025879,-3.9525146,17.228867,-1.7187195,0.9863739,-0.09310913,-8.528524,4.9036283,30.949465
1570715145,-14.310669,-12.108368,3.793808,1.0190125,-4.364456,0.28399658,-17.377003,-5.738987,8.444964
1570715145,-0.9294739,-10.202576,3.4047394,1.4536438,3.3810883,1.4547272,-1.1216015,-0.10189533,4.6421194
1570715145,-0.2351532,-18.329697,7.509598,1.4685516,1.3975677,1.5047913,-2.0958457,-3.733798,5.777647
1570715145,7.0683594,-24.516312,3.9434357,2.558319,-0.43681335,1.2576447,5.077218,-17.289375,8.523791
1570715145,2.6402893,-15.396805,-2.1629639,2.9279633,-0.35159302,0.5417938,4.556595,-5.4764013,-1.33147
1570715145,-2.4354248,-16.888397,-6.914261,2.42836,0.07662964,0.6696167,-1.0324624,-7.2518806,-6.8326597
1570715145,-3.2877655,-12.01619,-8.521973,1.4280701,-0.5284271,0.5322113,-2.2141466,-2.2741632,-9.97181
1570715145,-1.1844482,-5.8223877,-6.95018,0.86987305,0.14268494,0.9593811,-0.61160564,3.0411596,-9.226123
1570715146,3.6183167,-2.7183075,-5.2287445,0.9082184,0.22683716,1.0776215,4.870643,6.0875225,-5.617249
1570715146,8.932251,-3.4940338,-3.0979004,-0.25291443,0.4569397,0.48320007,10.956052,6.0728054,-4.938867
1570715146,5.343338,-1.5822601,-3.2786713,-0.80792236,-0.082092285,-0.14424133,7.8543735,7.698594,-4.1799655
1570715146,-1.8811646,-0.29896545,-6.6114044,-2.0787811,-0.24720764,-0.4126892,0.120964766,9.24303,-7.969222
1570715146,-1.9913025,-2.1496887,-1.4470978,-3.0055542,-1.1995544,-0.30615234,-0.46439874,7.662635,-1.9533157
1570715146,-0.24473572,-15.335754,-0.41041565,-3.3304596,-1.0301666,-1.0443878,1.0900807,-3.595951,0.40286446
1570715146,-11.137146,-26.867416,3.0540009,-2.9480286,-0.60194397,-1.5471954,-5.718932,-21.376137,6.1455016
1570715146,-6.0793915,-17.860443,1.9836426E-4,-1.9062042,4.124649,-1.1690216,-6.1757927,-8.283632,1.565593
1570715146,2.7121124,-22.268158,1.4582672,-1.6803741,1.1024933,-1.2659607,-0.98644793,-11.139492,3.0427573
1570715146,5.6330414,-15.986969,-0.25479126,-1.7378998,-0.97798157,-0.99858093,5.9794197,-7.695428,1.3374667
1570715146,-1.1365662,-11.157867,1.7814789,-1.2318878,-2.1732025,-0.80470276,-0.097860456,-1.9097042,5.1668196
1570715146,-6.54747,-5.5566406,3.6238098,-0.51390076,-2.7324677,-0.6204071,-6.3002505,2.9885435,7.2918854
1570715146,-5.7825165,-0.21876526,3.6154327,0.25735474,-2.0677338,-0.13464355,-5.954372,8.858686,7.4734955
1570715146,-3.7989197,2.418457,2.2938385,1.713562,-0.2823639,0.11994934,-3.8873332,11.489737,6.1862607
1570715146,-1.5687256,1.9192657,1.8042145,2.827835,0.9373779,0.53326416,-1.6080723,11.526714,4.529661
1570715146,0.46395874,-0.56352234,1.8952026,2.5657806,0.47077942,0.562027,0.3404856,9.090388,3.8676376
1570715146,4.4407196,-6.460449,-8.559082,1.9724274,0.43989563,-0.28059387,4.272523,3.6781054,-4.7658033
1570715146,8.072723,-5.6787415,-11.034683,-0.75146484,3.9957428,-1.09552,9.476083,3.2231512,-12.708929
1570715146,-7.547043,-5.04068,4.3815765,-0.7013855,1.2175293,-1.1935272,-6.1732254,5.5094156,9.222229
1570715146,-14.738022,-23.85791,4.5623474,-0.91018677,0.34295654,-0.066467285,-14.806376,-12.586697,5.8066273
1570715146,1.9184265,-9.241318,9.183151,0.8219452,0.0010070801,0.8592377,3.0049303,-2.7154875,10.402272
1570715146,-3.7594147,-11.5768585,6.3125,0.86135864,0.2566681,1.5175781,-3.7238312,-0.009311676,7.677486
1570715146,0.013839722,-25.83313,5.3739777,2.4411469,-0.6999359,1.35672,-0.927933,-17.033623,5.9012613
1570715146,4.8932343,-16.113861,-2.300644,2.90773,-0.6264343,1.024353,5.156859,-6.273184,-0.039463483
1570715146,-0.9115143,-16.18808,-8.632111,2.3133087,1.0779877,0.46403503,0.9829015,-7.608184,-9.547592
1570715146,-2.752655,-10.049347,-7.8132935,0.91781616,0.02230835,1.0350037,-2.492395,-0.84364796,-9.718067
1570715146,3.8517456,-5.254959,-2.839325,0.39796448,0.5410919,1.5282288,4.4225807,3.9488077,-5.29755
1570715146,9.9114685,-3.2270813,-6.8975067,0.1337738,-0.42936707,0.8837433,11.172031,6.408969,-6.9628663
1570715146,6.6625366,-3.527542,-5.6321716,-0.8238983,-0.053329468,-0.41908264,9.799056,5.362199,-7.041685
1570715146,2.9096375,-0.8388672,-4.1573334,-2.2342987,-6.1035156E-5,-0.6811371,4.851295,8.333518,-4.9605327
1570715146,-2.9980621,-0.24868774,-4.108261,-2.9320526,0.06492615,-0.839859,-1.2042714,9.493944,-4.7422976
1570715146,-2.345642,-3.7274628,0.6849365,-3.4082336,-1.3891602,-0.5000305,-1.4044216,6.8244076,1.4515208
1570715146,-1.1545258,-16.336533,-2.1067047,-3.478531,-0.5976715,-1.2755432,-0.15654457,-4.6525173,0.69295764
1570715147,-11.454376,-34.284668,3.2395477,-2.6092834,1.0311127,-1.4747467,-11.93325,-29.043116,7.0046835
1570715147,-1.8009644,-16.446655,-3.558792,-0.80792236,3.4631195,-2.0265656,-2.095231,-7.0853186,-0.1454978
1570715147,7.9697723,-19.079086,-1.3417664,-0.7621155,0.52723694,-1.5024567,6.5535197,-10.685689,0.5944128
1570715147,3.5812073,-12.475876,2.6374054,-0.8963318,-3.0637665,-0.65023804,3.3499792,-4.1728735,5.825693
1570715147,-5.646042,-5.815201,3.9506226,-0.2507782,-3.8989258,-0.40948486,-4.9568176,2.6361713,7.551951
1570715147,-10.847458,0.10206604,3.565155,0.7090149,-2.7590942,-0.23052979,-11.095661,8.318014,7.556027
1570715147,-8.223404,5.184952,1.7323914,1.983078,-0.26531982,0.5673523,-8.744888,14.128505,4.844868
1570715147,-4.7877197,3.8681335,2.6146545,3.0941467,2.0218048,1.4099884,-5.5059586,13.951298,5.0273685
1570715147,5.3481293,-4.300873,0.28630066,3.1665802,1.7416382,0.6664276,4.757789,5.7688913,3.4071112
1570715147,12.741425,-10.89212,-14.159119,1.251236,2.1080933,-0.59484863,12.423801,-0.8902235,-12.08101
1570715147,3.9355469,-2.4309998,-5.3592224,-0.502182,3.5866852,-0.9783325,5.710287,5.2328835,-5.6717505
1570715147,-9.130814,-4.0614624,1.2906647,-1.2329559,0.99702454,-1.1189575,-6.325372,7.1403513,10.767083
1570715147,-13.8545685,-23.940506,4.3959503,-0.88461304,-0.459198,0.65470886,-13.598782,-12.4473,4.0083857
1570715147,3.7882996,-10.858597,9.863098,0.805954,0.8979492,0.7548523,4.467883,-5.953368,12.164272
1570715147,-3.535553,-13.4826355,3.398758,1.2246094,-0.09913635,1.2406006,-3.1798463,-1.6195259,5.4169226
1570715147,-3.4613342,-23.376678,7.4521484,2.094925,-0.8117981,1.246994,-4.459106,-15.957977,7.283941
1570715147,3.6147308,-16.393982,0.9183655,3.2848358,-1.4243164,1.0978546,3.8472655,-6.573579,2.726549
1570715147,-2.893921,-17.80777,-10.974823,2.9375458,2.312622,0.63552856,0.34637678,-7.930498,-10.320348
1570715147,-2.8053284,-12.113159,-9.200729,1.0562897,0.5123291,1.2757568,-3.2509985,-4.407525,-11.554623
1570715147,6.423126,-6.7860565,-1.9367218,0.89331055,0.035095215,1.6528625,6.7148795,1.5395365,-4.24041
1570715147,12.470871,-2.5028229,-5.4190826,0.34257507,0.4580078,0.9433899,13.663389,6.868617,-7.2225523
1570715147,7.620224,-2.9290009,-5.526825,-0.53733826,-0.28022766,-0.15914917,10.192305,6.1155005,-6.754645
1570715147,5.4833984,-1.2769928,-4.0675507,-1.6068726,-0.621109,-0.6129608,7.955811,7.1934223,-5.3758445
1570715147,-1.0791016,-0.32888794,-6.9753113,-2.4058075,0.28329468,-1.09552,2.1360962,8.823859,-7.6656194
1570715147,-5.436554,-1.1129913,-3.6461792,-3.1845245,-0.7244415,-0.87394714,-3.583939,8.375397,-4.454057
1570715147,-2.5359802,-10.937607,1.1314545,-3.4124908,-1.09729,-0.55648804,-2.6740994,1.688199,1.0529556
1570715147,-6.2912903,-38.421844,11.902969,-4.2071686,-0.59980774,-1.9658356,0.38948047,-29.220655,10.330225
1570715147,-3.3200836,-13.249207,-4.9318695,-0.7503967,2.8697662,-1.8721008,-4.3933654,-6.552924,0.46916652
1570715147,8.737122,-21.889877,-5.648926,-1.4513397,0.7626648,-1.6963348,3.6989453,-9.876208,-2.5934868
1570715147,3.0808105,-15.85051,2.8480988,-1.6143188,-2.771881,-1.509903,4.6792855,-8.972916,4.6602755
1570715147,-4.2047424,-8.872604,5.648117,-0.9762268,-4.3601837,-0.8483734,-3.2467957,-0.90238,9.022248
1570715147,-11.54895,-2.0156097,4.2271576,0.184906,-3.5292816,-0.7088318,-11.608324,5.865202,8.329985
1570715147,-10.4991,6.1677704,0.73161316,1.204361,-1.9921112,0.09011841,-11.11335,13.45546,5.289938
1570715148,-7.7146454,8.008911,1.6126862,2.5774994,1.5999603,1.3812256,-7.8592224,17.3233,4.4585547
1570715148,2.2739716,0.42886353,3.7566986,3.1825714,1.930191,1.340744,-0.06582457,11.487486,6.404422
1570715148,9.620575,-7.389389,-14.195038,2.0437927,3.6921387,-0.16767883,8.989072,3.448309,-6.456655
1570715148,5.765915,-9.837463,-10.819214,-0.4180298,1.9642792,-0.7972412,6.812033,-1.7932034,-9.583041
1570715148,3.528534,0.99150085,10.010345,-0.5256195,3.8775024,-0.59910583,4.420249,9.11186,7.00386
1570715148,-18.194061,-14.107529,-10.123688,0.60995483,-4.00972,-0.9506378,-14.608293,-0.024391174,2.599844
1570715148,-6.80365,-26.455627,6.48967,-0.4787445,3.3512573,1.6880188,-14.428687,-18.567463,2.0956497
1570715148,-5.99321,-5.3782654,8.700714,1.0392456,-0.35479736,1.0584412,-3.8672614,4.7825556,11.663946
1570715148,-8.057007,-22.933746,8.2673645,1.284256,-0.21737671,1.977768,-6.264802,-8.783894,9.062914
1570715148,1.5628967,-19.099442,7.2438507,3.4936218,-1.622467,1.1873474,0.9838922,-12.781606,8.112299
1570715148,7.5460052,-20.883118,-12.62204,3.7610016,0.16505432,0.6429901,8.497344,-10.5914755,-10.238935
1570715148,-5.2294617,-13.723251,-10.954483,1.8967896,2.3552399,0.54818726,-2.0369349,-6.5281944,-13.718133
1570715148,-1.2634583,-7.3163757,-6.867569,0.61421204,0.10966492,1.2097168,0.14250576,1.7656927,-9.276594
1570715148,7.0061035,-4.037506,-4.527237,0.23817444,0.5027466,1.3620453,7.615828,4.4991817,-6.217462
1570715148,10.004852,-2.7578125,-3.443863,-0.78448486,0.37490845,0.30210876,12.119549,6.7482653,-7.1670365
1570715148,7.0492096,-0.12898254,-4.573929,-1.5109863,-0.39527893,-0.47766113,9.982794,8.268542,-4.6528745
1570715148,-1.2658539,0.8191223,-4.618225,-2.1341705,0.3046112,-0.9037781,2.3092346,9.909418,-6.376418
1570715148,-2.7119598,-1.5140228,-1.8541107,-2.7392426,-1.222992,-0.537323,-1.5285449,8.795698,-2.3443651
1570715148,0.15031433,-14.114716,-0.9275665,-3.432724,-1.2964935,-1.1221466,1.690394,-3.5078096,0.33532053
1570715148,-11.698593,-38.208755,3.225174,-3.3432465,-1.3891602,-2.083023,-7.4515266,-29.285994,6.9918337
1570715148,-8.04982,-18.42427,-3.8424988,-1.1669159,4.4708557,-1.587677,-8.27386,-9.228025,-1.1596301
1570715148,5.947876,-22.80806,-5.8141327,-0.9698334,0.12564087,-1.5919342,-2.149681,-10.637805,4.978183
1570715148,3.5488892,-13.846558,1.9131622,-1.3607941,-0.9960785,-1.031601,3.6565773,-5.207365,3.8955083
1570715148,-1.3831787,-9.036606,4.2379303,-1.2926178,-4.0651093,-0.6608887,-0.10381523,-2.1395693,8.201407
1570715148,-9.245728,-1.831253,4.9813232,-0.23161316,-3.4632416,-0.3977661,-8.574121,6.147702,8.672744
1570715148,-8.532257,5.0580597,3.2874298,0.9348602,-1.9793243,0.14657593,-9.455466,12.185457,7.0032177
1570715148,-6.579788,6.965042,4.1804657,2.5561829,0.59861755,0.9806824,-6.46102,15.706077,7.0368953
1570715148,0.8458252,1.245285,3.5543823,3.2624512,1.531784,1.3844147,0.46625066,11.447104,5.166202
1570715148,6.8792114,-4.6516266,-2.6717377,2.8778992,1.7778625,0.47361755,6.070863,5.444976,1.020437
1570715148,7.537628,-11.640305,-20.119476,-0.30511475,3.6282349,-1.1296082,8.532943,-2.5652237,-19.994642
1570715148,4.919571,-14.21167,-9.502396,-1.5173798,4.827713,-1.8369446,6.126211,-3.6268473,-14.8405
1570715148,-15.99379,-20.976486,7.3264465,-2.0574646,-0.09486389,-0.43824768,-16.834572,-10.483387,12.50576
1570715148,-1.6800537,-2.6919708,14.382156,-0.3019104,-1.302887,0.74739075,-2.0086775,4.979888,14.7716055
1570715148,-6.2529755,-12.751205,9.768539,1.9628296,1.1440277,2.0043945,-6.34095,-1.199666,12.358919
1570715149,-3.6983643,-29.62555,4.157715,3.305069,-2.7569733,2.0182495,-4.609773,-21.955181,8.574556
1570715149,1.3270569,-15.802628,-3.4103546,2.5423431,-1.638443,1.1766968,2.424748,-6.062896,-3.815261
1570715149,1.5473328,-20.599411,-6.9358063,3.113327,-0.29940796,0.55670166,3.6194692,-12.60687,-5.6210456
1570715149,-5.1612244,-10.519821,-12.544235,1.4057007,1.352829,0.89653015,-3.9189315,-1.7121878,-15.187617
1570715149,4.599945,-7.6755066,-4.2171936,0.2733307,-0.021362305,1.5814972,5.4368176,0.8752041,-6.3737264
1570715149,9.017242,-2.870346,-7.598999,0.20727539,0.22151184,0.7537842,11.316502,5.7017508,-7.5130043
1570715149,5.973007,-1.7223206,-2.6082916,-1.1306915,0.32910156,-0.03451538,9.162539,6.5865297,-6.9476957
1570715149,3.5297241,0.69343567,-5.926651,-1.7272339,-0.6434784,-0.30722046,6.3440804,9.619177,-5.7799454
1570715149,-1.4705658,-0.2319336,-2.6442108,-2.2982178,-0.5358887,-0.6150818,0.96235895,9.035567,-3.5942128
1570715149,0.54774475,-5.02034,1.3732605,-2.858551,-1.4775848,-0.5170746,1.965178,5.2901707,1.3933853
1570715149,1.8825226,-22.987625,2.5248718,-3.2995758,-1.7215271,-1.6686249,3.571144,-10.659467,1.6730101
1570715149,-10.351852,-19.92424,-0.41281128,-2.1512146,0.26412964,-1.4342804,-9.451166,-14.049757,2.4500809
1570715149,-6.0674286,-19.72313,-4.285431,-0.8143158,4.6732483,-1.9892731,-5.1349134,-9.67361,-1.6752734
1570715149,4.4479065,-19.457367,-4.860031,-1.1104584,-0.2685089,-1.4076385,0.5511643,-10.830589,-2.6608853
1570715149,4.1629944,-14.50856,2.4219208,-1.2308197,-1.542572,-0.7418518,4.5962777,-5.9915047,4.170245
1570715149,4.1629944,-14.50856,2.4219208,-1.2308197,-1.542572,-0.7418518,4.5962777,-5.9915047,4.170245
1570715149,4.1629944,-14.50856,2.4219208,-1.2308197,-1.542572,-0.7418518,4.5962777,-5.9915047,4.170245
1570715149,4.1629944,-14.50856,2.4219208,-1.2308197,-1.542572,-0.7418518,4.5962777,-5.9915047,4.170245
1570715149,4.1629944,-14.50856,2.4219208,-1.2308197,-1.542572,-0.7418518,4.5962777,-5.9915047,4.170245
1570715149,4.1629944,-14.50856,2.4219208,-1.2308197,-1.542572,-0.7418518,4.5962777,-5.9915047,4.170245
1570715149,4.1629944,-14.50856,2.4219208,-1.2308197,-1.542572,-0.7418518,4.5962777,-5.9915047,4.170245
1570715149,4.1629944,-14.50856,2.4219208,-1.2308197,-1.542572,-0.7418518,4.5962777,-5.9915047,4.170245
1570715149,4.1629944,-14.50856,2.4219208,-1.2308197,-1.542572,-0.7418518,4.5962777,-5.9915047,4.170245
1570715149,4.1629944,-14.50856,2.4219208,-1.2308197,-1.542572,-0.7418518,4.5962777,-5.9915047,4.170245
1570715149,4.1629944,-14.50856,2.4219208,-1.2308197,-1.542572,-0.7418518,4.5962777,-5.9915047,4.170245
1570715149,4.1629944,-14.50856,2.4219208,-1.2308197,-1.542572,-0.7418518,4.5962777,-5.9915047,4.170245
1570715149,-0.98454285,-8.563751,11.98317,-1.2308197,-1.542572,-0.7418518,-11.675201,-10.445329,13.6645975
1570715149,3.0616608,-24.103317,1.0775757,3.0430145,-2.449112,1.0435333,-0.66108245,0.99067783,15.601326
1570715155,3.0616608,-24.103317,1.0775757,3.0430145,-2.449112,1.0435333,-0.66108245,0.99067783,15.601326
1570715155,3.0616608,-24.103317,1.0775757,3.0430145,-2.449112,1.0435333,-0.66108245,0.99067783,15.601326
1570715155,3.0616608,-24.103317,1.0775757,3.0430145,-2.449112,1.0435333,-0.66108245,0.99067783,15.601326
1570715155,3.0616608,-24.103317,1.0775757,3.0430145,-2.449112,1.0435333,-0.66108245,0.99067783,15.601326
1570715155,3.0616608,-24.103317,1.0775757,3.0430145,-2.449112,1.0435333,-0.66108245,0.99067783,15.601326
1570715155,3.0616608,-24.103317,1.0775757,3.0430145,-2.449112,1.0435333,-0.66108245,0.99067783,15.601326
1570715155,3.0616608,-24.103317,1.0775757,3.0430145,-2.449112,1.0435333,-0.66108245,0.99067783,15.601326
1570715155,3.0616608,-24.103317,1.0775757,3.0430145,-2.449112,1.0435333,-0.66108245,0.99067783,15.601326
1570715155,3.0616608,-24.103317,1.0775757,3.0430145,-2.449112,1.0435333,-0.66108245,0.99067783,15.601326
1570715155,3.0616608,-24.103317,1.0775757,3.0430145,-2.449112,1.0435333,-0.66108245,0.99067783,15.601326
1570715155,3.0616608,-24.103317,1.0775757,3.0430145,-2.449112,1.0435333,-0.66108245,0.99067783,15.601326
1570715155,3.0616608,-24.103317,1.0775757,3.0430145,-2.449112,1.0435333,-0.66108245,0.99067783,15.601326
1570715155,3.0616608,-24.103317,1.0775757,3.0430145,-2.449112,1.0435333,-0.66108245,0.99067783,15.601326
1570715155,3.0616608,-24.103317,1.0775757,3.0430145,-2.449112,1.0435333,-0.66108245,0.99067783,15.601326
1570715155,3.0616608,-24.103317,1.0775757,3.0430145,-2.449112,1.0435333,-0.66108245,0.99067783,15.601326
1570715155,3.0616608,-24.103317,1.0775757,3.0430145,-2.449112,1.0435333,-0.66108245,0.99067783,15.601326
1570715155,3.0616608,-24.103317,1.0775757,3.0430145,-2.449112,1.0435333,-0.66108245,0.99067783,15.601326
1570715155,3.0616608,-24.103317,1.0775757,3.0430145,-2.449112,1.0435333,-0.66108245,0.99067783,15.601326
1570715155,3.0616608,-24.103317,1.0775757,3.0430145,-2.449112,1.0435333,-0.66108245,0.99067783,15.601326
1570715155,3.0616608,-24.103317,1.0775757,3.0430145,-2.449112,1.0435333,-0.66108245,0.99067783,15.601326
1570715155,3.0616608,-24.103317,1.0775757,3.0430145,-2.449112,1.0435333,-0.66108245,0.99067783,15.601326
1570715155,3.0616608,-24.103317,1.0775757,3.0430145,-2.449112,1.0435333,-0.66108245,0.99067783,15.601326
1570715155,3.0616608,-24.103317,1.0775757,3.0430145,-2.449112,1.0435333,-0.66108245,0.99067783,15.601326
1570715155,3.0616608,-24.103317,1.0775757,3.0430145,-2.449112,1.0435333,-0.66108245,0.99067783,15.601326
1570715155,3.0616608,-24.103317,1.0775757,3.0430145,-2.449112,1.0435333,-0.66108245,0.99067783,15.601326
1570715155,3.0616608,-24.103317,1.0775757,3.0430145,-2.449112,1.0435333,-0.66108245,0.99067783,15.601326
1570715155,3.0616608,-24.103317,1.0775757,3.0430145,-2.449112,1.0435333,-0.66108245,0.99067783,15.601326
1570715155,3.0616608,-24.103317,1.0775757,3.0430145,-2.449112,1.0435333,-0.66108245,0.99067783,15.601326
1570715155,3.0616608,-24.103317,1.0775757,3.0430145,-2.449112,1.0435333,-0.66108245,0.99067783,15.601326
1570715155,3.0616608,-24.103317,1.0775757,3.0430145,-2.449112,1.0435333,-0.66108245,0.99067783,15.601326
1570715155,3.0616608,-24.103317,1.0775757,3.0430145,-2.449112,1.0435333,-0.66108245,0.99067783,15.601326
1570715155,3.0616608,-24.103317,1.0775757,3.0430145,-2.449112,1.0435333,-0.66108245,0.99067783,15.601326
1570715155,3.0616608,-24.103317,1.0775757,3.0430145,-2.449112,1.0435333,-0.66108245,0.99067783,15.601326
1570715155,3.0616608,-24.103317,1.0775757,3.0430145,-2.449112,1.0435333,-0.66108245,0.99067783,15.601326
1570715155,3.0616608,-24.103317,1.0775757,3.0430145,-2.449112,1.0435333,-0.66108245,0.99067783,15.601326
1570715155,3.0616608,-24.103317,1.0775757,3.0430145,-2.449112,1.0435333,-0.66108245,0.99067783,15.601326
1570715155,3.0616608,-24.103317,1.0775757,3.0430145,-2.449112,1.0435333,-0.66108245,0.99067783,15.601326
1570715155,3.0616608,-24.103317,1.0775757,3.0430145,-2.449112,1.0435333,-0.66108245,0.99067783,15.601326
1570715155,3.0616608,-24.103317,1.0775757,3.0430145,-2.449112,1.0435333,-0.66108245,0.99067783,15.601326
1570715155,3.0616608,-24.103317,1.0775757,3.0430145,-2.449112,1.0435333,-0.66108245,0.99067783,15.601326
1570715155,3.0616608,-24.103317,1.0775757,3.0430145,-2.449112,1.0435333,-0.66108245,0.99067783,15.601326
1570715155,3.0616608,-24.103317,1.0775757,3.0430145,-2.449112,1.0435333,-0.66108245,0.99067783,15.601326
1570715155,3.0616608,-24.103317,1.0775757,3.0430145,-2.449112,1.0435333,-0.66108245,0.99067783,15.601326
1570715155,3.0616608,-24.103317,1.0775757,3.0430145,-2.449112,1.0435333,-0.66108245,0.99067783,15.601326
1570715155,3.0616608,-24.103317,1.0775757,3.0430145,-2.449112,1.0435333,-0.66108245,0.99067783,15.601326
1570715155,3.0616608,-24.103317,1.0775757,3.0430145,-2.449112,1.0435333,-0.66108245,0.99067783,15.601326
1570715155,3.0616608,-24.103317,1.0775757,3.0430145,-2.449112,1.0435333,-0.66108245,0.99067783,15.601326
1570715155,3.0616608,-24.103317,1.0775757,3.0430145,-2.449112,1.0435333,-0.66108245,0.99067783,15.601326
1570715155,3.0616608,-24.103317,1.0775757,3.0430145,-2.449112,1.0435333,-0.66108245,0.99067783,15.601326
1570715155,3.0616608,-24.103317,1.0775757,3.0430145,-2.449112,1.0435333,-0.66108245,0.99067783,15.601326
1570715155,3.0616608,-24.103317,1.0775757,3.0430145,-2.449112,1.0435333,-0.66108245,0.99067783,15.601326
1570715155,3.0616608,-24.103317,1.0775757,3.0430145,-2.449112,1.0435333,-0.66108245,0.99067783,15.601326
1570715155,3.0616608,-24.103317,1.0775757,3.0430145,-2.449112,1.0435333,-0.66108245,0.99067783,15.601326
1570715155,3.0616608,-24.103317,1.0775757,3.0430145,-2.449112,1.0435333,-0.66108245,0.99067783,15.601326
1570715155,3.0616608,-24.103317,1.0775757,3.0430145,-2.449112,1.0435333,-0.66108245,0.99067783,15.601326
1570715155,3.0616608,-24.103317,1.0775757,3.0430145,-2.449112,1.0435333,-0.66108245,0.99067783,15.601326
1570715155,3.0616608,-24.103317,1.0775757,3.0430145,-2.449112,1.0435333,-0.66108245,0.99067783,15.601326
1570715155,3.0616608,-24.103317,1.0775757,3.0430145,-2.449112,1.0435333,-0.66108245,0.99067783,15.601326
1570715155,3.0616608,-24.103317,1.0775757,3.0430145,-2.449112,1.0435333,-0.66108245,0.99067783,15.601326
1570715155,3.0616608,-24.103317,1.0775757,3.0430145,-2.449112,1.0435333,-0.66108245,0.99067783,15.601326
1570715155,3.0616608,-24.103317,1.0775757,3.0430145,-2.449112,1.0435333,-0.66108245,0.99067783,15.601326
1570715155,3.0616608,-24.103317,1.0775757,3.0430145,-2.449112,1.0435333,-0.66108245,0.99067783,15.601326
1570715155,3.0616608,-24.103317,1.0775757,3.0430145,-2.449112,1.0435333,-0.66108245,0.99067783,15.601326
1570715155,3.0616608,-24.103317,1.0775757,3.0430145,-2.449112,1.0435333,-0.66108245,0.99067783,15.601326
1570715155,3.0616608,-24.103317,1.0775757,3.0430145,-2.449112,1.0435333,-0.66108245,0.99067783,15.601326
1570715155,3.0616608,-24.103317,1.0775757,3.0430145,-2.449112,1.0435333,-0.66108245,0.99067783,15.601326
1570715155,3.0616608,-24.103317,1.0775757,3.0430145,-2.449112,1.0435333,-0.66108245,0.99067783,15.601326
1570715155,3.0616608,-24.103317,1.0775757,3.0430145,-2.449112,1.0435333,-0.66108245,0.99067783,15.601326
1570715155,3.0616608,-24.103317,1.0775757,3.0430145,-2.449112,1.0435333,-0.66108245,0.99067783,15.601326
1570715155,3.0616608,-24.103317,1.0775757,3.0430145,-2.449112,1.0435333,-0.66108245,0.99067783,15.601326
1570715155,3.0616608,-24.103317,1.0775757,3.0430145,-2.449112,1.0435333,-0.66108245,0.99067783,15.601326
1570715155,3.0616608,-24.103317,1.0775757,3.0430145,-2.449112,1.0435333,-0.66108245,0.99067783,15.601326
1570715155,3.0616608,-24.103317,1.0775757,3.0430145,-2.449112,1.0435333,-0.66108245,0.99067783,15.601326
1570715155,3.0616608,-24.103317,1.0775757,3.0430145,-2.449112,1.0435333,-0.66108245,0.99067783,15.601326
1570715155,3.0616608,-24.103317,1.0775757,3.0430145,-2.449112,1.0435333,-0.66108245,0.99067783,15.601326
1570715155,3.0616608,-24.103317,1.0775757,3.0430145,-2.449112,1.0435333,-0.66108245,0.99067783,15.601326
1570715155,3.0616608,-24.103317,1.0775757,3.0430145,-2.449112,1.0435333,-0.66108245,0.99067783,15.601326
1570715155,3.0616608,-24.103317,1.0775757,3.0430145,-2.449112,1.0435333,-0.66108245,0.99067783,15.601326
1570715155,3.0616608,-24.103317,1.0775757,3.0430145,-2.449112,1.0435333,-0.66108245,0.99067783,15.601326
1570715155,3.0616608,-24.103317,1.0775757,3.0430145,-2.449112,1.0435333,-0.66108245,0.99067783,15.601326
1570715155,3.0616608,-24.103317,1.0775757,3.0430145,-2.449112,1.0435333,-0.66108245,0.99067783,15.601326
1570715155,3.0616608,-24.103317,1.0775757,3.0430145,-2.449112,1.0435333,-0.66108245,0.99067783,15.601326
1570715155,3.0616608,-24.103317,1.0775757,3.0430145,-2.449112,1.0435333,-0.66108245,0.99067783,15.601326
1570715155,3.0616608,-24.103317,1.0775757,3.0430145,-2.449112,1.0435333,-0.66108245,0.99067783,15.601326
1570715155,3.0616608,-24.103317,1.0775757,3.0430145,-2.449112,1.0435333,-0.66108245,0.99067783,15.601326
1570715155,3.0616608,-24.103317,1.0775757,3.0430145,-2.449112,1.0435333,-0.66108245,0.99067783,15.601326
1570715155,3.0616608,-24.103317,1.0775757,3.0430145,-2.449112,1.0435333,-0.66108245,0.99067783,15.601326
1570715155,3.0616608,-24.103317,1.0775757,3.0430145,-2.449112,1.0435333,-0.66108245,0.99067783,15.601326
1570715155,3.0616608,-24.103317,1.0775757,3.0430145,-2.449112,1.0435333,-0.66108245,0.99067783,15.601326
1570715155,3.0616608,-24.103317,1.0775757,3.0430145,-2.449112,1.0435333,-0.66108245,0.99067783,15.601326
1570715155,3.0616608,-24.103317,1.0775757,3.0430145,-2.449112,1.0435333,-0.66108245,0.99067783,15.601326
1570715155,3.0616608,-24.103317,1.0775757,3.0430145,-2.449112,1.0435333,-0.66108245,0.99067783,15.601326
1570715155,3.0616608,-24.103317,1.0775757,3.0430145,-2.449112,1.0435333,-0.66108245,0.99067783,15.601326
1570715155,3.0616608,-24.103317,1.0775757,3.0430145,-2.449112,1.0435333,-0.66108245,0.99067783,15.601326
1570715155,3.0616608,-24.103317,1.0775757,3.0430145,-2.449112,1.0435333,-0.66108245,0.99067783,15.601326
1570715155,3.0616608,-24.103317,1.0775757,3.0430145,-2.449112,1.0435333,-0.66108245,0.99067783,15.601326
1570715155,3.0616608,-24.103317,1.0775757,3.0430145,-2.449112,1.0435333,-0.66108245,0.99067783,15.601326
1570715155,3.0616608,-24.103317,1.0775757,3.0430145,-2.449112,1.0435333,-0.66108245,0.99067783,15.601326
1570715155,3.0616608,-24.103317,1.0775757,3.0430145,-2.449112,1.0435333,-0.66108245,0.99067783,15.601326
1570715155,3.0616608,-24.103317,1.0775757,3.0430145,-2.449112,1.0435333,-0.66108245,0.99067783,15.601326
1570715155,3.0616608,-24.103317,1.0775757,3.0430145,-2.449112,1.0435333,-0.66108245,0.99067783,15.601326
1570715155,3.0616608,-24.103317,1.0775757,3.0430145,-2.449112,1.0435333,-0.66108245,0.99067783,15.601326
1570715155,3.0616608,-24.103317,1.0775757,3.0430145,-2.449112,1.0435333,-0.66108245,0.99067783,15.601326
1570715155,3.0616608,-24.103317,1.0775757,3.0430145,-2.449112,1.0435333,-0.66108245,0.99067783,15.601326
1570715155,3.0616608,-24.103317,1.0775757,3.0430145,-2.449112,1.0435333,-0.66108245,0.99067783,15.601326
1570715155,3.0616608,-24.103317,1.0775757,3.0430145,-2.449112,1.0435333,-0.66108245,0.99067783,15.601326
1570715155,3.0616608,-24.103317,1.0775757,3.0430145,-2.449112,1.0435333,-0.66108245,0.99067783,15.601326
1570715155,3.0616608,-24.103317,1.0775757,3.0430145,-2.449112,1.0435333,-0.66108245,0.99067783,15.601326
1570715155,3.0616608,-24.103317,1.0775757,3.0430145,-2.449112,1.0435333,-0.66108245,0.99067783,15.601326
1570715155,3.0616608,-24.103317,1.0775757,3.0430145,-2.449112,1.0435333,-0.66108245,0.99067783,15.601326
1570715155,3.0616608,-24.103317,1.0775757,3.0430145,-2.449112,1.0435333,-0.66108245,0.99067783,15.601326
1570715155,3.0616608,-24.103317,1.0775757,3.0430145,-2.449112,1.0435333,-0.66108245,0.99067783,15.601326
1570715155,3.0616608,-24.103317,1.0775757,3.0430145,-2.449112,1.0435333,-0.66108245,0.99067783,15.601326
1570715155,3.0616608,-24.103317,1.0775757,3.0430145,-2.449112,1.0435333,-0.66108245,0.99067783,15.601326
1570715155,3.0616608,-24.103317,1.0775757,3.0430145,-2.449112,1.0435333,-0.66108245,0.99067783,15.601326
1570715155,3.0616608,-24.103317,1.0775757,3.0430145,-2.449112,1.0435333,-0.66108245,0.99067783,15.601326
1570715155,3.0616608,-24.103317,1.0775757,3.0430145,-2.449112,1.0435333,-0.66108245,0.99067783,15.601326
1570715155,3.0616608,-24.103317,1.0775757,3.0430145,-2.449112,1.0435333,-0.66108245,0.99067783,15.601326
1570715155,3.0616608,-24.103317,1.0775757,3.0430145,-2.449112,1.0435333,-0.66108245,0.99067783,15.601326
1570715155,3.0616608,-24.103317,1.0775757,3.0430145,-2.449112,1.0435333,-0.66108245,0.99067783,15.601326
1570715155,3.0616608,-24.103317,1.0775757,3.0430145,-2.449112,1.0435333,-0.66108245,0.99067783,15.601326
1570715155,3.0616608,-24.103317,1.0775757,3.0430145,-2.449112,1.0435333,-0.66108245,0.99067783,15.601326
1570715155,3.0616608,-24.103317,1.0775757,3.0430145,-2.449112,1.0435333,-0.66108245,0.99067783,15.601326
1570715155,3.0616608,-24.103317,1.0775757,3.0430145,-2.449112,1.0435333,-0.66108245,0.99067783,15.601326
1570715155,3.0616608,-24.103317,1.0775757,3.0430145,-2.449112,1.0435333,-0.66108245,0.99067783,15.601326
1570715155,3.0616608,-24.103317,1.0775757,3.0430145,-2.449112,1.0435333,-0.66108245,0.99067783,15.601326
1570715155,3.0616608,-24.103317,1.0775757,3.0430145,-2.449112,1.0435333,-0.66108245,0.99067783,15.601326
1570715155,3.0616608,-24.103317,1.0775757,3.0430145,-2.449112,1.0435333,-0.66108245,0.99067783,15.601326
1570715155,3.0616608,-24.103317,1.0775757,3.0430145,-2.449112,1.0435333,-0.66108245,0.99067783,15.601326
1570715155,3.0616608,-24.103317,1.0775757,3.0430145,-2.449112,1.0435333,-0.66108245,0.99067783,15.601326
1570715155,3.0616608,-24.103317,1.0775757,3.0430145,-2.449112,1.0435333,-0.66108245,0.99067783,15.601326
1570715155,3.0616608,-24.103317,1.0775757,3.0430145,-2.449112,1.0435333,-0.66108245,0.99067783,15.601326
1570715155,3.0616608,-24.103317,1.0775757,3.0430145,-2.449112,1.0435333,-0.66108245,0.99067783,15.601326
1570715155,3.0616608,-24.103317,1.0775757,3.0430145,-2.449112,1.0435333,-0.66108245,0.99067783,15.601326
1570715155,3.0616608,-24.103317,1.0775757,3.0430145,-2.449112,1.0435333,-0.66108245,0.99067783,15.601326
1570715155,3.0616608,-24.103317,1.0775757,3.0430145,-2.449112,1.0435333,-0.66108245,0.99067783,15.601326
1570715155,3.0616608,-24.103317,1.0775757,3.0430145,-2.449112,1.0435333,-0.66108245,0.99067783,15.601326
1570715155,3.0616608,-24.103317,1.0775757,3.0430145,-2.449112,1.0435333,-0.66108245,0.99067783,15.601326
1570715155,3.0616608,-24.103317,1.0775757,3.0430145,-2.449112,1.0435333,-0.66108245,0.99067783,15.601326
1570715155,3.0616608,-24.103317,1.0775757,3.0430145,-2.449112,1.0435333,-0.66108245,0.99067783,15.601326
1570715155,3.0616608,-24.103317,1.0775757,3.0430145,-2.449112,1.0435333,-0.66108245,0.99067783,15.601326
1570715155,3.0616608,-24.103317,1.0775757,3.0430145,-2.449112,1.0435333,-0.66108245,0.99067783,15.601326
1570715155,3.0616608,-24.103317,1.0775757,3.0430145,-2.449112,1.0435333,-0.66108245,0.99067783,15.601326
1570715155,3.0616608,-24.103317,1.0775757,3.0430145,-2.449112,1.0435333,-0.66108245,0.99067783,15.601326
1570715155,3.0616608,-24.103317,1.0775757,3.0430145,-2.449112,1.0435333,-0.66108245,0.99067783,15.601326
1570715155,3.0616608,-24.103317,1.0775757,3.0430145,-2.449112,1.0435333,-0.66108245,0.99067783,15.601326
1570715155,3.0616608,-24.103317,1.0775757,3.0430145,-2.449112,1.0435333,-0.66108245,0.99067783,15.601326
1570715155,3.0616608,-24.103317,1.0775757,3.0430145,-2.449112,1.0435333,-0.66108245,0.99067783,15.601326
1570715155,3.0616608,-24.103317,1.0775757,3.0430145,-2.449112,1.0435333,-0.66108245,0.99067783,15.601326
1570715155,3.0616608,-24.103317,1.0775757,3.0430145,-2.449112,1.0435333,-0.66108245,0.99067783,15.601326
1570715155,3.0616608,-24.103317,1.0775757,3.0430145,-2.449112,1.0435333,-0.66108245,0.99067783,15.601326
1570715155,3.0616608,-24.103317,1.0775757,3.0430145,-2.449112,1.0435333,-0.66108245,0.99067783,15.601326
1570715155,3.0616608,-24.103317,1.0775757,3.0430145,-2.449112,1.0435333,-0.66108245,0.99067783,15.601326
1570715155,3.0616608,-24.103317,1.0775757,3.0430145,-2.449112,1.0435333,-0.66108245,0.99067783,15.601326
1570715155,3.0616608,-24.103317,1.0775757,3.0430145,-2.449112,1.0435333,-0.66108245,0.99067783,15.601326
1570715155,3.0616608,-24.103317,1.0775757,3.0430145,-2.449112,1.0435333,-0.66108245,0.99067783,15.601326
1570715155,3.0616608,-24.103317,1.0775757,3.0430145,-2.449112,1.0435333,-0.66108245,0.99067783,15.601326
1570715155,3.0616608,-24.103317,1.0775757,3.0430145,-2.449112,1.0435333,-0.66108245,0.99067783,15.601326
1570715155,3.0616608,-24.103317,1.0775757,3.0430145,-2.449112,1.0435333,-0.66108245,0.99067783,15.601326
1570715155,3.0616608,-24.103317,1.0775757,3.0430145,-2.449112,1.0435333,-0.66108245,0.99067783,15.601326
1570715155,3.0616608,-24.103317,1.0775757,3.0430145,-2.449112,1.0435333,-0.66108245,0.99067783,15.601326
1570715155,3.0616608,-24.103317,1.0775757,3.0430145,-2.449112,1.0435333,-0.66108245,0.99067783,15.601326
1570715155,3.0616608,-24.103317,1.0775757,3.0430145,-2.449112,1.0435333,-0.66108245,0.99067783,15.601326
1570715155,3.0616608,-24.103317,1.0775757,3.0430145,-2.449112,1.0435333,-0.66108245,0.99067783,15.601326
1570715155,3.0616608,-24.103317,1.0775757,3.0430145,-2.449112,1.0435333,-0.66108245,0.99067783,15.601326
1570715155,3.0616608,-24.103317,1.0775757,3.0430145,-2.449112,1.0435333,-0.66108245,0.99067783,15.601326
1570715155,3.0616608,-24.103317,1.0775757,3.0430145,-2.449112,1.0435333,-0.66108245,0.99067783,15.601326
1570715155,3.0616608,-24.103317,1.0775757,3.0430145,-2.449112,1.0435333,-0.66108245,0.99067783,15.601326
1570715155,3.0616608,-24.103317,1.0775757,3.0430145,-2.449112,1.0435333,-0.66108245,0.99067783,15.601326
1570715155,3.0616608,-24.103317,1.0775757,3.0430145,-2.449112,1.0435333,-0.66108245,0.99067783,15.601326
1570715155,3.0616608,-24.103317,1.0775757,3.0430145,-2.449112,1.0435333,-0.66108245,0.99067783,15.601326
1570715155,3.0616608,-24.103317,1.0775757,3.0430145,-2.449112,1.0435333,-0.66108245,0.99067783,15.601326
1570715155,3.0616608,-24.103317,1.0775757,3.0430145,-2.449112,1.0435333,-0.66108245,0.99067783,15.601326
1570715155,3.0616608,-24.103317,1.0775757,3.0430145,-2.449112,1.0435333,-0.66108245,0.99067783,15.601326
1570715155,3.0616608,-24.103317,1.0775757,3.0430145,-2.449112,1.0435333,-0.66108245,0.99067783,15.601326
1570715155,3.0616608,-24.103317,1.0775757,3.0430145,-2.449112,1.0435333,-0.66108245,0.99067783,15.601326
1570715155,3.0616608,-24.103317,1.0775757,3.0430145,-2.449112,1.0435333,-0.66108245,0.99067783,15.601326
1570715155,3.0616608,-24.103317,1.0775757,3.0430145,-2.449112,1.0435333,-0.66108245,0.99067783,15.601326
1570715155,3.0616608,-24.103317,1.0775757,3.0430145,-2.449112,1.0435333,-0.66108245,0.99067783,15.601326
1570715155,3.0616608,-24.103317,1.0775757,3.0430145,-2.449112,1.0435333,-0.66108245,0.99067783,15.601326
1570715155,3.0616608,-24.103317,1.0775757,3.0430145,-2.449112,1.0435333,-0.66108245,0.99067783,15.601326
1570715155,3.0616608,-24.103317,1.0775757,3.0430145,-2.449112,1.0435333,-0.66108245,0.99067783,15.601326
1570715155,3.0616608,-24.103317,1.0775757,3.0430145,-2.449112,1.0435333,-0.66108245,0.99067783,15.601326
1570715155,3.0616608,-24.103317,1.0775757,3.0430145,-2.449112,1.0435333,-0.66108245,0.99067783,15.601326
1570715155,3.0616608,-24.103317,1.0775757,3.0430145,-2.449112,1.0435333,-0.66108245,0.99067783,15.601326
1570715155,3.0616608,-24.103317,1.0775757,3.0430145,-2.449112,1.0435333,-0.66108245,0.99067783,15.601326
1570715155,3.0616608,-24.103317,1.0775757,3.0430145,-2.449112,1.0435333,-0.66108245,0.99067783,15.601326
1570715155,3.0616608,-24.103317,1.0775757,3.0430145,-2.449112,1.0435333,-0.66108245,0.99067783,15.601326
1570715155,3.0616608,-24.103317,1.0775757,3.0430145,-2.449112,1.0435333,-0.66108245,0.99067783,15.601326
1570715155,3.0616608,-24.103317,1.0775757,3.0430145,-2.449112,1.0435333,-0.66108245,0.99067783,15.601326
1570715155,3.0616608,-24.103317,1.0775757,3.0430145,-2.449112,1.0435333,-0.66108245,0.99067783,15.601326
1570715155,3.0616608,-24.103317,1.0775757,3.0430145,-2.449112,1.0435333,-0.66108245,0.99067783,15.601326
1570715155,3.0616608,-24.103317,1.0775757,3.0430145,-2.449112,1.0435333,-0.66108245,0.99067783,15.601326
1570715155,3.0616608,-24.103317,1.0775757,3.0430145,-2.449112,1.0435333,-0.66108245,0.99067783,15.601326
1570715155,3.0616608,-24.103317,1.0775757,3.0430145,-2.449112,1.0435333,-0.66108245,0.99067783,15.601326
1570715155,3.0616608,-24.103317,1.0775757,3.0430145,-2.449112,1.0435333,-0.66108245,0.99067783,15.601326
1570715155,3.0616608,-24.103317,1.0775757,3.0430145,-2.449112,1.0435333,-0.66108245,0.99067783,15.601326
1570715155,3.0616608,-24.103317,1.0775757,3.0430145,-2.449112,1.0435333,-0.66108245,0.99067783,15.601326
1570715155,3.0616608,-24.103317,1.0775757,3.0430145,-2.449112,1.0435333,-0.66108245,0.99067783,15.601326
1570715155,3.0616608,-24.103317,1.0775757,3.0430145,-2.449112,1.0435333,-0.66108245,0.99067783,15.601326
1570715155,3.0616608,-24.103317,1.0775757,3.0430145,-2.449112,1.0435333,-0.66108245,0.99067783,15.601326
1570715155,3.0616608,-24.103317,1.0775757,3.0430145,-2.449112,1.0435333,-0.66108245,0.99067783,15.601326
1570715155,-7.955261,-20.522797,12.369827,3.0430145,-2.449112,1.0435333,-0.66108245,0.99067783,15.601326
1570715155,1.6287384,-11.0082245,3.5507965,3.0430145,-2.449112,1.0435333,1.2079353,8.75058,-2.609535
1570715155,1.5712738,-3.5311432,-6.2175446,2.2291565,-0.011779785,-0.4584961,2.864561,-5.4983454,4.9180937
1570715156,7.3939667,-9.246094,-12.92131,-1.0018005,0.9810486,-0.27101135,6.368361,-1.4165592,-10.703362
1570715156,7.3939667,-9.246094,-12.92131,-1.0018005,0.9810486,-0.27101135,6.368361,-1.4165592,-10.703362
1570715156,7.3939667,-9.246094,-12.92131,-1.0018005,0.9810486,-0.27101135,6.368361,-1.4165592,-10.703362
1570715156,7.3939667,-9.246094,-12.92131,-1.0018005,0.9810486,-0.27101135,6.368361,-1.4165592,-10.703362
1570715156,7.3939667,-9.246094,-12.92131,-1.0018005,0.9810486,-0.27101135,6.368361,-1.4165592,-10.703362
1570715156,7.3939667,-9.246094,-12.92131,-1.0018005,0.9810486,-0.27101135,6.368361,-1.4165592,-10.703362
1570715156,7.3939667,-9.246094,-12.92131,-1.0018005,0.9810486,-0.27101135,6.368361,-1.4165592,-10.703362
1570715156,7.3939667,-9.246094,-12.92131,-1.0018005,0.9810486,-0.27101135,6.368361,-1.4165592,-10.703362
1570715156,5.6306458,-2.0407562,-4.585907,0.87094116,0.8670654,1.2853394,-0.5454829,-9.815928,-15.304355
1570715156,5.6306458,-2.0407562,-4.585907,0.87094116,0.8670654,1.2853394,-0.5454829,-9.815928,-15.304355
1570715156,5.6306458,-2.0407562,-4.585907,0.87094116,0.8670654,1.2853394,-0.5454829,-9.815928,-15.304355
1570715156,5.6306458,-2.0407562,-4.585907,0.87094116,0.8670654,1.2853394,-0.5454829,-9.815928,-15.304355
1570715156,5.6306458,-2.0407562,-4.585907,0.87094116,0.8670654,1.2853394,-0.5454829,-9.815928,-15.304355
1570715156,5.6306458,-2.0407562,-4.585907,0.87094116,0.8670654,1.2853394,-0.5454829,-9.815928,-15.304355
1570715156,5.6306458,-2.0407562,-4.585907,0.87094116,0.8670654,1.2853394,-0.5454829,-9.815928,-15.304355
1570715156,5.6306458,-2.0407562,-4.585907,0.87094116,0.8670654,1.2853394,-0.5454829,-9.815928,-15.304355
1570715156,5.6306458,-2.0407562,-4.585907,0.87094116,0.8670654,1.2853394,-0.5454829,-9.815928,-15.304355
1570715156,5.6306458,-2.0407562,-4.585907,0.87094116,0.8670654,1.2853394,-0.5454829,-9.815928,-15.304355
1570715156,5.6306458,-2.0407562,-4.585907,0.87094116,0.8670654,1.2853394,-0.5454829,-9.815928,-15.304355
1570715156,-8.321564,-1.7019653,5.8791504,-0.27635193,-2.9124908,-0.85583496,-6.7906284,5.9550476,9.431149
1570715156,-5.251007,6.2695312,3.3724213,1.2927856,-0.97052,-0.2912445,-3.9575422,14.808733,6.387698
1570715156,-5.3240356,8.174118,6.21315,3.1815033,0.5549469,0.2808075,-3.7093172,17.084824,9.074496
1570715156,2.0692596,-0.48690796,-0.66659546,3.6502075,0.4803772,0.3873291,3.13054,8.708719,1.2836864
1570715156,8.795776,-9.428055,-24.882751,0.8954468,5.975006,-0.87713623,10.61223,0.0680294,-24.50114
1570715156,0.8769531,-8.7265625,-6.5252075,-1.0678406,0.36106873,-0.7663574,2.5240605,-1.1331577,-6.07215
1570715156,3.9331512,-9.601639,-12.223404,-1.599411,2.166687,-0.79512024,4.680026,-0.3786497,-12.992837
1570715156,-16.621063,-21.718689,9.33757,-2.0564117,-3.072281,-0.17619324,-17.62527,-14.8007555,13.58525
1570715156,0.41726685,-3.7370453,15.423645,0.07518005,0.9576111,0.009155273,1.5361192,4.8616924,17.500298
1570715156,-6.62648,-9.592056,6.9505615,2.4901428,3.84021,1.6081238,-5.595124,2.213686,11.537911
1570715156,-1.8739777,-32.131073,2.7044373,2.7042542,-2.6014404,1.8222351,-1.6659833,-24.114082,4.394493
1570715156,6.403961,-16.113861,4.7562714,2.7926788,-3.04245,0.91464233,7.7607603,-6.747306,5.3683667
1570715156,2.5313416,-19.110214,-4.5751343,3.6747131,-1.4594727,-0.0206604,4.1540318,-9.786354,-4.201366
1570715156,-8.985962,-12.862534,-13.352264,2.7372894,0.6082001,-0.2944336,-5.171926,-4.530571,-14.2362385
1570715157,-5.2486115,-9.118011,-11.709854,1.4515076,0.5357666,1.1362152,-4.1374435,-0.09515953,-13.540088
1570715157,6.909149,-5.3459473,-5.9374237,0.4032898,1.0630646,1.6507263,6.478533,3.2617235,-8.445276
1570715157,10.008438,-2.5650787,-6.077484,-0.6417389,1.1642761,0.42674255,12.653756,6.1474457,-7.8183985
1570715157,4.8237915,-1.8599854,-5.4969025,-1.5312347,-0.011779785,-0.16021729,7.960477,7.1534176,-6.4912004
1570715157,-0.55836487,-0.6473236,-3.483368,-2.4164734,-0.55825806,-0.40841675,1.7948284,8.12113,-4.394716
1570715157,-2.2486725,-0.44740295,-0.71687317,-2.8958282,-1.2187195,-0.20709229,-0.020142317,8.355368,-0.7576522
1570715157,-2.819687,-7.519882,-2.1150818,-2.953354,-0.85653687,-0.14317322,-0.763608,1.8913393,-1.2851791
1570715157,-2.37677,-36.605835,0.6107178,-3.9184875,-0.83096313,-1.1136322,0.0099003315,-25.169342,1.5949996
1570715157,-3.0423584,-18.773819,-0.94192505,-2.4367065,2.7834778,-1.1732788,-1.5546496,-10.071782,1.6949973
1570715157,-3.6229553,-19.474136,3.9626007,-1.5376282,2.3499146,-1.9658356,-2.6958728,-10.605394,6.3568916
1570715157,3.347763,-17.701218,-1.6206818,-1.964798,-1.0759735,-1.2457275,3.6165,-9.124155,1.3689439
1570715157,2.2775574,-13.854935,1.4869843,-1.0231018,-3.5963898,-1.0390625,2.9603202,-5.4871435,5.364278
1570715157,-4.9912415,-5.0143433,4.638962,-0.2742157,-4.266449,-1.0241394,-3.9119823,3.1481628,8.417874
1570715157,-9.075745,4.4475403,4.3025665,1.0626831,-2.2072906,-0.47979736,-8.553009,12.261193,8.083452
1570715157,-6.345154,6.194107,5.3057404,2.8651123,-0.38674927,0.25737,-5.7553153,14.887846,8.431782
1570715157,-4.140091,2.5549164,2.8624573,3.9367676,1.052414,0.96043396,-3.1070528,11.932239,4.916236
1570715157,6.0316772,-7.1344147,-8.557877,3.6619263,1.5264587,-0.08139038,7.0876136,1.9612541,-5.9912467
1570715157,3.0808105,-12.706924,-12.618454,-0.76956177,4.888443,-1.2659607,4.3439865,-4.0176134,-12.517289
1570715157,4.5628204,-5.9516754,-9.1384735,-0.26356506,-0.81073,-0.8920593,4.919261,2.8573103,-8.204618
1570715157,-3.8013153,-0.35403442,19.51892,-2.2971497,2.4436493,-0.85476685,-0.67373705,9.73044,22.08884
1570715157,-21.475311,-22.074234,-8.931381,1.8350067,-7.45372,0.32766724,-22.66641,-12.817003,-4.168572
1570715157,4.3258057,-13.216888,5.390732,-0.95492554,4.3440857,0.6579132,4.747002,-4.870656,6.1474524
1570715157,-3.6528778,-11.368561,12.969574,1.9212952,1.7001038,1.1681671,-2.898829,-1.7971725,15.426919
1570715157,-9.735352,-23.169586,7.052307,2.9087982,-3.203308,0.9572449,-9.115859,-14.825182,8.85867
1570715157,4.7962646,-16.80339,-1.1250763,2.9950714,-0.7936859,1.021164,4.674794,-6.654621,-2.6908238
1570715157,5.533676,-20.865158,-5.3269043,3.3796387,-0.36437988,0.109298706,7.083288,-11.932358,-5.49903
1570715157,-6.5127563,-12.090408,-12.405365,2.1780243,0.92459106,-0.0014953613,-3.7473407,-4.0227747,-14.705271
1570715157,-3.1022034,-8.2165985,-6.3707733,0.7761383,0.811676,0.9316864,-2.741439,0.36079788,-9.4170475
1570715157,4.6849365,-3.8363953,-8.119751,0.40222168,0.4611969,1.1766968,5.4192677,4.6113653,-9.480149
1570715157,7.877594,-2.8679504,-5.174881,-0.77809143,0.4111328,0.4885254,10.059999,5.823884,-6.8617845
1570715157,2.1434937,-1.257843,-6.704773,-2.0393677,0.7594757,-0.101623535,5.276575,7.3827486,-8.605437
1570715157,-1.0791016,-0.38874817,-2.1186829,-2.4558868,-0.5699768,-0.1974945,0.9452572,8.480315,-2.8066978
1570715157,-0.5978699,-2.2047577,-0.03930664,-3.1419067,-1.5968933,-0.103759766,1.3846159,6.860717,-0.2922098
1570715157,-0.21360779,-17.715591,-0.6977234,-3.987732,-1.8482971,-0.792984,2.0967402,-7.0988407,1.1386979
1570715158,-10.42009,-30.823837,2.5105133,-3.3262024,-0.027755737,-0.7908478,-8.647628,-24.32586,4.5233107
1570715158,-3.9006805,-16.754318,-4.626602,-1.7698517,3.678299,-1.1924591,-2.6628647,-7.9680023,-2.5602863
1570715158,-0.3608551,-16.988953,-4.443451,-2.2289734,-0.6637268,-1.1221466,-0.6845356,-8.303754,-1.7948911
1570715158,2.1973572,-16.192871,2.569168,-1.359726,-1.4253845,-0.75250244,2.971782,-7.5827494,5.888116
1570715158,-1.4071198,-9.583679,3.6621246,-1.0859528,-4.056595,-0.7834015,0.23674333,-2.0127487,6.966589
1570715158,-7.962433,-1.7271118,4.6892395,-0.22521973,-3.3545837,-0.7226715,-6.187425,5.780634,8.392772
1570715158,-7.784073,6.3616943,2.6649323,1.2576294,-0.87890625,-0.08457947,-6.6107836,14.160328,5.7884045
1570715158,-6.558243,6.5328827,4.972946,3.083496,1.3240662,0.9455261,-5.4805713,15.538885,7.424998
1570715158,1.3366394,-2.7590027,-1.1849365,3.9516907,1.4199371,1.0477905,1.7560978,7.4709215,2.841302
1570715158,6.905548,-9.37059,-16.216934,1.6187592,4.58696,-0.17619324,8.1482115,0.045182228,-14.486823
1570715158,6.308197,-8.991119,-9.385086,-0.6886139,1.2558899,-0.9911194,7.612878,-0.45450974,-8.130599
1570715158,6.1585693,-0.8544159,-3.1649475,-0.10058594,1.7693481,-0.9655609,6.8695726,6.975355,-3.2680025
1570715158,-19.075119,-17.024857,5.0100555,-2.093689,0.22044373,-0.98472595,-10.795422,-2.1993122,10.855101
1570715158,-2.0116577,-19.981705,4.6114197,-1.7336273,0.9533539,1.4781647,-4.5088253,-14.498228,4.355567
1570715158,2.477478,-12.074844,10.179138,-1.2734375,0.90434265,0.8358002,2.9249136,-4.6290064,11.681513
1570715158,2.477478,-12.074844,10.179138,-1.2734375,0.90434265,0.8358002,2.9249136,-4.6290064,11.681513
1570715158,2.477478,-12.074844,10.179138,-1.2734375,0.90434265,0.8358002,2.9249136,-4.6290064,11.681513
1570715158,2.477478,-12.074844,10.179138,-1.2734375,0.90434265,0.8358002,2.9249136,-4.6290064,11.681513
1570715158,2.477478,-12.074844,10.179138,-1.2734375,0.90434265,0.8358002,2.9249136,-4.6290064,11.681513
1570715158,2.477478,-12.074844,10.179138,-1.2734375,0.90434265,0.8358002,2.9249136,-4.6290064,11.681513
1570715158,2.477478,-12.074844,10.179138,-1.2734375,0.90434265,0.8358002,2.9249136,-4.6290064,11.681513
1570715158,2.477478,-12.074844,10.179138,-1.2734375,0.90434265,0.8358002,2.9249136,-4.6290064,11.681513
1570715158,2.477478,-12.074844,10.179138,-1.2734375,0.90434265,0.8358002,2.9249136,-4.6290064,11.681513
1570715158,2.477478,-12.074844,10.179138,-1.2734375,0.90434265,0.8358002,2.9249136,-4.6290064,11.681513
1570715158,0.23770142,-0.9693451,-1.2292328,-2.5954285,-1.1665192,-0.40948486,2.5322187,7.814625,-2.5034337
1570715158,-2.5659027,-2.621338,-0.50857544,-2.952301,-1.9026184,-0.26887512,-0.44904315,7.428406,-0.6671615
1570715158,-1.7937775,-21.218307,-2.4598541,-3.9461823,-1.8376465,-0.80895996,-0.06166172,-8.584144,-0.98587424
1570715158,-6.341568,-23.139648,-0.3469696,-2.8628082,0.38555908,-0.71095276,-6.231415,-19.319345,3.038484
1570715158,-5.0666504,-17.45343,-3.4486542,-1.8678589,4.010666,-1.4992523,-3.8177342,-8.690539,-1.8116868
1570715158,-0.30937195,-17.670105,-4.1693115,-2.2886353,-1.1889038,-0.9698181,-1.8093715,-8.7839365,-0.009333372
1570715158,1.1534882,-15.074783,3.2072296,-1.6931458,-2.6195526,-0.77700806,1.986121,-6.6168804,6.691366
1570715158,-2.4414062,-8.238144,3.7399292,-1.2691803,-4.07576,-0.77275085,-0.5712949,-0.7603035,7.4096746
1570715158,-8.598099,0.72335815,4.5635376,-0.07608032,-2.438446,-0.32107544,-7.334198,8.918523,8.458057
1570715159,-6.4540863,5.675766,2.983368,1.5271454,0.079833984,0.12313843,-5.51768,13.753954,6.4264994
1570715159,-4.7937164,4.9227905,6.860779,3.4531403,1.4785309,0.7548523,-3.6567378,14.418409,9.189554
1570715159,2.7731628,-3.9249878,-3.2092438,4.3000336,1.132309,0.3447113,2.9546304,6.08605,1.0633129
1570715159,5.636627,-10.104416,-17.181793,0.63764954,4.8010864,-0.26994324,7.7142925,-0.8692188,-18.28658
1570715159,0.57647705,-4.005188,-8.041931,-0.6992645,0.7104645,-0.6150818,1.3634654,3.8581858,-4.8255453
1570715159,6.77388,-7.3834076,-14.952789,-0.9762268,2.2987823,-0.5106964,7.1467543,1.9135437,-14.430619
1570715159,-15.97464,-20.880722,9.0143585,-2.027649,0.27264404,0.21263123,-15.006609,-9.832378,14.98489
1570715159,-1.9254608,-10.173859,7.798111,0.22964478,0.5101929,0.46403503,-2.6165383,-3.7227068,9.345422
1570715159,-3.269806,-7.483963,6.973297,2.0033112,1.7001038,0.7814789,-2.1318316,1.729435,9.457809
1570715159,-8.156372,-25.836716,-1.2376099,1.8477936,-2.962555,1.4707031,-7.5423565,-16.554043,0.78372157
1570715159,2.876114,-18.317734,5.251877,2.1151733,-1.8440399,1.0424652,4.1366596,-10.140635,6.712991
1570715159,3.6889496,-17.974167,-2.8237762,3.6683197,-0.46984863,0.45336914,5.1242094,-8.262957,-0.9567364
1570715159,-1.4142914,-14.998169,-9.175583,2.9790955,1.1727905,-0.23478699,0.55757046,-6.03428,-10.010763
1570715159,-3.4302216,-10.412079,-9.12291,1.7849426,0.5954132,0.41183472,-2.4957442,-1.8201246,-10.76128
1570715159,1.6347198,-5.442917,-7.413452,1.221405,-0.65626526,1.0627136,3.4900358,3.3171473,-8.81498
1570715159,4.805832,-3.1935577,-10.792877,0.54496765,0.5165863,0.7495117,6.8683805,5.5434093,-12.542487
1570715159,5.39003,-0.88793945,-5.549576,-1.010315,0.8287201,0.11569214,7.765494,7.807708,-7.285263
1570715159,2.307495,-1.1836243,-2.9351044,-1.9051361,-0.42510986,-0.12080383,5.261656,7.642413,-3.6034236
1570715159,-1.2873993,-0.04876709,-6.2642365,-2.4782562,-1.2155304,-0.14743042,0.88813233,8.676692,-6.9010596
1570715159,1.6047974,-9.911682,1.1362457,-3.3251343,-1.4882355,-0.16873169,3.6361806,-0.47955418,1.1808836
1570715159,-0.63139343,-31.809052,3.4250946,-4.370163,-2.7175446,-1.2659607,2.7743015,-15.331239,0.73454565
1570715159,-11.377762,-18.965363,-3.146988,-2.3855743,1.2569427,-0.52134705,-10.010433,-11.376854,-0.034934163
1570715159,-9.284042,-16.597488,-5.3676147,-1.9871674,3.651657,-1.0987091,-8.243849,-7.812499,-2.9005263
1570715159,5.3385468,-18.91269,-3.495346,-2.0020752,-0.78089905,-0.7684784,6.403059,-10.702598,-0.36154723
1570715159,1.1307373,-13.681351,2.7056427,-1.8071289,-2.6216736,-0.55329895,2.4453602,-5.323163,6.1374407
1570715159,-4.812866,-7.179901,4.7490845,-1.3341522,-3.8605804,-0.6374512,-3.2116961,1.0120869,8.437185
1570715159,-9.359451,-0.5383911,4.051178,-0.19645691,-2.3106232,-0.41801453,-7.705094,7.017329,7.828555
1570715159,-5.404236,5.734421,2.2184143,1.6677551,0.31951904,0.052841187,-3.865334,13.998638,5.6317
1570715159,-2.9585571,6.129471,3.431076,2.8256989,1.8289948,0.5822754,-1.4228666,14.740765,6.2556624
1570715159,4.398819,-0.51924133,-3.4103546,3.4233093,2.0601654,0.04963684,5.6476135,8.404518,-0.39775944
1570715159,1.9375916,-6.909363,-13.53183,0.5993042,5.399765,-0.43399048,3.5554624,2.0408888,-12.081038
1570715159,7.34848,-6.8566895,-6.656891,-0.8707733,-1.1814423,-0.47233582,8.048965,1.5231295,-5.274851
1570715159,-1.7590637,-10.391724,21.491745,-2.124588,3.1019897,-1.7900696,0.17235002,-1.1627407,24.52373
1570715160,-11.395721,-25.209442,6.584244,0.09542847,0.92884827,0.74632263,-12.790841,-17.892113,9.692257
1570715160,-3.056717,-1.6062012,7.185196,1.298111,1.0630646,0.339386,-2.304229,6.7367706,9.633307
1570715160,-10.392548,-13.137878,5.0651245,1.7540436,2.6971893,2.233429,-9.333768,-3.2605114,6.6676817
1570715160,2.4523315,-23.911789,9.936127,1.8360748,-3.7838745,1.7945404,1.828507,-17.747463,12.363534
1570715160,10.907455,-18.615814,-10.014755,3.9293213,-2.8688202,0.47361755,12.854962,-9.522228,-8.953991
1570715160,-0.6146393,-16.83931,-8.68956,3.2358246,0.77012634,-0.39457703,1.7011709,-7.9664583,-8.97302
1570715160,-9.37262,-11.52179,-9.807663,1.7508545,-0.8757019,0.36921692,-7.601954,-2.6344929,-11.309003
1570715160,-1.6716766,-8.227371,-11.094543,1.0499115,-0.73402405,1.0808105,-0.07847142,0.5065956,-12.588452
1570715160,5.7635193,-2.2239075,-6.014038,0.17211914,1.163208,0.9615021,7.3314447,6.1337385,-8.933003
1570715160,6.8157654,-0.5359955,-3.1673431,-0.67689514,0.23536682,0.21156311,9.167109,8.23305,-4.710469
1570715160,4.6011353,-1.3560028,-5.8644104,-1.505661,-0.035217285,-0.19004822,7.1143847,7.380822,-6.7162733
1570715160,-2.996872,-1.0699005,-5.063553,-2.4633331,-0.3846283,-0.32107544,-0.66887474,7.6204844,-5.7904577
1570715160,-2.3695831,-4.7940826,0.46107483,-3.2313995,-1.894104,0.15403748,-0.40473413,4.376642,0.5169195
1570715160,-2.720337,-20.27858,-2.5244904,-3.892929,-1.9484253,-0.6726074,-0.33503294,-10.695958,-1.5727735
1570715160,-10.708588,-19.889526,1.303833,-2.8468323,1.6596222,-0.5362549,-8.989396,-12.345784,3.1847801
1570715160,-4.6440735,-18.305756,-3.1721191,-1.868927,4.3696594,-0.93891907,-2.5954077,-9.580736,-0.8211746
1570715160,3.6506348,-17.893951,-3.3169708,-2.4036865,-1.4115448,-0.42866516,2.9547877,-9.235514,-0.04746604
1570715160,3.260376,-14.42955,3.0767365,-1.4705048,-2.0879822,-0.29870605,4.9749703,-5.98394,6.3233347
1570715160,-1.8919373,-8.591278,4.6736755,-0.79193115,-3.4760132,-0.9644928,0.59635663,-1.2983942,7.939064
1570715160,-8.145599,-0.471344,4.324112,0.13058472,-3.1575012,-0.91015625,-6.1040645,6.895502,8.345395
1570715160,-8.238968,0.26486206,3.8404846,0.22538757,-3.0158234,-0.86434937,-6.5185657,8.308192,7.593506
1570715172,-8.238968,0.26486206,3.8404846,0.22538757,-3.0158234,-0.86434937,-6.5185657,8.308192,7.593506
1570715172,-8.238968,0.26486206,3.8404846,0.22538757,-3.0158234,-0.86434937,-6.5185657,8.308192,7.593506
1570715172,-8.238968,0.26486206,3.8404846,0.22538757,-3.0158234,-0.86434937,-6.5185657,8.308192,7.593506
1570715172,-8.238968,0.26486206,3.8404846,0.22538757,-3.0158234,-0.86434937,-6.5185657,8.308192,7.593506
1570715172,-8.238968,0.26486206,3.8404846,0.22538757,-3.0158234,-0.86434937,-6.5185657,8.308192,7.593506
1570715172,-8.238968,0.26486206,3.8404846,0.22538757,-3.0158234,-0.86434937,-6.5185657,8.308192,7.593506
1570715172,-8.238968,0.26486206,3.8404846,0.22538757,-3.0158234,-0.86434937,-6.5185657,8.308192,7.593506
1570715172,-8.238968,0.26486206,3.8404846,0.22538757,-3.0158234,-0.86434937,-6.5185657,8.308192,7.593506
1570715172,-8.238968,0.26486206,3.8404846,0.22538757,-3.0158234,-0.86434937,-6.5185657,8.308192,7.593506
1570715172,-8.238968,0.26486206,3.8404846,0.22538757,-3.0158234,-0.86434937,-6.5185657,8.308192,7.593506
1570715172,-8.238968,0.26486206,3.8404846,0.22538757,-3.0158234,-0.86434937,-6.5185657,8.308192,7.593506
1570715172,-8.238968,0.26486206,3.8404846,0.22538757,-3.0158234,-0.86434937,-6.5185657,8.308192,7.593506
1570715172,-8.238968,0.26486206,3.8404846,0.22538757,-3.0158234,-0.86434937,-6.5185657,8.308192,7.593506
1570715172,-8.238968,0.26486206,3.8404846,0.22538757,-3.0158234,-0.86434937,-6.5185657,8.308192,7.593506
1570715172,-8.238968,0.26486206,3.8404846,0.22538757,-3.0158234,-0.86434937,-6.5185657,8.308192,7.593506
1570715172,-8.238968,0.26486206,3.8404846,0.22538757,-3.0158234,-0.86434937,-6.5185657,8.308192,7.593506
1570715172,-8.238968,0.26486206,3.8404846,0.22538757,-3.0158234,-0.86434937,-6.5185657,8.308192,7.593506
1570715172,-8.238968,0.26486206,3.8404846,0.22538757,-3.0158234,-0.86434937,-6.5185657,8.308192,7.593506
1570715172,-8.238968,0.26486206,3.8404846,0.22538757,-3.0158234,-0.86434937,-6.5185657,8.308192,7.593506
1570715172,-8.238968,0.26486206,3.8404846,0.22538757,-3.0158234,-0.86434937,-6.5185657,8.308192,7.593506
1570715172,-8.238968,0.26486206,3.8404846,0.22538757,-3.0158234,-0.86434937,-6.5185657,8.308192,7.593506
1570715172,-8.238968,0.26486206,3.8404846,0.22538757,-3.0158234,-0.86434937,-6.5185657,8.308192,7.593506
1570715172,-8.238968,0.26486206,3.8404846,0.22538757,-3.0158234,-0.86434937,-6.5185657,8.308192,7.593506
1570715172,-8.238968,0.26486206,3.8404846,0.22538757,-3.0158234,-0.86434937,-6.5185657,8.308192,7.593506
1570715172,-8.238968,0.26486206,3.8404846,0.22538757,-3.0158234,-0.86434937,-6.5185657,8.308192,7.593506
1570715172,-8.238968,0.26486206,3.8404846,0.22538757,-3.0158234,-0.86434937,-6.5185657,8.308192,7.593506
1570715172,-8.238968,0.26486206,3.8404846,0.22538757,-3.0158234,-0.86434937,-6.5185657,8.308192,7.593506
1570715172,-8.238968,0.26486206,3.8404846,0.22538757,-3.0158234,-0.86434937,-6.5185657,8.308192,7.593506
1570715172,-8.238968,0.26486206,3.8404846,0.22538757,-3.0158234,-0.86434937,-6.5185657,8.308192,7.593506
1570715172,-8.238968,0.26486206,3.8404846,0.22538757,-3.0158234,-0.86434937,-6.5185657,8.308192,7.593506
1570715172,-8.238968,0.26486206,3.8404846,0.22538757,-3.0158234,-0.86434937,-6.5185657,8.308192,7.593506
1570715172,-8.238968,0.26486206,3.8404846,0.22538757,-3.0158234,-0.86434937,-6.5185657,8.308192,7.593506
1570715172,-8.238968,0.26486206,3.8404846,0.22538757,-3.0158234,-0.86434937,-6.5185657,8.308192,7.593506
1570715172,-8.238968,0.26486206,3.8404846,0.22538757,-3.0158234,-0.86434937,-6.5185657,8.308192,7.593506
1570715172,-8.238968,0.26486206,3.8404846,0.22538757,-3.0158234,-0.86434937,-6.5185657,8.308192,7.593506
1570715172,-8.238968,0.26486206,3.8404846,0.22538757,-3.0158234,-0.86434937,-6.5185657,8.308192,7.593506
1570715172,-8.238968,0.26486206,3.8404846,0.22538757,-3.0158234,-0.86434937,-6.5185657,8.308192,7.593506
1570715172,-8.238968,0.26486206,3.8404846,0.22538757,-3.0158234,-0.86434937,-6.5185657,8.308192,7.593506
1570715172,-8.238968,0.26486206,3.8404846,0.22538757,-3.0158234,-0.86434937,-6.5185657,8.308192,7.593506
1570715172,-8.238968,0.26486206,3.8404846,0.22538757,-3.0158234,-0.86434937,-6.5185657,8.308192,7.593506
1570715172,-8.238968,0.26486206,3.8404846,0.22538757,-3.0158234,-0.86434937,-6.5185657,8.308192,7.593506
1570715172,-8.238968,0.26486206,3.8404846,0.22538757,-3.0158234,-0.86434937,-6.5185657,8.308192,7.593506
1570715172,-8.238968,0.26486206,3.8404846,0.22538757,-3.0158234,-0.86434937,-6.5185657,8.308192,7.593506
1570715172,-8.238968,0.26486206,3.8404846,0.22538757,-3.0158234,-0.86434937,-6.5185657,8.308192,7.593506
1570715172,-8.238968,0.26486206,3.8404846,0.22538757,-3.0158234,-0.86434937,-6.5185657,8.308192,7.593506
1570715172,-8.238968,0.26486206,3.8404846,0.22538757,-3.0158234,-0.86434937,-6.5185657,8.308192,7.593506
1570715172,-8.238968,0.26486206,3.8404846,0.22538757,-3.0158234,-0.86434937,-6.5185657,8.308192,7.593506
1570715172,-8.238968,0.26486206,3.8404846,0.22538757,-3.0158234,-0.86434937,-6.5185657,8.308192,7.593506
1570715172,-8.238968,0.26486206,3.8404846,0.22538757,-3.0158234,-0.86434937,-6.5185657,8.308192,7.593506
1570715172,-8.238968,0.26486206,3.8404846,0.22538757,-3.0158234,-0.86434937,-6.5185657,8.308192,7.593506
1570715172,-8.238968,0.26486206,3.8404846,0.22538757,-3.0158234,-0.86434937,-6.5185657,8.308192,7.593506
1570715172,-8.238968,0.26486206,3.8404846,0.22538757,-3.0158234,-0.86434937,-6.5185657,8.308192,7.593506
1570715172,-8.238968,0.26486206,3.8404846,0.22538757,-3.0158234,-0.86434937,-6.5185657,8.308192,7.593506
1570715172,-8.238968,0.26486206,3.8404846,0.22538757,-3.0158234,-0.86434937,-6.5185657,8.308192,7.593506
1570715172,-8.238968,0.26486206,3.8404846,0.22538757,-3.0158234,-0.86434937,-6.5185657,8.308192,7.593506
1570715172,-8.238968,0.26486206,3.8404846,0.22538757,-3.0158234,-0.86434937,-6.5185657,8.308192,7.593506
1570715172,-8.238968,0.26486206,3.8404846,0.22538757,-3.0158234,-0.86434937,-6.5185657,8.308192,7.593506
1570715172,-8.238968,0.26486206,3.8404846,0.22538757,-3.0158234,-0.86434937,-6.5185657,8.308192,7.593506
1570715172,-8.238968,0.26486206,3.8404846,0.22538757,-3.0158234,-0.86434937,-6.5185657,8.308192,7.593506
1570715172,-8.238968,0.26486206,3.8404846,0.22538757,-3.0158234,-0.86434937,-6.5185657,8.308192,7.593506
1570715172,-8.238968,0.26486206,3.8404846,0.22538757,-3.0158234,-0.86434937,-6.5185657,8.308192,7.593506
1570715172,-8.238968,0.26486206,3.8404846,0.22538757,-3.0158234,-0.86434937,-6.5185657,8.308192,7.593506
1570715172,-8.238968,0.26486206,3.8404846,0.22538757,-3.0158234,-0.86434937,-6.5185657,8.308192,7.593506
1570715172,-8.238968,0.26486206,3.8404846,0.22538757,-3.0158234,-0.86434937,-6.5185657,8.308192,7.593506
1570715172,-8.238968,0.26486206,3.8404846,0.22538757,-3.0158234,-0.86434937,-6.5185657,8.308192,7.593506
1570715172,-8.238968,0.26486206,3.8404846,0.22538757,-3.0158234,-0.86434937,-6.5185657,8.308192,7.593506
1570715172,-8.238968,0.26486206,3.8404846,0.22538757,-3.0158234,-0.86434937,-6.5185657,8.308192,7.593506
1570715172,-8.238968,0.26486206,3.8404846,0.22538757,-3.0158234,-0.86434937,-6.5185657,8.308192,7.593506
1570715172,-8.238968,0.26486206,3.8404846,0.22538757,-3.0158234,-0.86434937,-6.5185657,8.308192,7.593506
1570715172,-8.238968,0.26486206,3.8404846,0.22538757,-3.0158234,-0.86434937,-6.5185657,8.308192,7.593506
1570715172,-8.238968,0.26486206,3.8404846,0.22538757,-3.0158234,-0.86434937,-6.5185657,8.308192,7.593506
1570715172,-8.238968,0.26486206,3.8404846,0.22538757,-3.0158234,-0.86434937,-6.5185657,8.308192,7.593506
1570715172,-8.238968,0.26486206,3.8404846,0.22538757,-3.0158234,-0.86434937,-6.5185657,8.308192,7.593506
1570715172,-8.238968,0.26486206,3.8404846,0.22538757,-3.0158234,-0.86434937,-6.5185657,8.308192,7.593506
1570715172,-8.238968,0.26486206,3.8404846,0.22538757,-3.0158234,-0.86434937,-6.5185657,8.308192,7.593506
1570715172,-8.238968,0.26486206,3.8404846,0.22538757,-3.0158234,-0.86434937,-6.5185657,8.308192,7.593506
1570715172,-8.238968,0.26486206,3.8404846,0.22538757,-3.0158234,-0.86434937,-6.5185657,8.308192,7.593506
1570715172,-8.238968,0.26486206,3.8404846,0.22538757,-3.0158234,-0.86434937,-6.5185657,8.308192,7.593506
1570715172,-8.238968,0.26486206,3.8404846,0.22538757,-3.0158234,-0.86434937,-6.5185657,8.308192,7.593506
1570715172,-8.238968,0.26486206,3.8404846,0.22538757,-3.0158234,-0.86434937,-6.5185657,8.308192,7.593506
1570715172,-8.238968,0.26486206,3.8404846,0.22538757,-3.0158234,-0.86434937,-6.5185657,8.308192,7.593506
1570715172,-8.238968,0.26486206,3.8404846,0.22538757,-3.0158234,-0.86434937,-6.5185657,8.308192,7.593506
1570715172,-8.238968,0.26486206,3.8404846,0.22538757,-3.0158234,-0.86434937,-6.5185657,8.308192,7.593506
1570715172,-8.238968,0.26486206,3.8404846,0.22538757,-3.0158234,-0.86434937,-6.5185657,8.308192,7.593506
1570715172,-8.238968,0.26486206,3.8404846,0.22538757,-3.0158234,-0.86434937,-6.5185657,8.308192,7.593506
1570715172,-8.238968,0.26486206,3.8404846,0.22538757,-3.0158234,-0.86434937,-6.5185657,8.308192,7.593506
1570715172,-8.238968,0.26486206,3.8404846,0.22538757,-3.0158234,-0.86434937,-6.5185657,8.308192,7.593506
1570715172,-8.238968,0.26486206,3.8404846,0.22538757,-3.0158234,-0.86434937,-6.5185657,8.308192,7.593506
1570715172,-8.238968,0.26486206,3.8404846,0.22538757,-3.0158234,-0.86434937,-6.5185657,8.308192,7.593506
1570715172,-8.238968,0.26486206,3.8404846,0.22538757,-3.0158234,-0.86434937,-6.5185657,8.308192,7.593506
1570715172,-8.238968,0.26486206,3.8404846,0.22538757,-3.0158234,-0.86434937,-6.5185657,8.308192,7.593506
1570715172,-8.238968,0.26486206,3.8404846,0.22538757,-3.0158234,-0.86434937,-6.5185657,8.308192,7.593506
1570715172,-8.238968,0.26486206,3.8404846,0.22538757,-3.0158234,-0.86434937,-6.5185657,8.308192,7.593506
1570715172,-8.238968,0.26486206,3.8404846,0.22538757,-3.0158234,-0.86434937,-6.5185657,8.308192,7.593506
1570715172,-8.238968,0.26486206,3.8404846,0.22538757,-3.0158234,-0.86434937,-6.5185657,8.308192,7.593506
1570715172,-8.238968,0.26486206,3.8404846,0.22538757,-3.0158234,-0.86434937,-6.5185657,8.308192,7.593506
1570715172,-8.238968,0.26486206,3.8404846,0.22538757,-3.0158234,-0.86434937,-6.5185657,8.308192,7.593506
1570715172,-8.238968,0.26486206,3.8404846,0.22538757,-3.0158234,-0.86434937,-6.5185657,8.308192,7.593506
1570715172,-8.238968,0.26486206,3.8404846,0.22538757,-3.0158234,-0.86434937,-6.5185657,8.308192,7.593506
1570715172,-8.238968,0.26486206,3.8404846,0.22538757,-3.0158234,-0.86434937,-6.5185657,8.308192,7.593506
1570715172,-8.238968,0.26486206,3.8404846,0.22538757,-3.0158234,-0.86434937,-6.5185657,8.308192,7.593506
1570715172,-8.238968,0.26486206,3.8404846,0.22538757,-3.0158234,-0.86434937,-6.5185657,8.308192,7.593506
1570715172,-8.238968,0.26486206,3.8404846,0.22538757,-3.0158234,-0.86434937,-6.5185657,8.308192,7.593506
1570715172,-8.238968,0.26486206,3.8404846,0.22538757,-3.0158234,-0.86434937,-6.5185657,8.308192,7.593506
1570715172,-8.238968,0.26486206,3.8404846,0.22538757,-3.0158234,-0.86434937,-6.5185657,8.308192,7.593506
1570715172,-8.238968,0.26486206,3.8404846,0.22538757,-3.0158234,-0.86434937,-6.5185657,8.308192,7.593506
1570715172,-8.238968,0.26486206,3.8404846,0.22538757,-3.0158234,-0.86434937,-6.5185657,8.308192,7.593506
1570715172,-8.238968,0.26486206,3.8404846,0.22538757,-3.0158234,-0.86434937,-6.5185657,8.308192,7.593506
1570715172,-8.238968,0.26486206,3.8404846,0.22538757,-3.0158234,-0.86434937,-6.5185657,8.308192,7.593506
1570715172,-8.238968,0.26486206,3.8404846,0.22538757,-3.0158234,-0.86434937,-6.5185657,8.308192,7.593506
1570715172,-8.238968,0.26486206,3.8404846,0.22538757,-3.0158234,-0.86434937,-6.5185657,8.308192,7.593506
1570715172,-8.238968,0.26486206,3.8404846,0.22538757,-3.0158234,-0.86434937,-6.5185657,8.308192,7.593506
1570715172,-8.238968,0.26486206,3.8404846,0.22538757,-3.0158234,-0.86434937,-6.5185657,8.308192,7.593506
1570715172,-8.238968,0.26486206,3.8404846,0.22538757,-3.0158234,-0.86434937,-6.5185657,8.308192,7.593506
1570715172,-8.238968,0.26486206,3.8404846,0.22538757,-3.0158234,-0.86434937,-6.5185657,8.308192,7.593506
1570715172,-8.238968,0.26486206,3.8404846,0.22538757,-3.0158234,-0.86434937,-6.5185657,8.308192,7.593506
1570715172,-8.238968,0.26486206,3.8404846,0.22538757,-3.0158234,-0.86434937,-6.5185657,8.308192,7.593506
1570715172,-8.238968,0.26486206,3.8404846,0.22538757,-3.0158234,-0.86434937,-6.5185657,8.308192,7.593506
1570715172,-8.238968,0.26486206,3.8404846,0.22538757,-3.0158234,-0.86434937,-6.5185657,8.308192,7.593506
1570715172,-8.238968,0.26486206,3.8404846,0.22538757,-3.0158234,-0.86434937,-6.5185657,8.308192,7.593506
1570715172,-8.238968,0.26486206,3.8404846,0.22538757,-3.0158234,-0.86434937,-6.5185657,8.308192,7.593506
1570715172,-8.238968,0.26486206,3.8404846,0.22538757,-3.0158234,-0.86434937,-6.5185657,8.308192,7.593506
1570715172,-8.238968,0.26486206,3.8404846,0.22538757,-3.0158234,-0.86434937,-6.5185657,8.308192,7.593506
1570715172,-8.238968,0.26486206,3.8404846,0.22538757,-3.0158234,-0.86434937,-6.5185657,8.308192,7.593506
1570715172,-8.238968,0.26486206,3.8404846,0.22538757,-3.0158234,-0.86434937,-6.5185657,8.308192,7.593506
1570715172,-8.238968,0.26486206,3.8404846,0.22538757,-3.0158234,-0.86434937,-6.5185657,8.308192,7.593506
1570715172,-8.238968,0.26486206,3.8404846,0.22538757,-3.0158234,-0.86434937,-6.5185657,8.308192,7.593506
1570715172,-8.238968,0.26486206,3.8404846,0.22538757,-3.0158234,-0.86434937,-6.5185657,8.308192,7.593506
1570715172,-8.238968,0.26486206,3.8404846,0.22538757,-3.0158234,-0.86434937,-6.5185657,8.308192,7.593506
1570715172,-8.238968,0.26486206,3.8404846,0.22538757,-3.0158234,-0.86434937,-6.5185657,8.308192,7.593506
1570715172,-8.238968,0.26486206,3.8404846,0.22538757,-3.0158234,-0.86434937,-6.5185657,8.308192,7.593506
1570715172,-8.238968,0.26486206,3.8404846,0.22538757,-3.0158234,-0.86434937,-6.5185657,8.308192,7.593506
1570715172,-8.238968,0.26486206,3.8404846,0.22538757,-3.0158234,-0.86434937,-6.5185657,8.308192,7.593506
1570715172,-8.238968,0.26486206,3.8404846,0.22538757,-3.0158234,-0.86434937,-6.5185657,8.308192,7.593506
1570715172,-8.238968,0.26486206,3.8404846,0.22538757,-3.0158234,-0.86434937,-6.5185657,8.308192,7.593506
1570715172,-8.238968,0.26486206,3.8404846,0.22538757,-3.0158234,-0.86434937,-6.5185657,8.308192,7.593506
1570715172,-8.238968,0.26486206,3.8404846,0.22538757,-3.0158234,-0.86434937,-6.5185657,8.308192,7.593506
1570715172,-8.238968,0.26486206,3.8404846,0.22538757,-3.0158234,-0.86434937,-6.5185657,8.308192,7.593506
1570715172,-8.238968,0.26486206,3.8404846,0.22538757,-3.0158234,-0.86434937,-6.5185657,8.308192,7.593506
1570715172,-8.238968,0.26486206,3.8404846,0.22538757,-3.0158234,-0.86434937,-6.5185657,8.308192,7.593506
1570715172,-8.238968,0.26486206,3.8404846,0.22538757,-3.0158234,-0.86434937,-6.5185657,8.308192,7.593506
1570715172,-8.238968,0.26486206,3.8404846,0.22538757,-3.0158234,-0.86434937,-6.5185657,8.308192,7.593506
1570715172,-8.238968,0.26486206,3.8404846,0.22538757,-3.0158234,-0.86434937,-6.5185657,8.308192,7.593506
1570715172,-8.238968,0.26486206,3.8404846,0.22538757,-3.0158234,-0.86434937,-6.5185657,8.308192,7.593506
1570715172,-8.238968,0.26486206,3.8404846,0.22538757,-3.0158234,-0.86434937,-6.5185657,8.308192,7.593506
1570715172,-8.238968,0.26486206,3.8404846,0.22538757,-3.0158234,-0.86434937,-6.5185657,8.308192,7.593506
1570715172,-8.238968,0.26486206,3.8404846,0.22538757,-3.0158234,-0.86434937,-6.5185657,8.308192,7.593506
1570715172,-8.238968,0.26486206,3.8404846,0.22538757,-3.0158234,-0.86434937,-6.5185657,8.308192,7.593506
1570715172,-8.238968,0.26486206,3.8404846,0.22538757,-3.0158234,-0.86434937,-6.5185657,8.308192,7.593506
1570715172,-8.238968,0.26486206,3.8404846,0.22538757,-3.0158234,-0.86434937,-6.5185657,8.308192,7.593506
1570715172,-8.238968,0.26486206,3.8404846,0.22538757,-3.0158234,-0.86434937,-6.5185657,8.308192,7.593506
1570715172,-8.238968,0.26486206,3.8404846,0.22538757,-3.0158234,-0.86434937,-6.5185657,8.308192,7.593506
1570715172,-8.238968,0.26486206,3.8404846,0.22538757,-3.0158234,-0.86434937,-6.5185657,8.308192,7.593506
1570715172,-8.238968,0.26486206,3.8404846,0.22538757,-3.0158234,-0.86434937,-6.5185657,8.308192,7.593506
1570715172,-8.238968,0.26486206,3.8404846,0.22538757,-3.0158234,-0.86434937,-6.5185657,8.308192,7.593506
1570715172,-8.238968,0.26486206,3.8404846,0.22538757,-3.0158234,-0.86434937,-6.5185657,8.308192,7.593506
1570715172,-8.238968,0.26486206,3.8404846,0.22538757,-3.0158234,-0.86434937,-6.5185657,8.308192,7.593506
1570715172,-8.238968,0.26486206,3.8404846,0.22538757,-3.0158234,-0.86434937,-6.5185657,8.308192,7.593506
1570715172,-8.238968,0.26486206,3.8404846,0.22538757,-3.0158234,-0.86434937,-6.5185657,8.308192,7.593506
1570715172,-8.238968,0.26486206,3.8404846,0.22538757,-3.0158234,-0.86434937,-6.5185657,8.308192,7.593506
1570715172,-8.238968,0.26486206,3.8404846,0.22538757,-3.0158234,-0.86434937,-6.5185657,8.308192,7.593506
1570715172,-8.238968,0.26486206,3.8404846,0.22538757,-3.0158234,-0.86434937,-6.5185657,8.308192,7.593506
1570715172,-8.238968,0.26486206,3.8404846,0.22538757,-3.0158234,-0.86434937,-6.5185657,8.308192,7.593506
1570715172,-8.238968,0.26486206,3.8404846,0.22538757,-3.0158234,-0.86434937,-6.5185657,8.308192,7.593506
1570715172,-8.238968,0.26486206,3.8404846,0.22538757,-3.0158234,-0.86434937,-6.5185657,8.308192,7.593506
1570715172,-8.238968,0.26486206,3.8404846,0.22538757,-3.0158234,-0.86434937,-6.5185657,8.308192,7.593506
1570715172,-8.238968,0.26486206,3.8404846,0.22538757,-3.0158234,-0.86434937,-6.5185657,8.308192,7.593506
1570715172,-8.238968,0.26486206,3.8404846,0.22538757,-3.0158234,-0.86434937,-6.5185657,8.308192,7.593506
1570715172,-8.238968,0.26486206,3.8404846,0.22538757,-3.0158234,-0.86434937,-6.5185657,8.308192,7.593506
1570715172,-8.238968,0.26486206,3.8404846,0.22538757,-3.0158234,-0.86434937,-6.5185657,8.308192,7.593506
1570715172,-8.238968,0.26486206,3.8404846,0.22538757,-3.0158234,-0.86434937,-6.5185657,8.308192,7.593506
1570715172,-8.238968,0.26486206,3.8404846,0.22538757,-3.0158234,-0.86434937,-6.5185657,8.308192,7.593506
1570715172,-8.238968,0.26486206,3.8404846,0.22538757,-3.0158234,-0.86434937,-6.5185657,8.308192,7.593506
1570715172,-8.238968,0.26486206,3.8404846,0.22538757,-3.0158234,-0.86434937,-6.5185657,8.308192,7.593506
1570715172,-8.238968,0.26486206,3.8404846,0.22538757,-3.0158234,-0.86434937,-6.5185657,8.308192,7.593506
1570715172,-8.238968,0.26486206,3.8404846,0.22538757,-3.0158234,-0.86434937,-6.5185657,8.308192,7.593506
1570715172,-8.238968,0.26486206,3.8404846,0.22538757,-3.0158234,-0.86434937,-6.5185657,8.308192,7.593506
1570715172,-8.238968,0.26486206,3.8404846,0.22538757,-3.0158234,-0.86434937,-6.5185657,8.308192,7.593506
1570715172,-8.238968,0.26486206,3.8404846,0.22538757,-3.0158234,-0.86434937,-6.5185657,8.308192,7.593506
1570715172,-8.238968,0.26486206,3.8404846,0.22538757,-3.0158234,-0.86434937,-6.5185657,8.308192,7.593506
1570715172,-8.238968,0.26486206,3.8404846,0.22538757,-3.0158234,-0.86434937,-6.5185657,8.308192,7.593506
1570715172,-8.238968,0.26486206,3.8404846,0.22538757,-3.0158234,-0.86434937,-6.5185657,8.308192,7.593506
1570715172,-8.238968,0.26486206,3.8404846,0.22538757,-3.0158234,-0.86434937,-6.5185657,8.308192,7.593506
1570715172,-8.238968,0.26486206,3.8404846,0.22538757,-3.0158234,-0.86434937,-6.5185657,8.308192,7.593506
1570715172,-8.238968,0.26486206,3.8404846,0.22538757,-3.0158234,-0.86434937,-6.5185657,8.308192,7.593506
1570715172,-8.238968,0.26486206,3.8404846,0.22538757,-3.0158234,-0.86434937,-6.5185657,8.308192,7.593506
1570715172,-8.238968,0.26486206,3.8404846,0.22538757,-3.0158234,-0.86434937,-6.5185657,8.308192,7.593506
1570715172,-8.238968,0.26486206,3.8404846,0.22538757,-3.0158234,-0.86434937,-6.5185657,8.308192,7.593506
1570715172,-8.238968,0.26486206,3.8404846,0.22538757,-3.0158234,-0.86434937,-6.5185657,8.308192,7.593506
1570715172,-8.238968,0.26486206,3.8404846,0.22538757,-3.0158234,-0.86434937,-6.5185657,8.308192,7.593506
1570715172,-8.238968,0.26486206,3.8404846,0.22538757,-3.0158234,-0.86434937,-6.5185657,8.308192,7.593506
1570715172,-8.238968,0.26486206,3.8404846,0.22538757,-3.0158234,-0.86434937,-6.5185657,8.308192,7.593506
1570715172,-8.238968,0.26486206,3.8404846,0.22538757,-3.0158234,-0.86434937,-6.5185657,8.308192,7.593506
1570715172,-8.238968,0.26486206,3.8404846,0.22538757,-3.0158234,-0.86434937,-6.5185657,8.308192,7.593506
1570715172,-8.238968,0.26486206,3.8404846,0.22538757,-3.0158234,-0.86434937,-6.5185657,8.308192,7.593506
1570715172,-8.238968,0.26486206,3.8404846,0.22538757,-3.0158234,-0.86434937,-6.5185657,8.308192,7.593506
1570715172,-8.238968,0.26486206,3.8404846,0.22538757,-3.0158234,-0.86434937,-6.5185657,8.308192,7.593506
1570715172,-8.238968,0.26486206,3.8404846,0.22538757,-3.0158234,-0.86434937,-6.5185657,8.308192,7.593506
1570715172,-8.238968,0.26486206,3.8404846,0.22538757,-3.0158234,-0.86434937,-6.5185657,8.308192,7.593506
1570715172,-8.238968,0.26486206,3.8404846,0.22538757,-3.0158234,-0.86434937,-6.5185657,8.308192,7.593506
1570715172,-8.238968,0.26486206,3.8404846,0.22538757,-3.0158234,-0.86434937,-6.5185657,8.308192,7.593506
1570715172,-8.238968,0.26486206,3.8404846,0.22538757,-3.0158234,-0.86434937,-6.5185657,8.308192,7.593506
1570715172,-8.238968,0.26486206,3.8404846,0.22538757,-3.0158234,-0.86434937,-6.5185657,8.308192,7.593506
1570715172,-8.238968,0.26486206,3.8404846,0.22538757,-3.0158234,-0.86434937,-6.5185657,8.308192,7.593506
1570715172,-8.238968,0.26486206,3.8404846,0.22538757,-3.0158234,-0.86434937,-6.5185657,8.308192,7.593506
1570715172,-8.238968,0.26486206,3.8404846,0.22538757,-3.0158234,-0.86434937,-6.5185657,8.308192,7.593506
1570715172,-8.238968,0.26486206,3.8404846,0.22538757,-3.0158234,-0.86434937,-6.5185657,8.308192,7.593506
1570715172,-8.238968,0.26486206,3.8404846,0.22538757,-3.0158234,-0.86434937,-6.5185657,8.308192,7.593506
1570715172,-8.238968,0.26486206,3.8404846,0.22538757,-3.0158234,-0.86434937,-6.5185657,8.308192,7.593506
1570715172,-8.238968,0.26486206,3.8404846,0.22538757,-3.0158234,-0.86434937,-6.5185657,8.308192,7.593506
1570715172,-8.238968,0.26486206,3.8404846,0.22538757,-3.0158234,-0.86434937,-6.5185657,8.308192,7.593506
1570715172,-8.238968,0.26486206,3.8404846,0.22538757,-3.0158234,-0.86434937,-6.5185657,8.308192,7.593506
1570715172,-8.238968,0.26486206,3.8404846,0.22538757,-3.0158234,-0.86434937,-6.5185657,8.308192,7.593506
1570715172,-8.238968,0.26486206,3.8404846,0.22538757,-3.0158234,-0.86434937,-6.5185657,8.308192,7.593506
1570715172,-8.238968,0.26486206,3.8404846,0.22538757,-3.0158234,-0.86434937,-6.5185657,8.308192,7.593506
1570715172,-8.238968,0.26486206,3.8404846,0.22538757,-3.0158234,-0.86434937,-6.5185657,8.308192,7.593506
1570715172,-8.238968,0.26486206,3.8404846,0.22538757,-3.0158234,-0.86434937,-6.5185657,8.308192,7.593506
1570715172,-8.238968,0.26486206,3.8404846,0.22538757,-3.0158234,-0.86434937,-6.5185657,8.308192,7.593506
1570715172,-8.238968,0.26486206,3.8404846,0.22538757,-3.0158234,-0.86434937,-6.5185657,8.308192,7.593506
1570715172,-8.238968,0.26486206,3.8404846,0.22538757,-3.0158234,-0.86434937,-6.5185657,8.308192,7.593506
1570715172,-8.238968,0.26486206,3.8404846,0.22538757,-3.0158234,-0.86434937,-6.5185657,8.308192,7.593506
1570715172,-8.238968,0.26486206,3.8404846,0.22538757,-3.0158234,-0.86434937,-6.5185657,8.308192,7.593506
1570715172,-8.238968,0.26486206,3.8404846,0.22538757,-3.0158234,-0.86434937,-6.5185657,8.308192,7.593506
1570715172,-8.238968,0.26486206,3.8404846,0.22538757,-3.0158234,-0.86434937,-6.5185657,8.308192,7.593506
1570715172,-8.238968,0.26486206,3.8404846,0.22538757,-3.0158234,-0.86434937,-6.5185657,8.308192,7.593506
1570715172,-8.238968,0.26486206,3.8404846,0.22538757,-3.0158234,-0.86434937,-6.5185657,8.308192,7.593506
1570715172,-8.238968,0.26486206,3.8404846,0.22538757,-3.0158234,-0.86434937,-6.5185657,8.308192,7.593506
1570715172,-8.238968,0.26486206,3.8404846,0.22538757,-3.0158234,-0.86434937,-6.5185657,8.308192,7.593506
1570715172,-8.238968,0.26486206,3.8404846,0.22538757,-3.0158234,-0.86434937,-6.5185657,8.308192,7.593506
1570715172,-8.238968,0.26486206,3.8404846,0.22538757,-3.0158234,-0.86434937,-6.5185657,8.308192,7.593506
1570715172,-8.238968,0.26486206,3.8404846,0.22538757,-3.0158234,-0.86434937,-6.5185657,8.308192,7.593506
1570715172,-8.238968,0.26486206,3.8404846,0.22538757,-3.0158234,-0.86434937,-6.5185657,8.308192,7.593506
1570715172,-8.238968,0.26486206,3.8404846,0.22538757,-3.0158234,-0.86434937,-6.5185657,8.308192,7.593506
1570715172,-8.238968,0.26486206,3.8404846,0.22538757,-3.0158234,-0.86434937,-6.5185657,8.308192,7.593506
1570715172,-8.238968,0.26486206,3.8404846,0.22538757,-3.0158234,-0.86434937,-6.5185657,8.308192,7.593506
1570715172,-8.238968,0.26486206,3.8404846,0.22538757,-3.0158234,-0.86434937,-6.5185657,8.308192,7.593506
1570715172,-8.238968,0.26486206,3.8404846,0.22538757,-3.0158234,-0.86434937,-6.5185657,8.308192,7.593506
1570715172,-8.238968,0.26486206,3.8404846,0.22538757,-3.0158234,-0.86434937,-6.5185657,8.308192,7.593506
1570715172,-8.238968,0.26486206,3.8404846,0.22538757,-3.0158234,-0.86434937,-6.5185657,8.308192,7.593506
1570715172,-8.238968,0.26486206,3.8404846,0.22538757,-3.0158234,-0.86434937,-6.5185657,8.308192,7.593506
1570715172,-8.238968,0.26486206,3.8404846,0.22538757,-3.0158234,-0.86434937,-6.5185657,8.308192,7.593506
1570715172,-8.238968,0.26486206,3.8404846,0.22538757,-3.0158234,-0.86434937,-6.5185657,8.308192,7.593506
1570715172,-8.238968,0.26486206,3.8404846,0.22538757,-3.0158234,-0.86434937,-6.5185657,8.308192,7.593506
1570715172,-8.238968,0.26486206,3.8404846,0.22538757,-3.0158234,-0.86434937,-6.5185657,8.308192,7.593506
1570715172,-8.238968,0.26486206,3.8404846,0.22538757,-3.0158234,-0.86434937,-6.5185657,8.308192,7.593506
1570715172,-8.238968,0.26486206,3.8404846,0.22538757,-3.0158234,-0.86434937,-6.5185657,8.308192,7.593506
1570715172,-8.238968,0.26486206,3.8404846,0.22538757,-3.0158234,-0.86434937,-6.5185657,8.308192,7.593506
1570715172,-8.238968,0.26486206,3.8404846,0.22538757,-3.0158234,-0.86434937,-6.5185657,8.308192,7.593506
1570715172,-8.238968,0.26486206,3.8404846,0.22538757,-3.0158234,-0.86434937,-6.5185657,8.308192,7.593506
1570715172,-8.238968,0.26486206,3.8404846,0.22538757,-3.0158234,-0.86434937,-6.5185657,8.308192,7.593506
1570715172,-8.238968,0.26486206,3.8404846,0.22538757,-3.0158234,-0.86434937,-6.5185657,8.308192,7.593506
1570715172,-8.238968,0.26486206,3.8404846,0.22538757,-3.0158234,-0.86434937,-6.5185657,8.308192,7.593506
1570715172,-8.238968,0.26486206,3.8404846,0.22538757,-3.0158234,-0.86434937,-6.5185657,8.308192,7.593506
1570715172,-8.238968,0.26486206,3.8404846,0.22538757,-3.0158234,-0.86434937,-6.5185657,8.308192,7.593506
1570715172,-8.238968,0.26486206,3.8404846,0.22538757,-3.0158234,-0.86434937,-6.5185657,8.308192,7.593506
1570715172,-8.238968,0.26486206,3.8404846,0.22538757,-3.0158234,-0.86434937,-6.5185657,8.308192,7.593506
1570715172,-8.238968,0.26486206,3.8404846,0.22538757,-3.0158234,-0.86434937,-6.5185657,8.308192,7.593506
1570715172,-8.238968,0.26486206,3.8404846,0.22538757,-3.0158234,-0.86434937,-6.5185657,8.308192,7.593506
1570715172,-8.238968,0.26486206,3.8404846,0.22538757,-3.0158234,-0.86434937,-6.5185657,8.308192,7.593506
1570715172,-8.238968,0.26486206,3.8404846,0.22538757,-3.0158234,-0.86434937,-6.5185657,8.308192,7.593506
1570715172,-8.238968,0.26486206,3.8404846,0.22538757,-3.0158234,-0.86434937,-6.5185657,8.308192,7.593506
1570715172,-8.238968,0.26486206,3.8404846,0.22538757,-3.0158234,-0.86434937,-6.5185657,8.308192,7.593506
1570715172,-8.238968,0.26486206,3.8404846,0.22538757,-3.0158234,-0.86434937,-6.5185657,8.308192,7.593506
1570715172,-8.238968,0.26486206,3.8404846,0.22538757,-3.0158234,-0.86434937,-6.5185657,8.308192,7.593506
1570715172,-8.238968,0.26486206,3.8404846,0.22538757,-3.0158234,-0.86434937,-6.5185657,8.308192,7.593506
1570715172,-8.238968,0.26486206,3.8404846,0.22538757,-3.0158234,-0.86434937,-6.5185657,8.308192,7.593506
1570715172,-8.238968,0.26486206,3.8404846,0.22538757,-3.0158234,-0.86434937,-6.5185657,8.308192,7.593506
1570715172,-8.238968,0.26486206,3.8404846,0.22538757,-3.0158234,-0.86434937,-6.5185657,8.308192,7.593506
1570715172,-8.238968,0.26486206,3.8404846,0.22538757,-3.0158234,-0.86434937,-6.5185657,8.308192,7.593506
1570715172,-8.238968,0.26486206,3.8404846,0.22538757,-3.0158234,-0.86434937,-6.5185657,8.308192,7.593506
1570715172,-8.238968,0.26486206,3.8404846,0.22538757,-3.0158234,-0.86434937,-6.5185657,8.308192,7.593506
1570715172,-8.238968,0.26486206,3.8404846,0.22538757,-3.0158234,-0.86434937,-6.5185657,8.308192,7.593506
1570715172,-8.238968,0.26486206,3.8404846,0.22538757,-3.0158234,-0.86434937,-6.5185657,8.308192,7.593506
1570715172,-8.238968,0.26486206,3.8404846,0.22538757,-3.0158234,-0.86434937,-6.5185657,8.308192,7.593506
1570715172,-8.238968,0.26486206,3.8404846,0.22538757,-3.0158234,-0.86434937,-6.5185657,8.308192,7.593506
1570715172,-8.238968,0.26486206,3.8404846,0.22538757,-3.0158234,-0.86434937,-6.5185657,8.308192,7.593506
1570715172,-8.238968,0.26486206,3.8404846,0.22538757,-3.0158234,-0.86434937,-6.5185657,8.308192,7.593506
1570715172,-8.238968,0.26486206,3.8404846,0.22538757,-3.0158234,-0.86434937,-6.5185657,8.308192,7.593506
1570715172,-8.238968,0.26486206,3.8404846,0.22538757,-3.0158234,-0.86434937,-6.5185657,8.308192,7.593506
1570715172,-8.238968,0.26486206,3.8404846,0.22538757,-3.0158234,-0.86434937,-6.5185657,8.308192,7.593506
1570715172,-8.238968,0.26486206,3.8404846,0.22538757,-3.0158234,-0.86434937,-6.5185657,8.308192,7.593506
1570715172,-8.238968,0.26486206,3.8404846,0.22538757,-3.0158234,-0.86434937,-6.5185657,8.308192,7.593506
1570715172,-8.238968,0.26486206,3.8404846,0.22538757,-3.0158234,-0.86434937,-6.5185657,8.308192,7.593506
1570715172,-8.238968,0.26486206,3.8404846,0.22538757,-3.0158234,-0.86434937,-6.5185657,8.308192,7.593506
1570715172,-8.238968,0.26486206,3.8404846,0.22538757,-3.0158234,-0.86434937,-6.5185657,8.308192,7.593506
1570715172,-8.238968,0.26486206,3.8404846,0.22538757,-3.0158234,-0.86434937,-6.5185657,8.308192,7.593506
1570715172,-8.238968,0.26486206,3.8404846,0.22538757,-3.0158234,-0.86434937,-6.5185657,8.308192,7.593506
1570715172,-8.238968,0.26486206,3.8404846,0.22538757,-3.0158234,-0.86434937,-6.5185657,8.308192,7.593506
1570715172,-8.238968,0.26486206,3.8404846,0.22538757,-3.0158234,-0.86434937,-6.5185657,8.308192,7.593506
1570715172,-8.238968,0.26486206,3.8404846,0.22538757,-3.0158234,-0.86434937,-6.5185657,8.308192,7.593506
1570715172,-8.238968,0.26486206,3.8404846,0.22538757,-3.0158234,-0.86434937,-6.5185657,8.308192,7.593506
1570715172,-8.238968,0.26486206,3.8404846,0.22538757,-3.0158234,-0.86434937,-6.5185657,8.308192,7.593506
1570715172,-8.238968,0.26486206,3.8404846,0.22538757,-3.0158234,-0.86434937,-6.5185657,8.308192,7.593506
1570715172,-8.238968,0.26486206,3.8404846,0.22538757,-3.0158234,-0.86434937,-6.5185657,8.308192,7.593506
1570715172,-8.238968,0.26486206,3.8404846,0.22538757,-3.0158234,-0.86434937,-6.5185657,8.308192,7.593506
1570715172,-8.238968,0.26486206,3.8404846,0.22538757,-3.0158234,-0.86434937,-6.5185657,8.308192,7.593506
1570715172,-8.238968,0.26486206,3.8404846,0.22538757,-3.0158234,-0.86434937,-6.5185657,8.308192,7.593506
1570715172,-8.238968,0.26486206,3.8404846,0.22538757,-3.0158234,-0.86434937,-6.5185657,8.308192,7.593506
1570715172,-8.238968,0.26486206,3.8404846,0.22538757,-3.0158234,-0.86434937,-6.5185657,8.308192,7.593506
1570715172,-8.238968,0.26486206,3.8404846,0.22538757,-3.0158234,-0.86434937,-6.5185657,8.308192,7.593506
1570715172,-8.238968,0.26486206,3.8404846,0.22538757,-3.0158234,-0.86434937,-6.5185657,8.308192,7.593506
1570715172,-8.238968,0.26486206,3.8404846,0.22538757,-3.0158234,-0.86434937,-6.5185657,8.308192,7.593506
1570715172,-8.238968,0.26486206,3.8404846,0.22538757,-3.0158234,-0.86434937,-6.5185657,8.308192,7.593506
1570715172,-8.238968,0.26486206,3.8404846,0.22538757,-3.0158234,-0.86434937,-6.5185657,8.308192,7.593506
1570715172,-8.238968,0.26486206,3.8404846,0.22538757,-3.0158234,-0.86434937,-6.5185657,8.308192,7.593506
1570715172,-8.238968,0.26486206,3.8404846,0.22538757,-3.0158234,-0.86434937,-6.5185657,8.308192,7.593506
1570715172,-8.238968,0.26486206,3.8404846,0.22538757,-3.0158234,-0.86434937,-6.5185657,8.308192,7.593506
1570715172,-8.238968,0.26486206,3.8404846,0.22538757,-3.0158234,-0.86434937,-6.5185657,8.308192,7.593506
1570715172,-8.238968,0.26486206,3.8404846,0.22538757,-3.0158234,-0.86434937,-6.5185657,8.308192,7.593506
1570715172,-8.238968,0.26486206,3.8404846,0.22538757,-3.0158234,-0.86434937,-6.5185657,8.308192,7.593506
1570715172,-8.238968,0.26486206,3.8404846,0.22538757,-3.0158234,-0.86434937,-6.5185657,8.308192,7.593506
1570715172,-8.238968,0.26486206,3.8404846,0.22538757,-3.0158234,-0.86434937,-6.5185657,8.308192,7.593506
1570715172,-8.238968,0.26486206,3.8404846,0.22538757,-3.0158234,-0.86434937,-6.5185657,8.308192,7.593506
1570715172,-8.238968,0.26486206,3.8404846,0.22538757,-3.0158234,-0.86434937,-6.5185657,8.308192,7.593506
1570715172,-8.238968,0.26486206,3.8404846,0.22538757,-3.0158234,-0.86434937,-6.5185657,8.308192,7.593506
1570715172,-8.238968,0.26486206,3.8404846,0.22538757,-3.0158234,-0.86434937,-6.5185657,8.308192,7.593506
1570715172,-8.238968,0.26486206,3.8404846,0.22538757,-3.0158234,-0.86434937,-6.5185657,8.308192,7.593506
1570715172,-8.238968,0.26486206,3.8404846,0.22538757,-3.0158234,-0.86434937,-6.5185657,8.308192,7.593506
1570715172,-8.238968,0.26486206,3.8404846,0.22538757,-3.0158234,-0.86434937,-6.5185657,8.308192,7.593506
1570715172,-8.238968,0.26486206,3.8404846,0.22538757,-3.0158234,-0.86434937,-6.5185657,8.308192,7.593506
1570715172,-8.238968,0.26486206,3.8404846,0.22538757,-3.0158234,-0.86434937,-6.5185657,8.308192,7.593506
1570715172,-8.238968,0.26486206,3.8404846,0.22538757,-3.0158234,-0.86434937,-6.5185657,8.308192,7.593506
1570715172,-8.238968,0.26486206,3.8404846,0.22538757,-3.0158234,-0.86434937,-6.5185657,8.308192,7.593506
1570715172,-8.238968,0.26486206,3.8404846,0.22538757,-3.0158234,-0.86434937,-6.5185657,8.308192,7.593506
1570715172,-8.238968,0.26486206,3.8404846,0.22538757,-3.0158234,-0.86434937,-6.5185657,8.308192,7.593506
1570715172,-8.238968,0.26486206,3.8404846,0.22538757,-3.0158234,-0.86434937,-6.5185657,8.308192,7.593506
1570715172,-8.238968,0.26486206,3.8404846,0.22538757,-3.0158234,-0.86434937,-6.5185657,8.308192,7.593506
1570715172,-8.238968,0.26486206,3.8404846,0.22538757,-3.0158234,-0.86434937,-6.5185657,8.308192,7.593506
1570715172,-8.238968,0.26486206,3.8404846,0.22538757,-3.0158234,-0.86434937,-6.5185657,8.308192,7.593506
1570715172,-8.238968,0.26486206,3.8404846,0.22538757,-3.0158234,-0.86434937,-6.5185657,8.308192,7.593506
1570715172,-8.238968,0.26486206,3.8404846,0.22538757,-3.0158234,-0.86434937,-6.5185657,8.308192,7.593506
1570715172,-8.238968,0.26486206,3.8404846,0.22538757,-3.0158234,-0.86434937,-6.5185657,8.308192,7.593506
1570715172,-8.238968,0.26486206,3.8404846,0.22538757,-3.0158234,-0.86434937,-6.5185657,8.308192,7.593506
1570715172,-8.238968,0.26486206,3.8404846,0.22538757,-3.0158234,-0.86434937,-6.5185657,8.308192,7.593506
1570715172,-8.238968,0.26486206,3.8404846,0.22538757,-3.0158234,-0.86434937,-6.5185657,8.308192,7.593506
1570715172,-8.238968,0.26486206,3.8404846,0.22538757,-3.0158234,-0.86434937,-6.5185657,8.308192,7.593506
1570715172,-8.238968,0.26486206,3.8404846,0.22538757,-3.0158234,-0.86434937,-6.5185657,8.308192,7.593506
1570715172,-8.238968,0.26486206,3.8404846,0.22538757,-3.0158234,-0.86434937,-6.5185657,8.308192,7.593506
1570715172,-8.238968,0.26486206,3.8404846,0.22538757,-3.0158234,-0.86434937,-6.5185657,8.308192,7.593506
1570715172,-8.238968,0.26486206,3.8404846,0.22538757,-3.0158234,-0.86434937,-6.5185657,8.308192,7.593506
1570715172,-8.238968,0.26486206,3.8404846,0.22538757,-3.0158234,-0.86434937,-6.5185657,8.308192,7.593506
1570715172,-8.238968,0.26486206,3.8404846,0.22538757,-3.0158234,-0.86434937,-6.5185657,8.308192,7.593506
1570715172,-8.238968,0.26486206,3.8404846,0.22538757,-3.0158234,-0.86434937,-6.5185657,8.308192,7.593506
1570715172,-8.238968,0.26486206,3.8404846,0.22538757,-3.0158234,-0.86434937,-6.5185657,8.308192,7.593506
1570715172,-8.238968,0.26486206,3.8404846,0.22538757,-3.0158234,-0.86434937,-6.5185657,8.308192,7.593506
1570715172,-8.238968,0.26486206,3.8404846,0.22538757,-3.0158234,-0.86434937,-6.5185657,8.308192,7.593506
1570715172,-8.238968,0.26486206,3.8404846,0.22538757,-3.0158234,-0.86434937,-6.5185657,8.308192,7.593506
1570715172,-8.238968,0.26486206,3.8404846,0.22538757,-3.0158234,-0.86434937,-6.5185657,8.308192,7.593506
1570715172,-8.238968,0.26486206,3.8404846,0.22538757,-3.0158234,-0.86434937,-6.5185657,8.308192,7.593506
1570715172,-8.238968,0.26486206,3.8404846,0.22538757,-3.0158234,-0.86434937,-6.5185657,8.308192,7.593506
1570715172,-8.238968,0.26486206,3.8404846,0.22538757,-3.0158234,-0.86434937,-6.5185657,8.308192,7.593506
1570715172,-8.238968,0.26486206,3.8404846,0.22538757,-3.0158234,-0.86434937,-6.5185657,8.308192,7.593506
1570715172,-8.238968,0.26486206,3.8404846,0.22538757,-3.0158234,-0.86434937,-6.5185657,8.308192,7.593506
1570715172,-8.238968,0.26486206,3.8404846,0.22538757,-3.0158234,-0.86434937,-6.5185657,8.308192,7.593506
1570715172,-8.238968,0.26486206,3.8404846,0.22538757,-3.0158234,-0.86434937,-6.5185657,8.308192,7.593506
1570715172,-8.238968,0.26486206,3.8404846,0.22538757,-3.0158234,-0.86434937,-6.5185657,8.308192,7.593506
1570715172,-8.238968,0.26486206,3.8404846,0.22538757,-3.0158234,-0.86434937,-6.5185657,8.308192,7.593506
1570715172,-8.238968,0.26486206,3.8404846,0.22538757,-3.0158234,-0.86434937,-6.5185657,8.308192,7.593506
1570715172,-8.238968,0.26486206,3.8404846,0.22538757,-3.0158234,-0.86434937,-6.5185657,8.308192,7.593506
1570715172,-8.238968,0.26486206,3.8404846,0.22538757,-3.0158234,-0.86434937,-6.5185657,8.308192,7.593506
1570715172,-8.238968,0.26486206,3.8404846,0.22538757,-3.0158234,-0.86434937,-6.5185657,8.308192,7.593506
1570715172,-8.238968,0.26486206,3.8404846,0.22538757,-3.0158234,-0.86434937,-6.5185657,8.308192,7.593506
1570715172,-8.238968,0.26486206,3.8404846,0.22538757,-3.0158234,-0.86434937,-6.5185657,8.308192,7.593506
1570715172,-8.238968,0.26486206,3.8404846,0.22538757,-3.0158234,-0.86434937,-6.5185657,8.308192,7.593506
1570715172,-8.238968,0.26486206,3.8404846,0.22538757,-3.0158234,-0.86434937,-6.5185657,8.308192,7.593506
1570715172,-8.238968,0.26486206,3.8404846,0.22538757,-3.0158234,-0.86434937,-6.5185657,8.308192,7.593506
1570715172,-8.238968,0.26486206,3.8404846,0.22538757,-3.0158234,-0.86434937,-6.5185657,8.308192,7.593506
1570715172,-8.238968,0.26486206,3.8404846,0.22538757,-3.0158234,-0.86434937,-6.5185657,8.308192,7.593506
1570715172,-8.238968,0.26486206,3.8404846,0.22538757,-3.0158234,-0.86434937,-6.5185657,8.308192,7.593506
1570715172,-8.238968,0.26486206,3.8404846,0.22538757,-3.0158234,-0.86434937,-6.5185657,8.308192,7.593506
1570715172,-8.238968,0.26486206,3.8404846,0.22538757,-3.0158234,-0.86434937,-6.5185657,8.308192,7.593506
1570715172,-8.238968,0.26486206,3.8404846,0.22538757,-3.0158234,-0.86434937,-6.5185657,8.308192,7.593506
1570715172,-8.238968,0.26486206,3.8404846,0.22538757,-3.0158234,-0.86434937,-6.5185657,8.308192,7.593506
1570715172,-8.238968,0.26486206,3.8404846,0.22538757,-3.0158234,-0.86434937,-6.5185657,8.308192,7.593506
1570715172,-8.238968,0.26486206,3.8404846,0.22538757,-3.0158234,-0.86434937,-6.5185657,8.308192,7.593506
1570715172,-8.238968,0.26486206,3.8404846,0.22538757,-3.0158234,-0.86434937,-6.5185657,8.308192,7.593506
1570715172,-8.238968,0.26486206,3.8404846,0.22538757,-3.0158234,-0.86434937,-6.5185657,8.308192,7.593506
1570715172,-8.238968,0.26486206,3.8404846,0.22538757,-3.0158234,-0.86434937,-6.5185657,8.308192,7.593506
1570715172,-8.238968,0.26486206,3.8404846,0.22538757,-3.0158234,-0.86434937,-6.5185657,8.308192,7.593506
1570715172,-8.238968,0.26486206,3.8404846,0.22538757,-3.0158234,-0.86434937,-6.5185657,8.308192,7.593506
1570715172,-8.238968,0.26486206,3.8404846,0.22538757,-3.0158234,-0.86434937,-6.5185657,8.308192,7.593506
1570715172,-8.238968,0.26486206,3.8404846,0.22538757,-3.0158234,-0.86434937,-6.5185657,8.308192,7.593506
1570715172,-8.238968,0.26486206,3.8404846,0.22538757,-3.0158234,-0.86434937,-6.5185657,8.308192,7.593506
1570715172,-8.238968,0.26486206,3.8404846,0.22538757,-3.0158234,-0.86434937,-6.5185657,8.308192,7.593506
1570715172,-8.238968,0.26486206,3.8404846,0.22538757,-3.0158234,-0.86434937,-6.5185657,8.308192,7.593506
1570715172,-8.238968,0.26486206,3.8404846,0.22538757,-3.0158234,-0.86434937,-6.5185657,8.308192,7.593506
1570715172,-8.238968,0.26486206,3.8404846,0.22538757,-3.0158234,-0.86434937,-6.5185657,8.308192,7.593506
1570715172,-8.238968,0.26486206,3.8404846,0.22538757,-3.0158234,-0.86434937,-6.5185657,8.308192,7.593506
1570715172,-8.238968,0.26486206,3.8404846,0.22538757,-3.0158234,-0.86434937,-6.5185657,8.308192,7.593506
1570715172,-8.238968,0.26486206,3.8404846,0.22538757,-3.0158234,-0.86434937,-6.5185657,8.308192,7.593506
1570715172,-8.238968,0.26486206,3.8404846,0.22538757,-3.0158234,-0.86434937,-6.5185657,8.308192,7.593506
1570715172,-8.238968,0.26486206,3.8404846,0.22538757,-3.0158234,-0.86434937,-6.5185657,8.308192,7.593506
1570715172,-8.238968,0.26486206,3.8404846,0.22538757,-3.0158234,-0.86434937,-6.5185657,8.308192,7.593506
1570715172,-8.238968,0.26486206,3.8404846,0.22538757,-3.0158234,-0.86434937,-6.5185657,8.308192,7.593506
1570715172,-8.238968,0.26486206,3.8404846,0.22538757,-3.0158234,-0.86434937,-6.5185657,8.308192,7.593506
1570715172,-8.238968,0.26486206,3.8404846,0.22538757,-3.0158234,-0.86434937,-6.5185657,8.308192,7.593506
1570715172,-8.238968,0.26486206,3.8404846,0.22538757,-3.0158234,-0.86434937,-6.5185657,8.308192,7.593506
1570715172,-8.238968,0.26486206,3.8404846,0.22538757,-3.0158234,-0.86434937,-6.5185657,8.308192,7.593506
1570715172,-8.238968,0.26486206,3.8404846,0.22538757,-3.0158234,-0.86434937,-6.5185657,8.308192,7.593506
1570715172,-8.238968,0.26486206,3.8404846,0.22538757,-3.0158234,-0.86434937,-6.5185657,8.308192,7.593506
1570715172,-8.238968,0.26486206,3.8404846,0.22538757,-3.0158234,-0.86434937,-6.5185657,8.308192,7.593506
1570715172,-8.238968,0.26486206,3.8404846,0.22538757,-3.0158234,-0.86434937,-6.5185657,8.308192,7.593506
1570715172,-5.6125336,-7.357071,-10.23262,0.22538757,-3.0158234,-0.86434937,-11.420112,-10.657711,10.5698185
1570715172,6.881607,-10.001465,-20.564804,0.22538757,-3.0158234,-0.86434937,-0.068258524,9.23144,-3.0690885
1570715172,5.6091003,-18.506866,4.980133,0.22538757,-3.0158234,-0.86434937,3.54849,-0.324131,-8.759614
1570715172,6.0687866,-23.10254,3.5460052,3.3444824,-2.5375214,-0.103759766,3.54849,-0.324131,-8.759614
1570715172,6.0687866,-23.10254,3.5460052,1.3439178,2.3648224,1.3141022,3.54849,-0.324131,-8.759614
1570715172,6.0687866,-23.10254,3.5460052,2.3921356,-0.13002014,0.06774902,3.54849,-0.324131,-8.759614
1570715172,4.098358,-0.9717407,-5.9769287,-1.441742,-0.6488037,-0.06967163,6.7423573,7.3386908,-7.9885902
1570715172,-0.788208,-0.18284607,-3.8221588,-2.1224518,-1.4424286,-0.082458496,1.5486139,8.132531,-5.5446806
1570715172,-0.7690582,-1.3488312,-0.5145569,-2.714737,-1.8088837,0.40863037,0.7645353,7.413725,-2.0760264
1570715172,2.074051,-15.607498,-2.7220154,-3.66922,-1.9047546,-0.09310913,3.8047948,-4.662678,-2.1721988
1570715172,-4.167633,-38.36917,3.5220642,-4.0633698,-1.2954254,-1.603653,2.9553251,-27.904293,4.1100473
1570715173,-12.009842,-20.587433,-2.190506,-2.619934,2.532074,-0.2624817,-10.461455,-11.126119,0.17054558
1570715173,-6.6336517,-20.365967,15.329071,-1.5653229,2.9741516,-0.96875,-8.461692,-11.877796,10.377533
1570715173,9.450592,-17.964584,-5.270645,-1.9125977,-1.8749237,-0.7503662,9.493017,-10.183944,-1.2796066
1570715173,0.58247375,-11.798325,6.605789,-1.6803741,-3.7210236,-0.45210266,3.8241363,-4.549947,6.6585712
1570715173,-7.1974945,-3.22229,7.367157,-1.0071259,-4.5785675,-0.4212036,-5.2060275,3.8014755,10.512321
1570715173,-6.0829926,4.762375,4.7371216,0.5066223,-2.5833282,-0.0068206787,-4.7428985,12.916083,7.8394084
1570715173,-5.136078,6.4179688,5.0459747,2.3058472,0.25027466,-0.04197693,-3.1512706,14.920826,8.635361
1570715173,-0.19804382,1.2728271,-2.7100525,3.275238,2.4511108,-0.14103699,0.39075518,10.61782,0.5563179
1570715173,5.023712,-4.7414093,-11.385437,2.458191,5.130249,-0.63105774,6.404024,5.591793,-8.218862
1570715173,1.4048767,-5.0658264,-6.361206,0.27545166,1.9035645,-0.4915161,2.3017888,2.8192997,-5.5308027
1570715173,3.2460175,-1.3691711,-1.9750214,-0.469162,0.70407104,-0.5277405,4.2115736,7.033638,-1.1854491
1570715173,-8.240173,-14.000977,-6.5718994,-1.8188477,1.6606903,-0.92614746,-3.7763107,-1.6489124,1.6409992
1570715173,-6.013565,-19.828476,12.092102,-0.20285034,3.3001251,0.89120483,-8.917503,-15.561869,13.163249
1570715173,-1.6201935,-2.0982056,15.101624,2.0065155,1.7970428,0.9380646,-0.34020787,7.0137825,16.210701
1570715173,-2.503662,-23.989594,7.969284,2.445404,2.963501,1.9426117,-1.8451931,-11.077679,8.023013
1570715173,-1.9541931,-29.993057,10.103729,1.8925323,2.4287415,1.7615204,-1.3895829,-16.95366,9.359764
1570715184,-1.9541931,-29.993057,10.103729,1.8925323,2.4287415,1.7615204,-1.731787,8.884185,-5.148817
1570715184,-1.9541931,-29.993057,10.103729,1.8925323,2.4287415,1.7615204,-1.731787,8.884185,-5.148817
1570715184,-1.9541931,-29.993057,10.103729,1.8925323,2.4287415,1.7615204,-1.731787,8.884185,-5.148817
1570715184,-1.9541931,-29.993057,10.103729,1.8925323,2.4287415,1.7615204,-1.731787,8.884185,-5.148817
1570715184,-1.9541931,-29.993057,10.103729,1.8925323,2.4287415,1.7615204,-8.509051,-12.988201,-1.4755921
1570715184,-1.9541931,-29.993057,10.103729,1.8925323,2.4287415,1.7615204,1.2674778,-10.010962,7.0213823
1570715184,-1.9541931,-29.993057,10.103729,1.8925323,2.4287415,1.7615204,1.2674778,-10.010962,7.0213823
1570715184,-1.9541931,-29.993057,10.103729,1.8925323,2.4287415,1.7615204,1.2674778,-10.010962,7.0213823
1570715184,-1.9541931,-29.993057,10.103729,1.8925323,2.4287415,1.7615204,1.2674778,-10.010962,7.0213823
1570715184,-1.9541931,-29.993057,10.103729,1.8925323,2.4287415,1.7615204,1.2674778,-10.010962,7.0213823
1570715184,-1.9541931,-29.993057,10.103729,1.8925323,2.4287415,1.7615204,1.2674778,-10.010962,7.0213823
1570715184,-1.9541931,-29.993057,10.103729,1.8925323,2.4287415,1.7615204,1.2674778,-10.010962,7.0213823
1570715184,-1.9541931,-29.993057,10.103729,1.8925323,2.4287415,1.7615204,4.8394437,-9.792944,-2.243774
1570715184,-1.9541931,-29.993057,10.103729,1.8925323,2.4287415,1.7615204,-1.9944056,16.213764,9.723572
1570715184,-1.9541931,-29.993057,10.103729,1.8925323,2.4287415,1.7615204,-1.9944056,16.213764,9.723572
1570715184,-1.9541931,-29.993057,10.103729,1.8925323,2.4287415,1.7615204,-1.9944056,16.213764,9.723572
1570715184,-1.9541931,-29.993057,10.103729,1.8925323,2.4287415,1.7615204,-1.9944056,16.213764,9.723572
1570715184,-1.9541931,-29.993057,10.103729,1.8925323,2.4287415,1.7615204,-1.9944056,16.213764,9.723572
1570715184,-1.9541931,-29.993057,10.103729,1.8925323,2.4287415,1.7615204,-1.9944056,16.213764,9.723572
1570715184,-1.9541931,-29.993057,10.103729,1.8925323,2.4287415,1.7615204,-1.9944056,16.213764,9.723572
1570715184,-1.9541931,-29.993057,10.103729,1.8925323,2.4287415,1.7615204,2.8667283,2.2794943,-7.746878
1570715184,-1.9541931,-29.993057,10.103729,1.8925323,2.4287415,1.7615204,1.6026313,4.0803947,4.812652
1570715184,-1.9541931,-29.993057,10.103729,1.8925323,2.4287415,1.7615204,1.6026313,4.0803947,4.812652
1570715184,-1.9541931,-29.993057,10.103729,1.8925323,2.4287415,1.7615204,1.6026313,4.0803947,4.812652
1570715184,-1.9541931,-29.993057,10.103729,1.8925323,2.4287415,1.7615204,1.6026313,4.0803947,4.812652
1570715184,-1.9541931,-29.993057,10.103729,1.8925323,2.4287415,1.7615204,1.6026313,4.0803947,4.812652
1570715184,-1.9541931,-29.993057,10.103729,1.8925323,2.4287415,1.7615204,1.6026313,4.0803947,4.812652
1570715184,-1.9541931,-29.993057,10.103729,1.8925323,2.4287415,1.7615204,-4.5108356,-12.787058,14.722812
1570715184,-1.9541931,-29.993057,10.103729,1.8925323,2.4287415,1.7615204,5.149996,-11.189207,5.883556
1570715184,-1.9541931,-29.993057,10.103729,1.8925323,2.4287415,1.7615204,5.149996,-11.189207,5.883556
1570715184,-1.9541931,-29.993057,10.103729,1.8925323,2.4287415,1.7615204,5.149996,-11.189207,5.883556
1570715184,-1.9541931,-29.993057,10.103729,1.8925323,2.4287415,1.7615204,5.149996,-11.189207,5.883556
1570715184,-1.9541931,-29.993057,10.103729,1.8925323,2.4287415,1.7615204,5.149996,-11.189207,5.883556
1570715184,-1.9541931,-29.993057,10.103729,1.8925323,2.4287415,1.7615204,5.149996,-11.189207,5.883556
1570715184,-1.9541931,-29.993057,10.103729,1.8925323,2.4287415,1.7615204,13.643822,5.494858,-7.9868007
1570715184,-1.9541931,-29.993057,10.103729,1.8925323,2.4287415,1.7615204,13.643822,5.494858,-7.9868007
1570715184,-1.9541931,-29.993057,10.103729,1.8925323,2.4287415,1.7615204,13.643822,5.494858,-7.9868007
1570715184,-1.9541931,-29.993057,10.103729,1.8925323,2.4287415,1.7615204,13.643822,5.494858,-7.9868007
1570715184,-1.9541931,-29.993057,10.103729,1.8925323,2.4287415,1.7615204,13.643822,5.494858,-7.9868007
1570715184,-1.9541931,-29.993057,10.103729,1.8925323,2.4287415,1.7615204,13.643822,5.494858,-7.9868007
1570715184,-1.9541931,-29.993057,10.103729,1.8925323,2.4287415,1.7615204,13.643822,5.494858,-7.9868007
1570715184,-1.9541931,-29.993057,10.103729,1.8925323,2.4287415,1.7615204,0.7137611,-0.8896637,-1.5355914
1570715184,-1.9541931,-29.993057,10.103729,1.8925323,2.4287415,1.7615204,0.7137611,-0.8896637,-1.5355914
1570715184,-1.9541931,-29.993057,10.103729,1.8925323,2.4287415,1.7615204,0.7137611,-0.8896637,-1.5355914
1570715184,-1.9541931,-29.993057,10.103729,1.8925323,2.4287415,1.7615204,0.7137611,-0.8896637,-1.5355914
1570715184,-1.9541931,-29.993057,10.103729,1.8925323,2.4287415,1.7615204,0.7137611,-0.8896637,-1.5355914
1570715184,-1.9541931,-29.993057,10.103729,1.8925323,2.4287415,1.7615204,0.7137611,-0.8896637,-1.5355914
1570715184,-1.9541931,-29.993057,10.103729,1.8925323,2.4287415,1.7615204,1.26434,-7.726815,-3.814254
1570715184,-1.9541931,-29.993057,10.103729,1.8925323,2.4287415,1.7615204,3.8920164,-5.397393,8.871027
1570715184,-1.9541931,-29.993057,10.103729,1.8925323,2.4287415,1.7615204,3.8920164,-5.397393,8.871027
1570715184,-1.9541931,-29.993057,10.103729,1.8925323,2.4287415,1.7615204,3.8920164,-5.397393,8.871027
1570715184,-1.9541931,-29.993057,10.103729,1.8925323,2.4287415,1.7615204,3.8920164,-5.397393,8.871027
1570715184,-1.9541931,-29.993057,10.103729,1.8925323,2.4287415,1.7615204,3.8920164,-5.397393,8.871027
1570715184,-1.9541931,-29.993057,10.103729,1.8925323,2.4287415,1.7615204,3.8920164,-5.397393,8.871027
1570715184,-1.9541931,-29.993057,10.103729,1.8925323,2.4287415,1.7615204,1.8420788,-3.7572727,7.9246316
1570715184,-1.9541931,-29.993057,10.103729,1.8925323,2.4287415,1.7615204,1.229135,10.107401,3.6283364
1570715184,-1.9541931,-29.993057,10.103729,1.8925323,2.4287415,1.7615204,1.229135,10.107401,3.6283364
1570715184,-1.9541931,-29.993057,10.103729,1.8925323,2.4287415,1.7615204,1.229135,10.107401,3.6283364
1570715184,-1.9541931,-29.993057,10.103729,1.8925323,2.4287415,1.7615204,1.229135,10.107401,3.6283364
1570715184,-1.9541931,-29.993057,10.103729,1.8925323,2.4287415,1.7615204,1.229135,10.107401,3.6283364
1570715184,-1.9541931,-29.993057,10.103729,1.8925323,2.4287415,1.7615204,1.229135,10.107401,3.6283364
1570715184,-1.9541931,-29.993057,10.103729,1.8925323,2.4287415,1.7615204,1.229135,10.107401,3.6283364
1570715184,-1.9541931,-29.993057,10.103729,1.8925323,2.4287415,1.7615204,1.229135,10.107401,3.6283364
1570715184,7.4418488,-22.238235,-3.586319,1.8925323,2.4287415,1.7615204,8.426141,5.259554,-11.971669
1570715184,4.106735,-20.529968,-9.156433,1.8925323,2.4287415,1.7615204,8.426141,5.259554,-11.971669
1570715184,4.106735,-20.529968,-9.156433,1.8925323,2.4287415,1.7615204,8.426141,5.259554,-11.971669
1570715184,4.106735,-20.529968,-9.156433,1.8925323,2.4287415,1.7615204,8.426141,5.259554,-11.971669
1570715184,4.106735,-20.529968,-9.156433,1.8925323,2.4287415,1.7615204,8.426141,5.259554,-11.971669
1570715184,4.106735,-20.529968,-9.156433,1.8925323,2.4287415,1.7615204,8.426141,5.259554,-11.971669
1570715184,4.106735,-20.529968,-9.156433,1.8925323,2.4287415,1.7615204,8.426141,5.259554,-11.971669
1570715184,4.106735,-20.529968,-9.156433,1.8925323,2.4287415,1.7615204,8.426141,5.259554,-11.971669
1570715184,4.106735,-20.529968,-9.156433,1.8925323,2.4287415,1.7615204,8.426141,5.259554,-11.971669
1570715184,-5.610138,-7.6156464,-7.5379486,1.8925323,2.4287415,1.7615204,8.426141,5.259554,-11.971669
1570715184,-3.2829742,-7.346298,-7.5379486,1.8925323,2.4287415,1.7615204,8.426141,5.259554,-11.971669
1570715184,-3.2829742,-7.346298,-7.5379486,1.8925323,2.4287415,1.7615204,8.426141,5.259554,-11.971669
1570715184,-3.2829742,-7.346298,-7.5379486,1.8925323,2.4287415,1.7615204,8.426141,5.259554,-11.971669
1570715184,-3.2829742,-7.346298,-7.5379486,1.8925323,2.4287415,1.7615204,8.426141,5.259554,-11.971669
1570715184,-3.2829742,-7.346298,-7.5379486,1.8925323,2.4287415,1.7615204,8.426141,5.259554,-11.971669
1570715184,-3.2829742,-7.346298,-7.5379486,1.8925323,2.4287415,1.7615204,8.426141,5.259554,-11.971669
1570715184,-3.2829742,-7.346298,-7.5379486,1.8925323,2.4287415,1.7615204,8.426141,5.259554,-11.971669
1570715184,-3.2829742,-7.346298,-7.5379486,1.8925323,2.4287415,1.7615204,8.426141,5.259554,-11.971669
1570715184,11.017593,-3.7514038,-10.179962,1.8925323,2.4287415,1.7615204,8.426141,5.259554,-11.971669
1570715184,8.734726,-4.439743,-8.90863,1.8925323,2.4287415,1.7615204,8.426141,5.259554,-11.971669
1570715184,8.734726,-4.439743,-8.90863,1.8925323,2.4287415,1.7615204,8.426141,5.259554,-11.971669
1570715184,8.734726,-4.439743,-8.90863,1.8925323,2.4287415,1.7615204,8.426141,5.259554,-11.971669
1570715184,8.734726,-4.439743,-8.90863,1.8925323,2.4287415,1.7615204,8.426141,5.259554,-11.971669
1570715184,8.734726,-4.439743,-8.90863,1.8925323,2.4287415,1.7615204,8.426141,5.259554,-11.971669
1570715184,8.734726,-4.439743,-8.90863,1.8925323,2.4287415,1.7615204,8.426141,5.259554,-11.971669
1570715184,8.734726,-4.439743,-8.90863,1.8925323,2.4287415,1.7615204,8.426141,5.259554,-11.971669
1570715184,8.734726,-4.439743,-8.90863,1.8925323,2.4287415,1.7615204,8.426141,5.259554,-11.971669
1570715184,-2.8735657,0.8047638,-4.8779907,1.8925323,2.4287415,1.7615204,8.426141,5.259554,-11.971669
1570715184,-3.1213684,0.75567627,-3.8652496,1.8925323,2.4287415,1.7615204,8.426141,5.259554,-11.971669
1570715184,-3.1213684,0.75567627,-3.8652496,1.8925323,2.4287415,1.7615204,8.426141,5.259554,-11.971669
1570715184,-3.1213684,0.75567627,-3.8652496,1.8925323,2.4287415,1.7615204,8.426141,5.259554,-11.971669
1570715184,-3.1213684,0.75567627,-3.8652496,1.8925323,2.4287415,1.7615204,8.426141,5.259554,-11.971669
1570715184,-3.1213684,0.75567627,-3.8652496,1.8925323,2.4287415,1.7615204,8.426141,5.259554,-11.971669
1570715184,-3.1213684,0.75567627,-3.8652496,1.8925323,2.4287415,1.7615204,8.426141,5.259554,-11.971669
1570715184,-3.1213684,0.75567627,-3.8652496,1.8925323,2.4287415,1.7615204,8.426141,5.259554,-11.971669
1570715184,-3.1213684,0.75567627,-3.8652496,1.8925323,2.4287415,1.7615204,8.426141,5.259554,-11.971669
1570715184,3.9774475,-38.080673,2.2471466,1.8925323,2.4287415,1.7615204,8.426141,5.259554,-11.971669
1570715184,2.2392578,-38.414658,5.3656006,1.8925323,2.4287415,1.7615204,8.426141,5.259554,-11.971669
1570715184,2.2392578,-38.414658,5.3656006,1.8925323,2.4287415,1.7615204,8.426141,5.259554,-11.971669
1570715184,2.2392578,-38.414658,5.3656006,1.8925323,2.4287415,1.7615204,8.426141,5.259554,-11.971669
1570715184,2.2392578,-38.414658,5.3656006,1.8925323,2.4287415,1.7615204,8.426141,5.259554,-11.971669
1570715184,2.2392578,-38.414658,5.3656006,1.8925323,2.4287415,1.7615204,8.426141,5.259554,-11.971669
1570715184,2.2392578,-38.414658,5.3656006,1.8925323,2.4287415,1.7615204,8.426141,5.259554,-11.971669
1570715184,2.2392578,-38.414658,5.3656006,1.8925323,2.4287415,1.7615204,8.426141,5.259554,-11.971669
1570715184,2.2392578,-38.414658,5.3656006,1.8925323,2.4287415,1.7615204,8.426141,5.259554,-11.971669
1570715184,-8.7513275,-20.209152,-1.2160645,1.8925323,2.4287415,1.7615204,8.426141,5.259554,-11.971669
1570715184,-3.736679,-19.355621,12.960007,1.8925323,2.4287415,1.7615204,8.426141,5.259554,-11.971669
1570715184,-3.736679,-19.355621,12.960007,1.8925323,2.4287415,1.7615204,8.426141,5.259554,-11.971669
1570715184,-3.736679,-19.355621,12.960007,1.8925323,2.4287415,1.7615204,8.426141,5.259554,-11.971669
1570715184,-3.736679,-19.355621,12.960007,1.8925323,2.4287415,1.7615204,8.426141,5.259554,-11.971669
1570715184,-3.736679,-19.355621,12.960007,1.8925323,2.4287415,1.7615204,8.426141,5.259554,-11.971669
1570715184,-3.736679,-19.355621,12.960007,1.8925323,2.4287415,1.7615204,8.426141,5.259554,-11.971669
1570715184,-3.736679,-19.355621,12.960007,1.8925323,2.4287415,1.7615204,8.426141,5.259554,-11.971669
1570715184,-3.736679,-19.355621,12.960007,1.8925323,2.4287415,1.7615204,8.426141,5.259554,-11.971669
1570715184,8.865204,-15.345322,-2.0025635,1.8925323,2.4287415,1.7615204,8.426141,5.259554,-11.971669
1570715184,-2.7478638,-9.101257,6.8571777,1.8925323,2.4287415,1.7615204,8.426141,5.259554,-11.971669
1570715184,-2.7478638,-9.101257,6.8571777,1.8925323,2.4287415,1.7615204,8.426141,5.259554,-11.971669
1570715184,-2.7478638,-9.101257,6.8571777,1.8925323,2.4287415,1.7615204,8.426141,5.259554,-11.971669
1570715184,-2.7478638,-9.101257,6.8571777,1.8925323,2.4287415,1.7615204,8.426141,5.259554,-11.971669
1570715184,-2.7478638,-9.101257,6.8571777,1.8925323,2.4287415,1.7615204,8.426141,5.259554,-11.971669
1570715184,-2.7478638,-9.101257,6.8571777,1.8925323,2.4287415,1.7615204,8.426141,5.259554,-11.971669
1570715184,-2.7478638,-9.101257,6.8571777,1.8925323,2.4287415,1.7615204,8.426141,5.259554,-11.971669
1570715184,-2.7478638,-9.101257,6.8571777,1.8925323,2.4287415,1.7615204,8.426141,5.259554,-11.971669
1570715184,-5.709488,-4.498398,6.54834,1.8925323,2.4287415,1.7615204,8.426141,5.259554,-11.971669
1570715184,-3.4182434,7.993347,7.04393,1.8925323,2.4287415,1.7615204,8.426141,5.259554,-11.971669
1570715184,-3.4182434,7.993347,7.04393,1.8925323,2.4287415,1.7615204,8.426141,5.259554,-11.971669
1570715184,-3.4182434,7.993347,7.04393,1.8925323,2.4287415,1.7615204,8.426141,5.259554,-11.971669
1570715184,-3.4182434,7.993347,7.04393,1.8925323,2.4287415,1.7615204,8.426141,5.259554,-11.971669
1570715184,-3.4182434,7.993347,7.04393,1.8925323,2.4287415,1.7615204,8.426141,5.259554,-11.971669
1570715184,-3.4182434,7.993347,7.04393,1.8925323,2.4287415,1.7615204,8.426141,5.259554,-11.971669
1570715184,-3.4182434,7.993347,7.04393,1.8925323,2.4287415,1.7615204,8.426141,5.259554,-11.971669
1570715184,-3.4182434,7.993347,7.04393,1.8925323,2.4287415,1.7615204,8.426141,5.259554,-11.971669
1570715184,-3.633728,7.0931244,5.433838,1.8925323,2.4287415,1.7615204,8.426141,5.259554,-11.971669
1570715184,3.8361816,-6.1958923,-12.106094,1.8925323,2.4287415,1.7615204,8.426141,5.259554,-11.971669
1570715184,3.8361816,-6.1958923,-12.106094,1.8925323,2.4287415,1.7615204,8.426141,5.259554,-11.971669
1570715184,3.8361816,-6.1958923,-12.106094,1.8925323,2.4287415,1.7615204,8.426141,5.259554,-11.971669
1570715184,3.8361816,-6.1958923,-12.106094,1.8925323,2.4287415,1.7615204,8.426141,5.259554,-11.971669
1570715184,3.8361816,-6.1958923,-12.106094,1.8925323,2.4287415,1.7615204,8.426141,5.259554,-11.971669
1570715184,3.8361816,-6.1958923,-12.106094,1.8925323,2.4287415,1.7615204,8.426141,5.259554,-11.971669
