time,ax,ay,az,gx,gy,gz,la_x,la_y,la_z,fox,foy,foz
1570715145,8.470686,-4.975151,2.7820623,0.30041373,-1.9015551,-0.03835069,0.79487497,-0.47884035,-0.9576807
1570715145,8.815451,-3.8115692,1.5849615,0.98433435,-1.4466733,-0.37178862,1.0582372,0.32561144,-1.8914193
1570715145,8.494628,-1.9728222,2.585738,0.3504827,-0.43464115,-0.14914156,0.5554548,2.0350714,-1.4796166
1570715145,7.4603324,-3.466804,3.2848446,-0.26206306,0.21625528,0.4932325,-0.44532153,0.79487497,-0.61770403
1570715145,6.9527617,-3.083732,5.1906295,-0.2801731,0.3185238,0.6604841,-1.0103531,1.2641385,1.3263878
1570715145,7.2687964,-4.548983,5.161899,-0.5177343,-0.36326626,0.6168069,-0.9528923,0.18195933,1.4460979
1570715145,7.843405,-4.012682,2.9161377,-0.79151565,-0.87993526,0.7307937,-0.02873042,0.63206923,0.10055647
1570715145,6.919243,-3.9264908,1.6567876,-1.2996622,-0.4836448,1.2932705,-0.8523358,1.1587936,-1.4796166
1570715145,7.417237,-4.76925,1.3311762,-1.1792837,-0.5134731,1.8355067,-0.12928689,0.80924016,-1.4939818
1570715145,8.628703,-7.086837,0.8762778,-0.46979594,-0.4570124,1.7236505,1.3503298,-1.0295067,-1.6807296
1570715145,7.3789296,-6.205771,2.6671407,-0.351548,0.16192514,1.3859513,0.37349546,0.18674773,0.16280572
1570715145,6.14831,-6.813898,0.61770403,-0.6231987,0.04154658,1.5563989,-0.5506664,-0.06703765,-1.7908629
1570715145,6.895301,-7.2209125,-0.32561144,0.019175345,-0.1736434,1.7481523,0.5267244,-0.1340753,-2.6479871
1570715145,6.727707,-7.5225816,2.8921957,0.6658106,0.8138869,2.2040994,0.8331822,-0.08619126,0.39743748
1570715145,4.31914,-8.078036,2.8778305,0.0010652969,0.8309316,1.6384267,-1.067814,-0.34955344,0.15322891
1570715145,3.821146,-2.7581203,2.0398598,-0.9822038,2.0997002,1.7705235,-1.0390835,5.281609,-0.7661445
1570715145,3.0885203,-9.691729,5.9280434,-0.8351928,1.5233747,0.7467731,-1.2976574,-1.4030021,3.0597897
1570715145,3.6343982,-10.19451,4.3957543,-0.9577019,-0.3185238,0.60828453,-0.5746084,-1.7525556,1.7190368
1570715145,3.845088,-11.271901,1.0821792,-1.2527891,-0.7851238,0.68924713,-0.23463176,-2.657564,-1.2258313
1570715145,6.019023,-13.862428,-1.6089035,-1.0194892,-0.15446806,0.12783563,2.006341,-5.1235914,-3.5577838
1570715146,4.2521024,-12.785037,-0.033518825,-0.25993246,0.16618632,-0.14594568,0.30166942,-4.4101195,-2.4229321
1570715146,3.9504328,-10.357317,-0.7661445,0.81921333,0.77447087,-0.81495214,-0.19632454,-1.6998832,-2.7629087
1570715146,5.889736,-6.631939,6.2728086,0.8596946,0.012783563,0.14701098,1.6232687,1.8674773,3.8881836
1570715146,3.5865142,-8.892065,2.8060043,0.02769772,-0.8266704,0.36965802,-0.23463176,-0.062249243,1.2593501
1570715146,4.367024,-8.935161,1.4748282,0.18429637,-0.39522517,0.10652969,-0.06703765,-0.51235914,-0.9576807
1570715146,3.9121256,-9.141062,2.0685902,-0.21412468,-0.30041373,0.1747087,-0.33039984,-0.50757074,0.47884035
1570715146,2.9831753,-8.566454,2.0638018,-0.14488038,-0.3898987,0.02769772,-2.0111294,-1.5753847,-0.8523358
1570715146,3.5577838,-8.470686,1.7717092,0.005326485,-0.28123838,0.07244019,-0.59855044,0.15801731,-0.47884035
1570715146,3.7732618,-9.160215,1.6472107,0.040481284,-0.02450183,0.26419365,-0.04309563,-0.23463176,-0.6847417
1570715146,3.1316159,-8.90643,2.456451,0.045807768,-0.03089361,0.14914156,-1.0869676,-0.48362875,0.22026655
1570715146,3.107674,-6.7229185,5.746084,-0.39096397,-0.31745848,0.10120321,-1.0055647,1.1540052,2.2649148
1570715146,2.2122424,-5.7748146,0.9624691,-1.2698339,-0.71587956,-0.067113705,-1.7908629,2.858677,-0.3878607
1570715146,3.2082303,-5.626374,0.33518824,-1.2570504,-0.3057402,-0.5827174,-1.4700398,2.9113493,-1.0103531
1570715146,3.6008794,-8.441956,-0.22984336,-0.653027,-0.04900366,-0.8724782,-1.2210429,0.37828386,-1.2210429
1570715146,5.2480903,-7.929596,0.49799395,-0.0085223755,0.12890093,-1.1334759,0.49799395,0.5793968,-0.5650316
1570715146,5.2480903,-7.929596,0.49799395,-0.0085223755,0.12890093,-1.1334759,0.49799395,0.5793968,-0.5650316
1570715146,4.525041,-8.5473,1.6089035,0.9065677,0.527322,0.57632565,-0.19153613,0.038307227,0.06703765
1570715146,4.525041,-8.5473,1.6089035,0.9065677,0.527322,0.57632565,-0.19153613,0.038307227,0.06703765
1570715146,4.2664676,-8.628703,2.8874073,0.53904027,0.22797355,0.71055305,-0.24899697,-0.21547815,1.0869676
1570715146,3.4332852,-9.715671,2.5330653,0.43144527,0.12570503,0.7126837,-0.6751649,-0.7565677,0.8619126
1570715146,3.7684734,-10.998962,3.8833952,0.15446806,0.068179004,0.16725162,-0.45489833,-2.0350714,1.2354081
1570715146,4.2281604,-10.429143,2.0973208,-0.4527512,-0.721206,0.08202787,-0.24420857,-2.1499932,0.35913026
1570715146,4.2760444,-10.845734,1.5227122,-0.14488038,-0.24501829,-0.094811425,0.23463176,-2.0733786,-0.4309563
1570715146,3.9552212,-9.490616,1.9009962,0.2056023,-0.1054644,0.050068956,-0.20590134,-0.89064306,-0.40701428
1570715146,4.697424,-9.26556,2.5091233,0.2066676,-0.14594568,0.23969181,0.48362875,-0.5410896,0.33039984
1570715146,4.189853,-9.188946,2.4947581,-0.040481284,-0.14381509,0.28549957,0.36391866,-0.44532153,0.5506664
1570715146,3.1794999,-8.350976,2.0159178,-0.04154658,-0.18855755,0.15659864,-0.8858546,0.33518824,0.0047884034
1570715146,3.6583402,-8.676587,1.5227122,-0.17683929,-0.27271602,0.14914156,-0.33997664,0.06703765,-0.39264908
1570715146,4.1611223,-8.647857,1.6089035,-0.2428877,-0.1736434,0.26525894,0.19632454,0.12928689,-0.22505496
1570715146,3.8546648,-8.90643,1.4508862,-0.19068815,-0.13103153,0.3100014,-0.04309563,-0.08140286,-0.31124622
1570715146,3.8881836,-9.193734,1.7142484,-0.067113705,-0.19175345,0.26525894,0.047884032,-0.33039984,-0.009576807
1570715146,4.2760444,-8.844181,1.958457,-0.063917816,-0.15872924,0.351548,0.51235914,0.047884032,0.2633622
1570715146,4.381389,-8.12592,1.8770541,-0.13103153,-0.24927948,0.25354066,0.6847417,0.80445176,0.22984336
1570715146,4.999093,-8.207323,1.9871874,-0.020240642,-0.18536167,0.35793978,1.3694834,0.7613561,0.38307226
1570715147,3.193865,-9.457097,2.7820623,-0.14701098,-0.35367858,0.12996623,-0.38307226,-0.45968673,1.2210429
1570715147,5.0613422,-8.552089,1.0247183,-0.063917816,-0.39629045,0.1747087,1.484405,0.45968673,-0.44532153
1570715147,3.86903,-9.356541,1.5179238,0.12783563,-0.22158176,0.409074,0.34955344,-0.320823,0.038307227
1570715147,3.122039,-9.868899,2.1643584,0.02130594,-0.3163932,0.1725781,-0.33518824,-0.80924016,0.6799533
1570715147,3.787627,-8.748413,1.2306197,0.16512102,-0.4857754,0.44209823,0.37828386,0.32561144,-0.23942018
1570715147,2.360683,-10.199299,1.8339585,0.19175345,-0.33343795,0.3462215,-0.7086837,-1.115698,0.4261679
1570715147,3.0502129,-9.390059,0.9768343,0.2119941,-0.6626147,0.42931467,0.25857377,-0.07182605,-0.16280572
1570715147,3.6343982,-8.834604,1.9249382,0.33663383,-0.58378273,0.2759119,-0.39264908,-0.21547815,0.2681506
1570715147,4.7022123,-8.6334915,1.8052281,0.61467636,-0.5571503,0.43357584,1.8004397,0.8571242,0.15322891
1570715147,1.0103531,-10.113108,1.9249382,0.95131016,-0.31532788,0.22158176,-1.283292,-0.842759,0.34476504
1570715147,5.1523223,-6.967127,2.8538885,1.0961906,-0.43357584,0.044742472,1.1300632,1.412579,0.18195933
1570715147,5.315128,-6.579266,3.3758245,1.1718266,-0.24608359,0.1736434,2.681506,2.2218192,1.2018893
1570715147,2.054225,-8.686164,4.8985367,0.91615534,-0.67539823,0.22371235,0.10534488,0.4261679,2.1643584
1570715147,2.801216,-6.38773,5.559336,0.7041613,-0.62213343,-0.0042611877,-0.51714754,2.303222,3.0358477
1570715147,4.975151,-5.6215854,6.0716953,1.2336138,-0.5315832,0.16512102,1.6998832,3.1986535,3.2752678
1570715147,3.0358477,-6.9048777,5.142745,0.5475626,-0.7595567,0.11292148,1.1013328,2.4277205,1.7381904
1570715147,2.528277,1.0199299,0.34955344,-0.09694202,-1.1718266,-0.07563608,-0.35913026,8.0445175,-1.5658079
1570715147,-1.6472107,-12.287044,0.095768064,-0.24927948,0.49855897,0.3877681,-4.2904096,-0.6847417,-3.3039982
1570715147,0.05267244,-9.701305,4.984728,0.5933704,0.85756403,0.30893612,-4.8027687,-4.1611223,2.1021092
1570715147,6.05733,-9.3661175,2.3989902,0.42824936,0.45807767,-0.12144385,3.1747115,0.6703765,-1.661576
1570715147,3.3375173,-12.5982895,2.8395233,-0.3462215,1.0162933,0.11079088,1.2449849,-3.3039982,-0.272939
1570715147,0.59855044,-13.800179,4.1611223,-0.6999001,0.46340418,0.50388545,-2.4037786,-5.5258174,1.091756
1570715147,1.8100165,-12.435484,2.9592333,-0.6988348,0.839454,0.40800872,-0.7326257,-3.4859576,-0.1388637
1570715147,-1.1827357,-12.995727,3.9504328,-1.0525134,1.3891472,0.64450467,-3.3566709,-3.8881836,1.0055647
1570715147,1.9776106,-12.176909,5.923255,-1.4637179,1.5276358,0.65196174,-0.79008657,-3.0789435,2.8107927
1570715147,4.098873,-12.928689,6.1243677,-1.6650591,1.8610737,0.83732337,2.4468741,-3.5625722,3.7301662
1570715147,3.7972038,-12.727576,4.8267107,-1.7683929,1.2623769,1.0983212,2.8060043,-3.145981,4.477157
1570715147,5.3342814,-8.896853,6.6846113,-1.6458838,0.94704896,0.8362581,4.4196963,0.7469909,5.1666875
1570715147,5.765238,-4.5633483,6.775591,-1.4093878,0.02450183,0.6168069,5.0661306,5.1571107,5.693412
1570715147,4.7644615,-1.4269443,4.721366,-0.56780326,-0.6200028,0.6029581,4.6926355,7.642292,4.7022123
1570715147,2.4516625,2.4516625,2.3175871,0.25141007,-0.6572882,0.2109288,2.0398598,12.220005,1.6136919
1570715147,1.3790601,3.3614593,1.3694834,1.704475,-0.8522375,-0.39309457,0.90500826,13.101071,0.35913026
1570715147,-1.541866,0.5506664,4.2042184,2.4938602,-0.6572882,-0.839454,-2.2266076,10.189722,2.5474305
1570715148,0.51235914,-11.7268,6.0381765,2.6280875,-1.4381509,-1.7087363,-0.6560113,-2.27928,3.667917
1570715148,-0.33039984,-33.628956,7.7093296,2.4981213,-1.0525134,-2.1795976,-2.2601264,-24.507048,4.6591167
1570715148,2.1164744,-15.9262295,0.36391866,2.1582916,-2.231797,-0.64663523,-0.22505496,-7.0724716,-3.1411927
1570715148,6.4499793,-4.050989,-1.5705963,2.1774669,-3.0233128,-2.256299,3.4045548,4.462792,-5.3582234
1570715148,10.175357,-19.61809,12.148179,1.4360203,-0.92254716,-1.9462975,6.4547677,-11.540052,8.00621
1570715148,6.4978633,-17.731459,1.5131354,1.2996622,-0.43037996,-1.2155038,2.336741,-9.969456,-2.8060043
1570715148,-0.5410896,-9.552865,0.9672575,1.0951252,-1.306054,-1.054644,-5.0996494,-2.1404164,-3.5529952
1570715148,0.79487497,-4.76925,4.462792,-0.091615535,-0.32811147,0.30147904,-3.9264908,2.552219,-0.02873042
1570715148,1.1540052,-4.209007,3.8355112,-0.74570787,0.30467492,1.2964664,-3.3614593,3.2992098,-0.5602432
1570715148,-1.067814,-2.360683,0.6655881,-1.3987349,0.44103295,1.765197,-5.161899,5.5162406,-3.490746
1570715148,-0.62249243,0.110133275,1.7525556,-1.0375992,1.0897988,1.2826176,-4.2425256,8.312668,-2.2122424
1570715148,0.39264908,-2.5378537,1.5705963,-1.0482522,1.2186997,0.6583535,-2.8682537,5.8705826,-2.2744915
1570715148,1.9297266,-3.0454245,1.2354081,-0.98966086,1.1835449,0.10013791,-1.6089035,5.6407394,-1.5753847
1570715148,3.53863,-15.538369,3.1890767,0.07563608,2.733552,-0.53690964,0.6368576,-6.933608,-0.521936
1570715148,4.1371803,-16.888699,0.61770403,0.3504827,-0.8042992,-1.7129974,1.6472107,-17.48725,1.2401965
1570715148,0.7613561,-9.059659,1.8770541,0.41866168,0.36220095,0.74570787,-2.6671407,1.9057846,-0.23942018
1570715148,-2.2984335,-18.100164,4.060566,-1.1206924,2.7026584,0.8042992,-4.098873,-8.422802,-0.8714894
1570715148,4.060566,-18.167202,6.8905125,-1.0503827,0.839454,0.120378554,-0.7757214,-9.356541,1.1875241
1570715148,3.6248214,-12.674904,5.995081,-2.0134113,1.5159175,0.6295905,2.2601264,-4.5537715,1.5993267
1570715148,0.50278234,-12.397177,8.8777,-2.0389783,1.8845103,1.2186997,-1.8531121,-2.944868,5.865794
1570715148,6.1100025,-10.496181,6.26802,-2.1902504,1.8024824,0.6253293,3.643975,-1.9393034,1.9201498
1570715148,6.991069,-4.3766007,6.6654577,-1.8685309,0.6231987,0.3856375,5.2385135,4.3239284,3.7253778
1570715148,8.025364,-2.4420857,5.707777,-0.9097636,-0.06285252,0.5486279,6.9240313,6.4260373,3.9791632
1570715148,6.3302693,3.3279405,5.5162406,0.16299044,-0.30147904,0.47938362,5.731719,11.894394,4.261679
1570715148,3.4045548,5.4204726,2.6001031,1.4413468,-1.1441289,0.17896989,3.3375173,14.954184,1.7142484
1570715148,-1.388637,2.336741,0.41180268,2.0251296,-1.474371,-0.3185238,-1.4317327,13.129802,-2.1691468
1570715148,-3.4045548,-6.0381765,4.0797195,2.1550958,-1.2964664,-1.7982212,-4.4915223,4.879383,0.2873042
1570715148,-3.0933087,-27.087997,9.179369,1.9111427,-1.2186997,-3.3120081,-5.243302,-10.204087,1.5514427
1570715148,5.1810527,-36.774937,0.5650316,0.9246777,-0.35367858,-4.362391,1.9632454,-28.242002,-3.0454245
1570715148,7.479486,-9.524135,-1.6903064,2.536472,-2.2808008,-0.33769912,3.7110126,-1.3982137,-5.6886234
1570715148,19.804836,-12.306197,10.582372,1.8749226,-1.0972558,-2.3915915,13.891158,-0.63206923,2.7964275
1570715148,9.959879,-14.015656,10.845734,0.2769772,0.41013932,-1.4232367,5.046977,-6.8043213,6.3589997
1570715148,2.9975405,-14.4609785,-0.81402856,0.5944357,-0.33024204,-0.95450604,-2.1547816,-7.465121,-5.363012
1570715149,-0.5746084,-4.4675803,0.641646,0.21732058,-0.91295946,-0.39309457,-5.995081,2.3415294,-3.8738184
1570715149,-1.2210429,-1.8962077,2.4229321,-0.5923051,-0.4112046,1.1633042,-6.612785,5.046977,-1.910573
1570715149,-4.1371803,-1.7429788,1.7956513,-1.0770152,0.6839206,1.8866409,-9.121908,5.568913,-2.4229321
1570715149,-4.9081135,2.4612393,2.0350714,-1.2730298,0.77766675,1.2751604,-9.399636,10.146626,-2.0733786
1570715149,3.8402996,0.78529817,-0.023942016,-1.1473248,0.7180101,-0.08522376,-0.48841715,8.690952,-3.8738184
1570715149,5.363012,-2.0685902,-3.4859576,-0.82134396,1.7779806,-0.49429777,1.0773908,5.889736,-7.28795
1570715149,6.2488666,-27.135881,12.919112,0.49003658,1.6320349,-0.2056023,2.1404164,-19.115307,9.040505
1570715149,3.9360676,-13.9917145,2.9496565,0.80749506,-0.6285252,-0.5475626,2.6527755,-17.051504,-1.3742718
1570715149,3.3901896,-1.4221559,4.8027687,-1.2549198,1.324164,0.37498453,-0.5746084,6.5601125,0.7134721
1570715149,5.3007627,-20.796036,5.6886234,-1.3902125,2.5705614,-0.36326626,1.6567876,-12.612655,1.685518
1570715149,12.899959,-22.203827,6.2009826,-1.7321728,-0.04261188,1.3944737,8.676587,-15.720328,4.855441
1570715149,1.8674773,-10.117896,7.1969705,-2.0144765,0.74996907,1.9835829,-0.8619126,-1.292869,3.8977604
1570715149,2.3989902,-8.226477,5.6407394,-2.9285014,0.9246777,0.71055305,0.05746084,0.8762778,4.620809
1570715149,6.823475,-1.5610195,5.90889,-2.2126217,0.2780425,0.1054644,3.169923,6.3781533,3.064578
1570715149,8.7532015,4.4244847,3.466804,-0.18749227,-0.07776668,0.4527512,6.0764837,13.8241205,1.757344
1570715149,6.4978633,6.9383965,4.285621,1.0780805,-0.36326626,0.67646354,4.912902,16.112978,2.542642
1570715149,1.3311762,5.6359506,2.4899697,1.8738573,-1.0791458,0.6114804,0.19632454,15.533581,0.31124622
1570715149,-1.6759412,-1.6807296,1.9488802,2.083721,-1.7385646,-0.38883337,-3.2513258,9.006987,-0.9528923
1570715149,-2.5091233,-10.55843,2.8491,1.6054025,-1.4274979,-2.0112805,-5.2480903,-0.35434186,-0.272939
1570715149,-6.459556,-35.649662,14.973337,2.6930707,-1.8940979,-3.1831071,-9.801862,-21.025879,9.600749
1570715149,7.4124484,-19.407398,-0.7661445,0.8991106,-0.07137489,-3.4068196,1.4221559,-15.02601,-2.408567
1570715149,7.2304893,-5.171476,-0.80445176,2.20623,-2.6792219,-0.8309316,2.4372973,0.81881696,-5.109226
1570715149,15.05474,-12.071565,16.089035,2.5119703,0.68605125,-2.2051647,8.743625,1.0247183,8.451532
1570715149,11.48738,-16.280571,4.745308,0.380311,0.4868407,-1.1430637,7.608773,-10.82658,2.1883004
1570715149,6.885724,-14.45619,-0.6464345,1.0770152,-0.41226992,-0.54649734,2.2170308,-8.791509,-5.568913
1570715149,1.9728222,-5.5018754,2.1164744,-0.0085223755,-1.9058162,-0.012783563,-3.596091,-0.7038953,-3.3854012
1570715149,0.6560113,-0.8619126,4.841076,-0.9118942,-0.53797495,1.2421362,-5.291186,4.4101195,0.51714754
1570715149,-2.5234885,0.023942016,3.0933087,-0.9577019,0.7925809,1.9995624,-7.6614456,6.172252,-0.6560113
1570715149,-3.8019924,4.309563,2.3223755,-1.191002,0.034089502,1.0961906,-9.89763,10.91756,-2.1978772
1570715149,0.7230489,1.3838485,-1.0726024,-0.9449184,0.17151281,-0.023436533,-5.2002063,8.925584,-4.2281604
1570715149,2.633622,-5.827487,-9.677363,-0.95983255,2.6355445,-0.24608359,-2.4133554,4.477157,-13.029245
1570715149,14.762648,-46.643837,14.504074,0.9694202,0.9150901,-1.1782184,9.77792,-39.34631,10.242394
1570715149,4.6016555,-3.7062242,6.0046577,0.23010413,-0.65196174,0.84904164,0.320823,3.3566709,4.10845
1570715149,2.7150247,-14.369999,4.10845,-1.8056782,1.9164692,0.9289389,-2.2361844,-7.029376,-0.110133275
1570715150,1.685518,-20.499155,5.841852,-1.3465353,0.62213343,0.9726161,-2.8682537,-12.804191,1.8100165
1570715150,12.545617,-10.429143,9.969456,-1.7129974,0.25034478,1.0088362,8.197746,-2.4756045,6.220136
1570715150,4.1419687,-10.922348,8.504205,-1.7886336,1.3678412,2.0869167,0.29688102,-2.5570073,5.118803
1570715150,2.6671407,-10.01734,7.4986396,-2.191316,1.0141627,1.3188376,-0.58897364,-1.2641385,4.4963107
1570715150,4.1659107,-2.801216,4.9559975,-2.216883,0.12570503,0.23436533,1.0869676,6.181829,2.5187001
1570715150,6.885724,-0.5315128,3.596091,-1.2815522,-0.29295665,0.71055305,3.9217024,8.6095495,1.6519991
1570715150,5.7508726,3.4524388,3.6391866,0.08415846,0.11824796,0.6604841,2.992752,12.689269,1.8387469
1570715150,1.4556746,6.301539,3.3997664,1.3369477,-0.4857754,0.44635943,-1.1587936,15.533581,1.3838485
1570715150,-2.5761611,3.6535518,1.1013328,1.9185997,-1.4104532,-0.23116943,-5.2241483,12.780249,-1.3024458
1570715150,-2.657564,-1.6759412,5.645528,2.1124837,-1.1792837,-1.7896988,-5.707777,7.192182,2.7868507
1570715150,-1.13964,-11.765107,4.5298295,2.152965,-1.0375992,-3.021182,-4.9703627,-3.3518825,1.2545617
1570715150,12.512098,-35.218708,11.405977,3.2896369,-2.4512482,-3.7754123,7.6231384,-27.59557,7.632715
1570715150,10.146626,-14.537593,-2.2505496,2.7942739,-1.0706234,-0.8778047,4.745308,-7.5082164,-6.4499793
1570715150,11.118672,0.2825158,4.8027687,3.124516,-0.39629045,-1.9079468,7.1251445,4.9895163,0.18195933
1570715150,15.974113,-17.630901,14.398729,1.1814142,0.21518998,-1.6874304,10.46745,-10.630256,10.457873
1570715150,8.12592,-14.858416,3.596091,0.4836448,-0.26632422,-0.95557135,1.8195933,-9.308656,-1.4700398
1570715150,3.5290532,-6.5696893,-0.58897364,1.0322727,-1.0109668,-0.020240642,-2.111686,-4.1419687,-5.9424086
1570715150,4.7500963,-2.0590134,3.6631286,-0.674333,-0.81601745,1.0461216,-1.6472107,2.6192567,-1.6519991
1570715150,1.8052281,-0.31124622,4.2760444,-1.3582536,-0.39735577,1.9292527,-4.19943,5.3247046,-0.36391866
1570715150,-2.2122424,0.47884035,1.4796166,-1.1792837,0.0063917814,1.5649211,-7.273585,6.9862804,-1.9536686
1570715150,-4.9081135,-2.183512,0.40222588,-0.67539823,0.21412468,0.85330284,-10.5680065,4.7500963,-3.4811692
1570715150,-0.58418524,-2.0685902,-2.3989902,-1.3784943,0.75742614,0.60189277,-7.1634517,4.9655743,-6.2249246
1570715150,3.2273839,-9.260772,-1.1779473,-1.5915536,2.6419363,0.92148185,-2.2936451,-0.15322891,-7.943961
1570715150,16.869545,-16.371552,6.5218053,0.50708133,-0.243953,-2.101831,12.282255,-19.153614,6.5122285
1570715150,1.1971009,-3.265691,4.687847,0.09374613,0.3078708,-0.29295665,-3.6822822,2.9161377,1.3024458
1570715150,2.3319526,-19.55105,7.599196,-0.9033718,2.9306319,0.9992485,-3.0119057,-8.1402855,-0.10534488
1570715150,9.054871,-18.047493,6.6367273,-1.5872924,1.0312074,0.653027,2.5617957,-13.053187,-1.043872
1570715150,9.136273,-10.6158905,8.264784,-2.2328625,-0.10972559,0.7595567,5.3725886,-2.327164,6.1195793
1570715150,1.283292,-14.398729,7.809886,-2.7601843,1.600076,1.8472248,-1.5370775,-5.544971,4.213795
1570715150,5.631162,-11.022904,6.742072,-2.7133112,1.5297664,1.2506586,0.81881696,-3.2704794,3.739743
1570715150,7.8912888,-2.5234885,6.7708025,-2.4661624,0.29189137,0.3835069,4.5298295,5.4444146,4.5441947
1570715150,6.6654577,0.090979666,6.4068837,-1.6117942,0.02769772,0.64237404,3.7588966,8.901642,4.4580035
1570715150,6.622362,1.8195933,4.1611223,-0.5827174,-0.37604982,0.5241261,4.003105,10.462662,3.3901896
1570715151,4.9320555,5.8705826,1.3120226,0.81175625,-0.60828453,0.44422883,2.767697,14.944607,-0.10534488
1570715151,-0.3878607,4.879383,0.45010993,2.0229988,-1.2868787,0.41226992,-1.8052281,15.035586,-1.1492168
1570715151,-2.7150247,0.4165911,1.9153614,2.4842725,-1.553203,-0.5986969,-5.568913,10.419566,-0.3878607
1570715151,0.009576807,-11.391612,6.3111157,3.439844,-1.5936842,-1.5372235,-3.1268275,-2.5570073,3.4284968
1570715151,2.7724855,-34.28497,15.270219,2.5354066,-1.3465353,-3.6518378,-1.1779473,-26.077644,11.63582
1570715151,8.078036,-16.85518,-0.5554548,1.4051267,-1.1324106,-2.0656106,3.3327289,-9.155427,-4.343082
1570715151,8.978256,-5.2528787,1.3742718,2.3734815,-0.6295905,-1.2240262,3.7493198,2.0159178,-2.6192567
1570715151,16.55351,-15.016433,11.827356,1.406192,-0.5571503,-1.8110048,11.027693,-8.303091,7.2831616
1570715151,13.081918,-13.053187,1.2306197,0.73931605,-0.43570644,-1.2922052,7.1730285,-6.6846113,-3.323152
1570715151,2.5713725,-8.566454,1.4030021,0.7627526,-0.9332001,-0.6999001,-3.6152446,-2.4995465,-3.1890767
1570715151,-0.6607997,-2.3558946,3.2273839,-0.25460598,-0.3824416,0.46127358,-6.9383965,3.6774938,-1.2737153
1570715151,-5.056554,-0.062249243,1.5801731,-0.692443,0.49003658,1.8301802,-11.099519,6.2632318,-2.8395233
1570715151,-7.1251445,3.667917,1.9057846,-1.1281495,0.6210681,2.0549579,-12.636597,10.491392,-2.4708161
1570715151,2.0494366,3.040636,1.2114661,-1.0674275,-0.19494934,0.04154658,-3.3183637,10.16578,-2.8491
1570715151,5.6407394,-0.5506664,-1.685518,0.14381509,0.54330146,-0.5603462,0.21068975,6.5361705,-5.7365074
1570715151,10.965444,-18.497602,1.0247183,-0.80749506,2.6057162,-0.33343795,3.347094,-5.161899,-10.386047
1570715151,6.0046577,-14.997279,-0.36870706,0.75742614,-0.36113566,-0.26525894,9.509769,-19.713858,-5.046977
1570715151,1.8866309,-7.2448545,3.2752678,-1.0993865,0.40055165,0.7680791,-3.3039982,-0.19632454,-1.1444284
1570715151,-0.17717093,-17.908628,3.0214825,-2.2296665,1.2719646,0.34089503,-4.6351743,-9.126697,1.5993267
1570715151,14.537593,-17.089811,14.159308,-1.4658486,0.8724782,1.0418605,9.888053,-9.476251,10.0748005
1570715151,7.273585,-8.710106,6.143522,-2.0815902,1.0578399,1.9292527,5.5737014,-0.6895301,3.8546648
1570715151,2.3175871,-11.042058,7.019799,-2.5641696,1.4445426,1.1015171,-1.8483237,-2.3511062,5.2720323
1570715151,7.690176,-6.789956,6.5218053,-2.6099775,0.8138869,0.31745848,3.3039982,0.2777274,3.0023289
1570715151,8.791509,-0.1340753,5.8705826,-1.9814523,0.08096257,0.7371855,5.659893,8.623915,4.3718123
1570715151,8.303091,2.255338,5.410896,-0.6253293,0.31319728,0.986465,4.9081135,10.6877165,2.8491
1570715151,3.5242648,6.2105594,2.6910827,0.2098635,-0.39522517,0.98433435,2.111686,15.543158,1.6041151
1570715151,-0.7517793,4.654328,-0.20111294,1.3476006,-1.7992865,0.15127216,-3.490746,14.130578,-2.657564
1570715151,-2.111686,0.5506664,3.3854012,2.2296665,-1.392343,-1.0482522,-5.056554,10.333375,-0.02873042
1570715151,-1.7812861,-7.129933,2.834735,2.2733436,-1.2719646,-1.8802491,-5.2959743,3.016694,1.3838485
1570715151,2.8107927,-38.130054,14.800955,3.9234886,-2.604651,-2.1401815,-1.1875241,-19.88624,9.093178
1570715151,9.375694,-22.869415,-1.7669208,0.9236124,-0.046873067,-3.476064,3.1986535,-20.015526,-3.3087866
1570715151,9.677363,-8.90643,-1.0582372,2.9231749,-2.658981,-0.44849002,3.8115692,-4.027047,-5.482722
1570715151,14.053964,-9.68694,16.323668,2.083721,1.0599705,-1.4051267,8.317456,0.0047884034,9.380483
1570715152,6.933608,-13.608643,4.280833,0.23436533,-0.9907262,-1.2112426,1.9393034,-7.3549876,1.4413095
1570715152,3.0885203,-13.268666,0.10534488,0.74038136,-0.44422883,-0.5997622,-2.3894134,-8.106767,-4.0653543
1570715152,1.6376339,-3.9217024,0.110133275,0.30893612,-0.78192794,0.67646354,-4.8123455,1.9009962,-4.429273
1570715152,2.2601264,-1.5179238,2.930503,-1.1089741,-0.15766394,1.7609358,-4.0557775,4.5872903,-1.4173675
1570715152,-1.8004397,2.6767175,1.6472107,-1.6693203,1.5265706,1.9068816,-6.9144545,8.710106,-3.122039
1570715152,-1.2976574,1.1731589,2.528277,-1.3081846,0.7766015,0.9736814,-6.7085533,8.283937,-1.5035586
1570715152,2.2026656,-2.2697031,2.231396,-0.3877681,-0.11824796,-0.14168449,-3.643975,4.975151,-1.8770541
1570715152,5.023035,-4.6112323,-3.2034419,-0.5177343,1.4083226,-0.068179004,-0.31124622,2.657564,-7.0485296
1570715152,8.887277,-22.548592,6.5361705,0.56354207,2.289323,0.13422741,3.8786068,-15.14572,2.4899697
1570715152,2.944868,-9.461885,3.5577838,0.46660006,-0.18429637,-0.2119941,-2.2409728,-2.3127987,-0.6991069
1570715152,0.5554548,-11.688493,1.4413095,-1.1132354,1.0237503,0.8937841,-4.486734,-4.414908,-2.7868507
1570715152,3.9983168,-20.398598,5.1523223,-1.6022066,1.8568126,0.5017549,-0.59855044,-12.785037,1.0199299
1570715152,14.33648,-15.485697,7.383718,-2.4693582,0.88952297,0.75316495,10.0269165,-7.5800424,3.4811692
1570715152,5.0613422,-12.397177,10.462662,-2.471489,1.1057782,1.6128596,1.2114661,-4.050989,7.029376
1570715152,3.9121256,-8.255207,6.7612257,-3.164997,0.61467636,0.7371855,0.45010993,0.48841715,3.98874
1570715152,5.5162406,-1.9057846,6.3302693,-2.3915915,0.36113566,0.37285393,2.2026656,7.086837,4.2521024
1570715152,5.779603,0.16759412,5.12838,-1.4115185,-0.012783563,0.8714129,2.6479871,9.323022,3.5338416
1570715152,5.12838,2.4420857,3.8163576,-0.33876443,-0.07883197,0.78725445,1.9967642,11.712435,2.4516625
1570715152,3.4332852,6.0525417,3.6822822,0.965159,-0.27165073,0.39096397,0.6943185,15.351622,2.2170308
1570715152,-2.0925324,4.333505,0.39743748,2.145508,-1.0844723,-0.053264845,-4.8267107,13.560759,-1.484405
1570715152,-0.62249243,-4.1419687,2.2361844,2.9785702,-1.2037855,-1.9878441,-4.7070007,5.3103395,-1.0007763
1570715152,-0.2777274,-16.01242,7.9248075,3.307747,-0.9278736,-2.3095639,-3.8833952,-7.4507556,4.7740383
1570715152,8.418014,-32.08709,11.401189,1.7236505,-0.5869786,-4.5552096,3.8498764,-24.29157,7.5800424
1570715152,12.540829,-12.823344,-0.31124622,2.2126217,-1.1388024,-1.3635801,7.249643,-5.6407394,-4.390966
1570715152,15.509639,0.8331822,8.341399,2.81558,1.1611737,-1.4637179,9.911995,7.517793,3.8498764
1570715152,14.087482,-14.566323,9.500193,1.2645074,-1.287944,-1.2080467,8.24563,-8.418014,4.5633483
1570715152,8.51857,-14.738706,1.8243817,0.5688686,-1.0407951,-0.9747467,3.265691,-8.595184,-1.7956513
1570715152,2.0925324,-7.264008,0.78529817,0.8224092,-1.485024,-0.4133352,-4.414908,-1.6567876,-3.940856
1570715152,0.33039984,-0.79487497,3.0550013,-0.3185238,-0.6700718,0.986465,-6.2488666,4.8745947,-1.4891934
1570715152,-3.2465374,-1.5514427,1.4221559,-1.1494554,0.32491556,2.1135492,-9.5385,4.548983,-2.96881
1570715152,-7.3645644,1.1779473,0.7374141,-1.3859513,0.95983255,1.8078089,-12.540829,7.086837,-4.6495395
1570715152,-1.2354081,0.8475474,1.9632454,-1.4626527,0.3163932,-0.04261188,-8.48984,7.9343843,-1.7525556
1570715152,4.2281604,-0.076614454,-3.9791632,-0.5134731,1.1590431,-0.6125457,-2.5617957,7.2304893,-6.2392898
1570715152,17.927782,-22.989124,12.641385,0.44849002,3.214001,-1.0919293,8.738836,-9.543288,2.1021092
1570715153,1.163582,-9.3421755,3.8307228,1.140933,0.01384886,0.65196174,0.16280572,-6.8665705,-5.463568
1570715153,4.060566,-7.350199,4.4101195,-1.1931325,-0.022371236,0.7808626,-1.5801731,1.6998832,0.10055647
1570715153,0.8331822,-15.040375,1.316811,-1.8823797,0.98539966,0.035154797,-5.1666875,-6.9719152,-2.3750482
1570715153,12.306197,-17.707516,12.167333,-1.2176344,0.4868407,1.0386645,7.2687964,-12.856863,7.5848308
1570715153,5.5976434,-9.605537,8.437167,-2.1028962,1.424302,1.6927568,1.5658079,-2.087744,2.7006595
1570715153,5.3582234,-10.486604,9.011775,-2.6685688,0.82880104,1.0035098,0.090979666,-2.5139117,5.233725
1570715153,8.437167,-8.145074,6.181829,-2.7740333,0.5156037,0.35474387,4.4244847,0.29209262,3.1986535
1570715153,7.7428484,-0.9672575,6.631939,-1.9260569,-0.050068956,0.8096257,4.0222588,7.513005,4.697424
1570715153,6.2823853,0.9864111,4.132392,-0.98007315,-0.03089361,1.1931325,2.6527755,9.356541,2.2601264
1570715153,3.0693667,6.0046577,3.4524388,-0.14701098,-0.23223473,1.2293527,-0.19632454,15.073894,1.661576
1570715153,-0.14844051,5.7269306,-0.23942018,1.5201787,-1.4093878,0.72333664,-3.2082303,14.834474,-2.1883004
1570715153,-1.436521,1.6089035,1.9153614,2.1923811,-1.6064677,-0.57952154,-4.2999864,11.654974,-0.49799395
1570715153,-2.0159178,-5.544971,5.626374,2.4959908,-1.2314832,-1.4701098,-5.530606,3.1651347,2.8107927
1570715153,-0.50278234,-24.133553,10.611102,3.2448945,-1.4413468,-1.646949,-4.5394063,-15.859192,7.2304893
1570715153,8.485051,-24.071304,4.0797195,1.6320349,-0.113986775,-3.1266465,3.6487634,-16.452953,0.22984336
1570715153,9.227253,-14.207192,1.6136919,2.3575022,-1.7023445,-0.6647453,3.892972,-7.091625,-2.5234885
1570715153,14.015656,-5.0374002,10.606314,2.0112805,1.2890093,-1.3401436,8.437167,1.661576,6.114791
1570715153,14.393941,-13.603854,7.9487495,1.0344033,-0.99711794,-1.11217,8.628703,-7.3166804,3.1028855
1570715153,10.299856,-14.72434,-0.78529817,0.7680791,-1.5191134,-1.0429257,4.1419687,-8.738836,-5.5258174
1570715153,2.6719291,-5.5976434,1.4317327,0.43996763,-0.83732337,-0.35793978,-3.787627,0.1436521,-3.1986535
1570715153,-0.18674773,-1.4891934,4.596867,-0.35367858,-0.28763017,0.78192794,-6.6415157,4.333505,0.05746084
1570715153,-4.4101195,-0.10534488,3.0214825,-0.5656727,0.4431635,2.0112805,-10.5680065,6.066907,-1.4556746
1570715153,-6.95755,2.4229321,1.2976574,-1.4093878,0.031958908,1.772654,-12.689269,9.088389,-3.040636
1570715153,1.7429788,1.2976574,1.5610195,-1.0780805,0.24608359,0.3398297,-3.8307228,8.288726,-2.456451
1570715153,5.33907,-2.360683,-6.7612257,-0.52093023,1.0897988,-0.37178862,-0.17717093,4.6782703,-10.773908
1570715153,20.566193,-36.71269,16.859968,1.1590431,1.7854377,-1.2634422,15.198392,-29.764715,12.4785795
1570715153,-0.02873042,-6.14831,7.1730285,1.0312074,0.33130735,1.0855376,-5.4683566,0.5793968,2.5617957
1570715153,5.1810527,-8.087613,4.6926355,-1.2730298,1.3188376,0.85436815,-0.4357447,-3.7062242,0.63206923
1570715153,3.8833952,-17.147272,4.8362875,-1.6192514,0.74996907,0.35367858,-1.8435353,-9.9790325,1.1731589
1570715153,12.5025215,-15.643714,7.675811,-1.7396299,-0.064983115,1.6618632,7.8146744,-8.063671,3.5769374
1570715153,4.405331,-9.150639,7.9487495,-1.8781185,1.1324106,2.24245,1.2593501,-1.8052281,2.681506
1570715153,1.8195933,-8.743625,8.42759,-2.6461976,1.0738193,1.3998002,-1.6567876,-0.4309563,4.31914
1570715153,5.257667,-4.237737,4.960786,-2.4906642,0.49003658,0.48151422,0.8762778,3.0071173,2.0398598
1570715154,7.867347,0.6943185,6.2728086,-1.5116564,0.18323107,0.9992485,4.620809,9.23683,4.285621
1570715154,5.363012,3.8738184,5.3486466,-0.6711371,0.71055305,1.0471869,2.9257145,12.847286,1.4173675
1570715154,0.5746084,5.21936,0.7517793,0.63385165,-0.63385165,0.87567407,-0.80445176,14.733917,-0.61291564
1570715154,-0.10055647,0.92895025,-0.7086837,1.5148523,-1.3657106,0.19814523,-2.6479871,10.510546,-3.4811692
1570715154,-0.6751649,-2.0159178,2.9735985,2.1700099,-1.3635801,-1.191002,-3.5290532,7.422025,-0.6512229
1570715154,-0.40701428,-9.524135,3.9695864,2.468293,-0.8277357,-1.8568126,-3.7588966,1.6998832,-0.40222588
1570715154,2.5713725,-36.02316,11.884817,2.7644455,-1.2698339,-3.509088,-3.083732,-28.28031,8.063671
1570715154,10.060435,-17.899052,1.5610195,1.2069814,-0.2865649,-2.7889473,5.449203,-12.555194,-2.7150247
1570715154,9.562442,-7.8050976,1.8674773,1.7438911,-0.789385,-1.0535786,3.3806129,-3.4284968,-1.5370775
1570715154,16.093824,-12.397177,11.990162,1.6224473,0.30893612,-1.5372235,11.257536,-4.8458643,9.983821
1570715154,11.798626,-11.57836,1.4173675,0.3920293,-1.1601083,-1.3305559,7.043741,-5.770026,-2.9879637
1570715154,3.8498764,-8.6574335,1.1061212,0.31745848,-0.8948494,-0.82880104,-1.4460979,-3.9552212,-3.9935284
1570715154,0.80924016,-3.6056678,3.5673606,-0.36220095,-0.4857754,0.37391922,-5.032612,1.8962077,-0.92895025
1570715154,-3.8738184,-0.80445176,3.0550013,-0.67539823,0.409074,1.5404193,-8.949526,5.602432,-1.8435353
1570715154,-8.197746,1.4700398,0.48841715,-1.0599705,0.5315832,2.2072952,-13.230358,7.302315,-3.9025488
1570715154,-0.9528923,2.9640217,0.22505496,-2.1657486,0.10972559,0.2844343,-8.815451,9.974244,-3.4141316
1570715154,5.48751,0.79008657,-2.0446482,-0.692443,0.9438531,-0.527322,0.05746084,7.9391727,-5.9902925
1570715154,10.386047,-13.273455,2.1260512,-0.40481284,3.06699,-0.8341275,2.7150247,-1.283292,-8.6334915
1570715154,2.2840683,-13.239936,-0.6895301,0.43996763,0.5571503,0.14914156,-3.1986535,-6.4643445,-5.1810527
1570715154,2.9640217,-5.056554,5.267244,-1.0844723,0.5880439,0.742512,-2.2601264,1.8866309,0.7278373
1570715154,1.316811,-13.76666,4.4244847,-2.0688066,1.2165691,-0.22264706,-3.6822822,-6.5122285,0.11492168
1570715154,13.187263,-18.794483,11.022904,-0.771275,0.40374753,0.88419646,8.288726,-11.405977,6.823475
1570715154,6.066907,-8.724471,7.5465236,-1.9260569,1.3966043,1.9090121,1.6759412,-0.8762778,3.6248214
1570715154,4.122815,-7.091625,7.795521,-2.415028,0.7584914,1.0642316,0.22026655,1.1827357,4.261679
1570715154,5.473145,-5.746084,4.8506527,-2.518362,0.064983115,0.40694344,1.7381904,2.8395233,1.9297266
1570715154,7.297527,-1.4460979,5.1475334,-1.7193892,-0.24075711,0.79471153,3.715801,7.374141,2.7964275
1570715154,4.793192,3.2273839,4.817134,-0.5582156,0.3792457,0.818148,1.4460979,12.20564,2.7341783
1570715154,1.6519991,6.1626754,2.5953147,0.79471153,-0.28336897,0.61361104,-1.4891934,15.1936035,0.4405331
1570715154,0.0,3.940856,0.12449849,1.4211061,-1.4786321,0.1054644,-3.1172507,12.923901,-2.2649148
1570715154,0.7182605,-0.8523358,1.934515,1.9068816,-1.5830313,-0.7371855,-2.4037786,9.409213,-1.3742718
1570715154,-0.25378537,-7.9104424,3.787627,1.9175345,-0.8437152,-1.9462975,-4.1371803,0.545878,0.7038953
1570715154,4.644751,-34.265816,12.593501,3.2235885,-2.101831,-2.5141008,0.12449849,-26.345795,8.978256
1570715154,9.610326,-21.064186,-0.92416185,1.7705235,-0.39842105,-1.8376372,4.4101195,-13.747506,-4.879383
1570715155,6.167464,-7.6231384,0.51714754,2.2680173,-2.2573643,-0.61041516,0.94331545,-4.0653543,-3.6631286
1570715155,16.864758,-10.658986,18.574217,2.1327245,1.3966043,-1.4434774,9.394848,-0.05267244,10.649409
1570715155,15.121778,-14.326903,4.8219223,0.98113847,-0.85010695,-0.74890375,9.902418,-7.321469,1.8339585
1570715155,7.153875,-13.192051,-1.1923125,1.0983212,-1.1824796,-0.6615494,2.7868507,-7.872135,-5.93762
1570715155,2.1547816,-6.483498,2.5570073,0.14488038,-1.0908641,-0.04793836,-4.0174704,-1.1492168,-2.930503
1570715155,-0.2825158,-2.9496565,4.7740383,-0.7510343,-0.5230608,0.92680836,-6.4739213,2.4181437,0.7517793
1570715155,-2.336741,-2.1021092,3.1842883,-0.8607599,0.3142626,1.7705235,-8.207323,4.1180267,-0.91458505
1570715155,-4.9176903,2.6144683,-0.0047884034,-1.2186997,0.23116943,1.5574641,-11.099519,8.212111,-4.453215
1570715155,0.11492168,3.6008794,1.7142484,-1.3614495,0.54649734,0.035154797,-6.325481,11.21444,-2.1643584
1570715155,4.390966,-1.8148049,-8.317456,-0.5582156,1.209112,-0.4570124,-2.5474305,7.2352777,-8.954314
1570715155,23.649925,-38.57538,13.852851,0.9374613,1.2368097,-1.8600085,13.8959465,-24.267628,13.125013
1570715155,0.58897364,-2.303222,7.7332716,0.674333,0.21625528,1.0003139,-4.3861775,2.6767175,1.4077905
1570715155,7.8865004,-13.761871,5.6886234,-1.0631664,0.7414467,0.64237404,2.3558946,-6.9862804,1.2449849
1570715155,5.506664,-16.836027,4.2664676,-1.3582536,0.21305938,0.57099915,-1.5801731,-9.390059,0.16759412
1570715155,13.488933,-14.020445,8.437167,-1.2602463,-0.40374753,1.3689066,8.432379,-6.6271505,4.4340615
1570715155,3.2992098,-11.884817,8.978256,-1.9505587,1.1867408,2.2296665,-0.7134721,-3.4859576,4.6686935
1570715155,3.2992098,-9.782708,6.0142345,-2.3436532,0.7297284,1.259181,-0.9959879,-2.054225,2.9640217
1570715155,4.7022123,-4.6399627,5.6982,-2.3702857,0.43677175,0.5816521,1.0007763,4.012682,2.944868
1570715155,5.93762,0.33039984,5.722142,-1.6160555,-0.0063917814,0.7329243,2.4037786,9.198523,3.4763808
1570715155,6.622362,1.9680338,4.1802764,-0.3898987,0.16085984,0.70948774,3.2992098,10.970232,2.1691468
1570715155,4.510676,5.023035,3.7684734,0.54223615,0.14488038,0.50282013,1.3455414,14.068329,1.6950948
1570715155,-1.2737153,3.6296098,1.8435353,1.6895609,-0.9992485,0.02450183,-4.3957543,12.612655,-0.5267244
1570715155,-0.82360536,0.6703765,2.9161377,1.9889094,-1.6352308,-1.0674275,-4.213795,9.457097,0.19153613
1570715155,-2.15957,-9.323022,4.735731,2.730356,-1.4147143,-1.8184619,-6.1100025,-0.91937345,1.5705963
1570715155,-1.7142484,-32.048782,12.995727,3.1522136,-1.6267084,-3.2992246,-6.3542113,-24.25805,9.26556
1570715155,14.06354,-22.740128,-2.4468741,2.1305938,0.026632423,-3.275788,8.475474,-15.825673,-6.5936313
1570715155,11.171345,-9.011775,-1.5610195,2.6653728,-1.1739572,-0.57526034,5.185841,-2.681506,-6.066907
1570715155,18.133684,-6.1530986,13.019669,2.3798733,1.0258809,-0.98539966,12.023681,-0.37349546,7.967903
1570715155,12.449849,-13.330915,7.2544312,0.9140248,-1.4978075,-0.6210681,6.1530986,-7.9343843,2.0159178
1570715155,4.4580035,-13.551182,-1.6041151,0.5177343,-1.9612117,-0.4133352,-2.2218192,-8.336611,-6.5361705
1570715155,2.3223755,-3.2561142,3.8067808,-0.07244019,-0.74783844,0.60934985,-4.5058875,1.9201498,-0.9528923
1570715155,-0.16280572,-0.16759412,4.295198,-0.9491796,-0.16512102,1.5223093,-6.253655,4.745308,-0.5315128
1570715155,-1.958457,1.8626889,3.2848446,-0.8564987,0.08628905,2.5929327,-8.130709,7.2352777,-0.60333884
1570715155,-0.45010993,1.4077905,3.3135753,-1.4253674,-0.14807628,1.4690444,-7.3406224,8.331821,-1.2210429
1570715156,-0.062249243,-2.9640217,0.770933,-0.33663383,-0.08735435,-0.33237264,-5.93762,3.787627,-3.2273839
1570715156,1.4413095,-7.666234,-6.8522053,-1.3380129,1.8280495,-0.4112046,-4.453215,2.3511062,-11.386824
1570715156,12.540829,-19.129671,6.9958572,0.55075854,0.8085604,-0.95024484,6.363788,-15.911864,6.253655
1570715156,11.511322,-6.8905125,7.4746976,0.7563608,0.6594188,0.05539544,2.825158,0.79008657,3.596091
1570715156,5.1810527,-16.634912,3.0597897,-1.3071194,1.5255052,1.0184239,1.340753,-7.6614456,-2.9113493
1570715156,3.916914,-16.213533,5.57849,-1.4104532,-0.4548818,1.122823,-2.5617957,-9.600749,0.92416185
1570715156,9.801862,-13.757083,7.5321584,-1.57877,-0.05113425,1.3284253,5.0900726,-7.2927384,4.5154643
1570715156,3.3087866,-12.052411,8.1881695,-2.0506966,1.4136491,2.1753364,-0.7134721,-4.1659107,3.6152446
1570715156,5.932832,-9.888053,7.7332716,-2.3937223,1.2559851,1.5681171,1.2497733,-1.8483237,4.501099
1570715156,6.2345014,-5.33907,4.55856,-2.625957,0.2823037,0.6327864,3.2513258,2.2649148,3.2082303
1570715156,5.7029886,-0.92895025,5.7365074,-2.0560231,-0.07457078,0.7542302,2.2697031,7.6710224,3.4141316
1570715156,6.9383965,1.2018893,4.831499,-0.96835494,0.2791078,1.1707613,3.6152446,10.141838,3.5434184
1570715156,6.6893997,6.2823853,1.6663644,0.03835069,-0.47618774,1.1185617,3.787627,14.053964,0.5793968
1570715156,0.6368576,5.0661306,0.50278234,1.453065,-1.0205544,0.67752886,0.12928689,15.648502,-0.44532153
1570715156,-2.6288335,0.6847417,3.3997664,2.0869167,-1.2495933,-0.6359823,-5.085284,10.749966,0.8619126
1570715156,-0.7134721,-10.079589,5.645528,3.4185379,-1.2027203,-1.6927568,-3.5817258,2.255338,0.9959879
1570715156,1.2737153,-30.86126,12.105083,2.5726922,-1.4978075,-3.2598085,-3.6535518,-22.864626,9.983821
1570715156,6.5505357,-19.397821,2.327164,1.6916915,-0.81175625,-2.8613875,2.054225,-12.837709,-1.3742718
1570715156,8.121132,-15.1696615,4.280833,2.3905263,-1.8887714,-1.4775668,2.906561,-7.905654,0.24420857
1570715156,11.032481,-9.035717,9.035717,1.6906263,1.3870167,-1.844029,5.439626,-2.255338,4.6830587
1570715156,13.565547,-13.278243,3.1172507,1.0514481,-0.6327864,-1.5670518,7.5561004,-6.655881,-0.1388637
1570715156,8.599973,-12.53604,-0.4165911,0.66794115,-0.9374613,-1.2858135,2.3702598,-6.655881,-5.1906295
1570715156,3.083732,-6.14831,3.1411927,0.33024204,-0.4825795,-0.26632422,-3.3758245,-0.49799395,-1.6041151
1570715156,-0.019153614,-1.8962077,3.4859576,-0.6200028,-0.2844343,0.58484805,-6.4739213,3.8546648,-1.1348516
1570715156,-5.142745,-0.24899697,1.4939818,-1.1249535,0.19601464,1.5265706,-11.386824,5.8562174,-2.9640217
1570715156,-6.8330517,3.7014358,2.6623523,-1.6906263,0.3057402,1.1217576,-12.741941,10.251971,-1.6184803
1570715156,2.0973208,2.4468741,-2.15957,-1.0855376,0.11824796,-0.0031958907,-3.7301662,9.246407,-6.14831
1570715156,7.0485296,-8.839393,-4.644751,-1.0280116,2.8102534,-0.33556855,1.3359646,-1.9632454,-8.686164
1570715156,20.116083,-29.477411,3.347094,0.036220096,0.75742614,-2.321282,14.408306,-22.874203,-1.1252748
1570715156,1.9297266,-5.056554,4.2904096,-0.02130594,-0.21945117,0.70629185,-3.691859,1.5179238,-0.320823
1570715156,2.9592333,-15.600618,7.120356,-1.8632044,1.5329623,0.8383887,-2.432509,-8.738836,2.6384103
1570715156,11.051635,-17.152061,7.9104424,-1.0908641,0.36539686,0.5539544,5.889736,-9.998186,3.620033
1570715156,14.623784,-11.295844,5.291186,-1.6927568,-0.5017549,1.4626527,11.669339,-5.2528787,4.237737
1570715157,3.5098996,-11.166556,9.323022,-1.9313834,0.7670138,2.2222095,-0.8379706,-3.1555579,5.7029886
1570715157,3.596091,-8.825027,5.650316,-2.4544442,0.46340418,1.3177723,-0.641646,-1.5466543,4.88896
1570715157,3.7828386,-3.6152446,4.8458643,-2.271213,-0.02130594,0.56673795,0.30166942,3.8738184,2.3511062
1570715157,5.0374002,-1.5227122,4.3718123,-1.5659865,-0.019175345,0.9118942,1.436521,7.216124,2.6240451
1570715157,5.1523223,1.3694834,5.00867,-0.73931605,0.6231987,0.7840586,1.3503298,9.758766,2.9831753
1570715157,1.2354081,7.5800424,1.3694834,0.70948774,-0.29934844,0.40800872,-1.5705963,16.424223,-1.1013328
1570715157,0.21547815,4.0701427,1.3934253,1.9793217,-1.4488038,-0.15979454,-2.9113493,13.086706,-0.842759
1570715157,0.33518824,-0.8523358,5.2241483,2.694136,-1.4381509,-1.3230988,-3.0310593,8.959103,1.484405
1570715157,-0.38307226,-13.570335,9.68694,2.8145144,-1.0695581,-2.0357823,-4.5537715,-1.2306197,4.343082
1570715157,7.5800424,-32.498894,10.486604,2.3702857,-1.5979455,-3.5751364,-0.34955344,-27.935545,11.731588
1570715157,11.080365,-16.55351,-0.92416185,2.6493936,-1.4914157,-1.2517239,7.07726,-11.822568,-4.6591167
1570715157,8.331821,4.132392,2.1404164,2.5961287,0.33024204,-1.4509344,1.2737153,8.082825,-6.129156
1570715157,14.470555,-20.025103,18.181568,1.3156418,-0.019175345,-1.6331002,8.432379,-12.804191,14.135366
1570715157,10.505757,-18.890251,-0.63206923,0.5614115,-0.419727,-0.81921333,5.104438,-13.532028,-3.5098996
1570715157,4.271256,-4.4244847,1.1923125,0.6402435,-1.474371,-0.20027582,-1.4413095,-1.6663644,-4.721366
1570715157,4.003105,0.10055647,4.122815,-1.2442669,-0.5528891,1.0375992,-2.5187001,4.7261543,-0.4405331
1570715157,0.0,0.59376204,2.5234885,-1.5073951,0.41013932,1.9825176,-5.683835,6.4978633,-1.163582
1570715157,-3.9600096,2.743755,0.78529817,-1.2495933,0.5901745,2.1838586,-9.844957,9.370906,-3.3997664
1570715157,-1.7477672,-1.3072342,0.08140286,-1.3135111,0.019175345,1.1451942,-7.9870567,6.4787097,-3.8163576
1570715157,0.48362875,-3.0262709,2.0733786,-0.40694344,1.0578399,-0.18962285,-5.559336,4.8027687,-1.3694834
1570715157,8.872911,-14.235924,2.1404164,-0.12357444,2.1934464,-1.4690444,0.7278373,-3.7588966,-4.223372
1570715157,5.0182467,-9.3182335,2.4037786,0.6125457,0.5486279,-0.5869786,5.5162406,-5.21936,-3.1747115
1570715157,3.5338416,-6.7372837,7.872135,0.33450323,0.52945256,0.7052266,-2.7485435,2.9783869,4.0701427
1570715157,5.425261,-18.358738,0.6703765,-1.4232367,1.3880819,0.5731298,-0.17238252,-9.069236,-3.265691
1570715157,9.275137,-20.465635,5.7987566,-0.8980453,0.3451562,0.5869786,4.3766007,-13.211205,1.3694834
1570715157,8.791509,-11.9135475,6.3589997,-1.6980833,0.2780425,1.0290768,4.0462008,-4.3861775,2.231396
1570715157,3.9791632,-11.822568,11.243171,-2.163618,1.3816901,1.6032718,-0.29688102,-3.8738184,7.40766
1570715157,6.5265937,-9.610326,7.642292,-2.5236886,0.6881818,0.98113847,2.6910827,-1.2354081,4.2664676
1570715157,6.7612257,-4.209007,5.755661,-2.4320729,0.031958908,0.74357724,3.1507695,4.477157,2.992752
1570715157,5.731719,-1.9919758,3.0310593,-1.5862272,-0.243953,1.1015171,2.3558946,6.943185,0.80445176
1570715157,4.745308,0.7182605,3.107674,-0.9033718,-0.18962285,1.0269462,1.6472107,9.830592,1.2258313
1570715157,3.0023289,6.220136,1.2162545,0.44635943,-0.3845722,0.8042992,0.1340753,15.418659,-0.58897364
1570715157,-1.5227122,4.759673,1.5993267,1.5489417,-0.94704896,0.1022685,-4.2999864,13.934254,-0.46926352
1570715158,-0.6512229,0.25378537,2.791639,2.8283634,-1.5851618,-1.2559851,-3.7110126,9.208099,0.22505496
1570715158,-0.15322891,-20.403387,11.21444,3.2928329,-1.406192,-2.001693,-3.7828386,-11.899182,7.943961
1570715158,8.058883,-25.843014,6.6271505,1.4445426,-0.8319969,-4.00019,3.490746,-17.999609,2.9017725
1570715158,9.002198,-14.743494,-0.770933,2.1103532,-1.3262947,-1.3230988,3.763685,-7.455544,-4.7261543
1570715158,9.208099,-4.7740383,1.5897499,2.2392542,-0.9023065,-0.82453984,3.5817258,-1.163582,-3.3135753
1570715158,13.450625,-13.144167,11.238382,1.5947496,-0.30147904,-1.5446806,7.675811,-6.813898,6.459556
1570715158,11.271901,-13.335704,2.0590134,0.60828453,-1.0535786,-1.3944737,5.9280434,-7.2304893,-1.3072342
1570715158,4.8602295,-11.267113,-0.5793968,0.8852618,-0.9917914,-0.85436815,-0.7374141,-6.933608,-5.93762
1570715158,1.8387469,-4.0462008,4.7979803,-0.25993246,-0.5262567,0.19068815,-4.343082,0.5650316,-0.56982
1570715158,0.45010993,-0.6895301,3.8977604,-0.8937841,-0.16618632,1.1249535,-5.837064,4.7261543,-0.46447513
1570715158,-1.2497733,0.4309563,1.9488802,-0.91828597,-0.22477765,1.9441669,-7.144298,6.1626754,-1.5801731
1570715158,-1.364695,3.7445314,1.7717092,-1.2655728,-0.16938221,1.0993865,-7.7667904,10.156203,-2.3702598
1570715158,0.7469909,0.8714894,0.0,-0.54649734,0.19068815,-0.15979454,-5.195418,8.226477,-3.169923
1570715158,5.463568,-12.732365,0.5506664,-0.35580918,2.138051,-0.74357724,-2.7006595,-0.5267244,-7.4746976
1570715158,17.894264,-10.6158905,-1.532289,0.22903883,0.39309457,-1.5148523,19.191921,-13.67568,-2.0638018
1570715158,0.31603462,-7.896077,3.2130187,0.6200028,-0.6604841,1.1388024,-6.7851677,0.9624691,-0.37828386
1570715158,-0.24420857,-17.180792,4.012682,-1.1654348,0.8767394,0.7542302,-4.6016555,-9.68694,1.5131354
1570715158,8.135497,-17.386692,5.81791,-0.6210681,0.089484945,0.29189137,0.1436521,-10.362105,-0.7326257
1570715158,7.2783732,-11.798626,5.7269306,-1.6810386,0.79151565,1.610729,3.6104562,-5.8705826,1.5227122
1570715158,5.5641246,-9.246407,8.614338,-1.8610737,1.0738193,1.833376,0.46447513,-1.9871874,4.8219223
1570715158,7.398083,-11.927913,6.9527617,-2.299976,0.7307937,1.3145764,3.0933087,-2.566584,2.2888567
1570715158,4.285621,-9.275137,5.1762643,-2.3287392,0.16085984,1.2421362,0.82360536,-2.231396,2.9352913
1570715158,4.0222588,-4.036624,5.3582234,-2.0720026,0.117182665,1.0407951,0.51235914,4.343082,3.4332852
1570715158,4.9895163,-2.0590134,5.6407394,-1.5159175,0.39735577,0.98007315,1.0773908,6.435614,3.6774938
1570715158,6.277597,4.3526587,5.023035,-0.6615494,0.28336897,0.6913777,3.0502129,11.856087,3.9983168
1570715158,5.9567738,7.8769236,1.4077905,0.8064298,-0.6700718,0.50814664,2.954445,17.056293,-0.2777274
1570715158,2.4660277,4.4819455,1.1444284,2.1337898,-1.5350928,0.08628905,-0.521936,13.594277,-0.89064306
1570715158,-0.22984336,-3.5817258,5.5880666,2.640871,-1.6576021,-0.84158456,-3.4380736,5.3247046,3.0310593
1570715158,-1.4413095,-26.221296,11.257536,3.3066816,-1.8568126,-2.1284633,-5.0038815,-14.317327,7.541735
1570715158,6.670246,-22.88378,6.469133,1.6991487,-0.96089786,-3.003072,2.1212628,-14.987702,2.834735
1570715158,7.4124484,-16.232687,1.6376339,2.568431,-2.1508346,-1.0770152,2.2457612,-8.844181,-2.2218192
1570715158,10.146626,-5.281609,5.391742,2.4299424,0.839454,-1.668255,4.606444,1.6136919,1.1540052
1570715158,12.847286,-14.623784,7.321469,1.4338896,-0.5592809,-1.6011413,7.0485296,-8.288726,2.5809495
1570715158,10.242394,-13.551182,0.14844051,0.81708276,-1.0599705,-1.2048508,4.0462008,-7.589619,-4.572925
1570715159,3.7732618,-6.5696893,2.2697031,0.36539686,-0.74783844,-0.41226992,-2.6862943,-0.8571242,-2.3989902
1570715159,1.2306197,-3.1507695,4.0462008,-0.8064298,-0.57206446,0.4836448,-5.2768207,2.633622,-0.45010993
1570715159,-1.3599066,-1.1013328,3.4955344,-1.3369477,0.15446806,1.3113805,-7.73806,5.0182467,-0.7469909
1570715159,-6.0764837,3.4093432,0.62249243,-1.2144386,0.90869826,1.5468111,-12.095507,9.988609,-3.4524388
1570715159,-3.3279405,3.2273839,2.705448,-1.5691824,0.73612016,0.06285252,-9.083601,10.1226845,-1.2210429
1570715159,2.0111294,-0.17717093,-3.4380736,-0.5102772,0.91295946,-0.45807767,-5.118803,7.9822683,-5.78918
1570715159,23.343466,-33.102234,18.938135,1.2059162,1.6522756,-1.7843723,17.688362,-26.350584,14.614207
1570715159,3.6343982,-5.2863975,3.1890767,0.77447087,1.571313,0.22477765,3.7014358,-1.2066777,-6.397307
1570715159,3.3614593,-16.01242,2.1691468,-1.1526513,0.5869786,0.54543203,-3.0502129,-6.8665705,-1.7381904
1570715159,-0.7326257,-18.555063,2.834735,-1.9015551,1.5840966,0.5539544,-6.9958572,-12.133814,-2.7485435
1570715159,16.065094,-13.498509,14.791378,-1.7886336,0.89165354,0.44103295,11.496957,-4.343082,9.543288
1570715159,5.3582234,-9.730036,8.647857,-2.4544442,1.3721025,1.6043372,0.6607997,-2.0254946,4.793192
1570715159,4.309563,-11.405977,7.5225816,-2.4491177,0.96409374,1.8269843,-0.5554548,-3.2225955,3.083732
1570715159,6.622362,-7.129933,7.431602,-2.8454082,0.5475626,0.975812,2.6048915,-0.16280572,3.6535518
1570715159,5.1666875,-1.1348516,4.3526587,-2.2126217,-0.16405573,0.7286631,1.4939818,7.398083,2.4229321
1570715159,6.1195793,0.89064306,4.146757,-1.1004517,0.2737813,0.7680791,2.5378537,9.44752,2.8203697
1570715159,5.4061074,5.650316,3.7828386,-0.1384886,0.19175345,0.6604841,2.3989902,13.259089,3.1124623
1570715159,0.50278234,6.9288197,1.8148049,1.0407951,-0.58484805,0.5305179,-2.1739352,15.844827,-0.10534488
1570715159,-2.6001031,2.6384103,-0.37349546,1.9452322,-1.1419983,-0.14594568,-5.81791,12.421119,-3.0885203
1570715159,-2.111686,-4.7644615,1.4030021,2.5631044,-1.1451942,-1.531897,-5.3821654,5.779603,-0.79966336
1570715159,-0.6895301,-25.119965,12.708423,3.7764776,-1.2538545,-1.940971,-4.1419687,-9.974244,7.302315
1570715159,13.685257,-28.414385,-0.30645782,1.2868787,-0.3142626,-4.0918055,6.8761473,-25.182213,2.633622
1570715159,11.046846,-10.7116585,-1.340753,2.88802,-2.3777428,-0.30893612,6.933608,-5.195418,-5.9567738
1570715159,14.255077,-1.1300632,11.18571,2.400114,1.2900746,-1.4733057,7.153875,8.662222,1.8243817
1570715159,10.965444,-15.342045,10.850522,0.7297284,-1.1260189,-1.5755742,6.397307,-9.792285,9.457097
1570715159,8.063671,-16.31409,-0.14844051,0.61361104,-1.1025823,-1.1814142,1.7477672,-10.5440645,-4.9464207
1570715159,2.3127987,-5.616797,0.18195933,0.74890375,-0.9949873,-0.29402196,-3.8881836,-1.7238252,-5.793968
1570715159,1.6376339,-1.1492168,3.98874,-0.55075854,-0.41013932,1.0929947,-5.142745,3.0550013,-0.8714894
1570715159,-0.10534488,-0.8379706,4.2999864,-1.1654348,0.41653112,2.1103532,-6.4978633,5.094861,-0.17717093
1570715159,-5.45878,4.003105,1.757344,-1.32736,0.9118942,1.7140628,-11.386824,10.486604,-2.5953147
1570715159,-1.5035586,1.388637,0.5315128,-0.9459837,-0.33343795,-0.2056023,-7.675811,8.7532015,-2.6862943
1570715159,2.7964275,-0.90979666,-4.9416323,-0.5539544,0.74357724,-0.52519137,-3.0597897,5.875371,-8.911219
1570715159,9.730036,-16.788143,-0.62249243,-1.374233,3.4334521,0.063917816,2.4516625,-16.065094,6.5361705
1570715160,4.7788267,-6.6271505,-2.5474305,0.77766675,-0.3845722,-0.8224092,-0.94810385,0.033518825,-6.895301
1570715160,1.283292,-1.5275006,4.4484267,-0.45914298,0.01065297,0.22903883,-4.381389,5.0613422,-0.090979666
1570715160,0.5793968,-16.663643,2.1499932,-1.8504208,1.6597326,0.089484945,-4.8267107,-9.792285,-2.2888567
1570715160,18.947712,-20.427328,14.848839,-0.886327,0.35474387,0.36220095,13.603854,-13.426683,10.529699
1570715160,7.335834,-8.882488,7.192182,-1.6671897,0.4452941,1.8951633,2.2936451,-1.460463,3.2273839
1570715160,1.0630256,-13.55597,7.28795,-2.5343413,0.48151422,1.5553335,-3.514688,-5.626374,3.7684734
1570715160,7.4028716,-10.836157,6.019023,-2.522623,0.35580918,0.8341275,3.1268275,-2.5234885,3.0454245
1570715160,5.602432,-3.5865142,6.325481,-2.2286012,0.15553336,1.0088362,1.5705963,5.0278234,3.9456444
1570715160,7.0245876,-1.9009962,6.7085533,-1.6767774,0.053264845,1.0684928,3.2848446,6.95755,4.7979803
1570715160,3.7828386,0.51714754,6.5696893,-1.4573262,0.18962285,1.0610358,0.32561144,9.572019,5.070919
1570715160,2.135628,5.1235914,0.8714894,-0.14701098,-0.68924713,0.9246777,-1.2306197,13.383588,0.92416185
1570715160,2.3080103,3.265691,-1.2018893,1.2400056,-1.0397298,0.3206544,-0.770933,12.459426,-2.6479871
1570715160,0.16759412,2.2744915,1.9440918,1.9196651,-1.1718266,-0.52519137,-1.8195933,12.258312,0.9672575
1570715160,-2.0398598,-2.7581203,2.9496565,2.7207685,-1.5595948,-1.2890093,-5.329493,7.5704656,1.4556746
1570715160,0.04309563,-36.865917,12.277467,4.1855516,-2.1178102,-1.9313834,-4.0653543,-28.510155,9.193734
1570715160,11.520899,-21.423317,0.78050977,1.8749226,-0.24927948,-2.504513,6.6415157,-13.723564,-2.8395233
1570715160,7.335834,-11.166556,-0.038307227,2.5449944,-2.841147,-0.5475626,2.753332,-5.3342814,-3.2704794
1570715160,12.071565,-6.090849,13.9151,2.2914536,1.5819659,-1.8568126,5.2624555,5.3199162,4.7979803
1570715160,11.693281,-16.998833,9.045294,0.57632565,-1.4104532,-1.6661245,6.5361705,-10.6398325,8.307879
1570715160,7.479486,-14.5567465,-3.9600096,1.6810386,-0.60082746,-1.0344033,2.3463178,-9.457097,-7.9631147
1570715160,3.1268275,-4.3239284,2.5187001,0.7691444,-1.0205544,0.020240642,-2.8682537,1.2018893,-3.0071173
1570715160,0.89543146,-0.37349546,4.3239284,-0.6668759,-0.36113566,1.1015171,-5.142745,4.43885,0.090979666
1570715160,-2.0398598,-0.842759,3.1028855,-0.87460876,0.5571503,2.1178102,-7.7428484,5.0517654,-0.48841715
1570715160,-4.807557,3.2130187,1.2449849,-1.5223093,0.18216577,1.6426879,-10.82658,9.3661175,-3.1364043
1570715160,-0.49799395,0.60812724,0.866701,-1.1739572,0.31319728,0.21625528,-6.517017,8.39886,-2.5474305
1570715160,3.2225955,-4.0318356,-4.7500963,-0.67752886,1.8291148,-0.33237264,-3.442862,4.8362875,-7.5800424
1570715160,20.30283,-35.075054,13.64695,0.92041653,1.434955,-1.5073951,11.722012,-21.839909,8.37013
1570715160,3.6104562,-6.3542113,6.7372837,0.25886714,0.2791078,0.94704896,-1.5514427,-0.60333884,0.6607997
1570715160,2.6144683,-16.280571,6.861782,-1.9558852,1.4008654,0.9438531,-1.0582372,-7.1634517,0.60333884
1570715160,4.841076,-17.056293,2.7006595,-1.5542682,0.92254716,0.43677175,-2.4708161,-9.241618,-2.4277205
1570715160,14.015656,-12.0093155,8.949526,-2.1188755,0.81495214,1.2144386,9.576807,-5.118803,7.273585
1570715160,3.9695864,-10.793061,8.676587,-2.062415,1.1856755,1.8632044,0.9911995,-2.1787236,5.631162
1570715160,3.8546648,-9.44752,4.7405195,-2.6504588,0.5486279,0.68498594,0.062249243,-1.958457,3.2561142
1570715161,4.7548847,-2.944868,4.6112323,-2.450183,0.3771151,0.20347172,1.1779473,5.8945246,2.3319526
1570715161,4.88896,0.5506664,4.4723687,-1.2442669,0.36007038,0.6370476,1.4508862,9.064447,2.7389667
1570715161,4.367024,3.5673606,4.0078936,-0.2791078,0.506016,0.5986969,1.1252748,12.674904,2.3654714
1570715161,2.504335,6.4164605,3.5577838,0.7691444,0.060721926,0.3835069,-0.58418524,15.552734,1.8004397
1570715161,-0.9816227,5.57849,0.8619126,1.7321728,-0.87993526,-0.033024207,-3.289633,15.729905,0.5315128
1570715161,-1.7190368,-2.1787236,2.2122424,2.371351,-0.9768773,-1.3390783,-5.104438,6.6415157,-0.39264908
1570715161,-0.6655881,-14.082694,5.770026,2.2360582,-0.3057402,-2.3926568,-4.6495395,-5.674258,2.6671407
1570715161,13.263878,-42.099644,11.654974,2.3180861,-1.4221714,-3.9948635,8.42759,-34.419044,7.9343843
1570715161,13.153744,-13.244724,-6.493075,3.3599465,-1.9707993,-0.06285252,7.7667904,-6.143522,-10.58716
1570715161,13.800179,9.504981,3.8546648,2.9093258,0.1384886,-1.6384267,8.0445175,16.060305,-0.62249243
1570715161,13.172897,-15.59583,18.521544,0.80323386,-1.4274979,-1.3838208,7.1826053,-9.524135,13.67568
1570715161,5.7843914,-18.799273,-1.8722657,0.85862935,-0.8703476,-0.7382508,-0.5554548,-12.938266,-6.517017
1570715161,0.14844051,-5.1666875,0.47884035,1.3934084,-1.0471869,0.08735435,-6.3925185,0.37828386,-4.2760444
1570715161,2.183512,-0.1436521,3.4572272,-0.40587813,-0.99392205,1.4690444,-4.367024,5.554548,-1.0965444
1570715161,2.0685902,-0.30645782,3.6104562,-1.4093878,-0.26419365,2.4065058,-4.414908,5.2385135,0.1436521
1570715161,-0.06703765,2.896984,2.5905263,-1.3731678,0.31532788,1.5169828,-5.8226986,9.706094,-1.4796166
1570715161,-1.13964,1.2737153,0.9720459,-0.9449184,-0.26525894,0.33450323,-6.5026517,8.686164,-2.4612393
1570715161,-1.2210429,-0.6751649,-3.7828386,-0.43783703,0.71161836,-0.070309594,-7.1969705,7.383718,-5.0182467
1570715161,6.2728086,-27.729645,7.086837,0.9001759,2.551386,-0.84478045,-3.0310593,-12.373235,-3.7588966
1570715161,3.667917,-12.0332575,0.61291564,0.19494934,0.47192654,0.24501829,3.5003228,-6.9144545,-3.8594532
1570715161,4.2042184,-13.062764,4.534618,-0.789385,1.1100394,1.1526513,-1.3838485,-4.7261543,-1.958457
1570715161,0.33997664,-14.025233,1.9201498,-2.0751984,1.1601083,0.058591332,-5.3199162,-6.9862804,-1.8579005
1570715161,9.787497,-13.43626,9.864111,-1.6586673,0.83306223,0.23756121,4.6686935,-6.871359,4.9703627
1570715161,5.506664,-9.452309,8.1163435,-2.2509725,1.865335,1.4860892,2.1643584,-1.910573,3.4524388
1570715161,5.746084,-10.520123,9.260772,-2.7218337,1.0812764,1.0993865,0.31124622,-2.0398598,6.7133417
1570715161,7.9822683,-7.560889,4.582502,-2.8209064,0.5198649,0.527322,4.232949,-0.047884032,2.0733786
1570715161,7.9583263,-1.2880806,7.843405,-2.0006278,0.12463974,0.70203066,4.146757,6.9288197,4.0318356
1570715161,7.216124,0.33997664,5.7029886,-1.0972558,-0.12996623,0.81601745,3.98874,9.126697,4.3718123
1570715161,4.0462008,4.6591167,2.72939,0.09694202,-0.41226992,0.50814664,1.5945383,13.091495,2.0159178
1570715161,0.19632454,5.899313,2.8299465,1.7012792,-0.78192794,0.3494174,-2.585738,14.877569,0.51714754
1570715161,-3.691859,2.3750482,0.6799533,2.2648213,-1.062101,-0.32491556,-6.603208,12.08593,-1.5945383
1570715161,-1.4508862,-3.040636,2.954445,2.726095,-0.9459837,-1.7343034,-5.765238,6.6175733,0.009576807
1570715161,4.9703627,-38.77649,18.306067,3.6081607,-1.4125837,-2.7708373,0.25857377,-21.006725,8.264784
1570715161,13.479356,-21.605276,-5.2959743,0.7339896,0.3440909,-2.6770911,7.9008656,-18.947712,-7.445967
1570715162,8.710106,-8.236053,-2.0925324,3.013725,-2.3947875,-0.39842105,3.074155,-4.295198,-5.7987566
1570715162,16.112978,-11.999739,18.191145,1.6075331,0.81069094,-1.6714509,10.0029745,-2.231396,10.7116585
1570715162,10.208876,-13.445837,4.9464207,0.47192654,-0.73612016,-1.2240262,4.654328,-7.225701,2.0015526
1570715162,7.345411,-14.06354,-1.6328455,0.83732337,-0.6881818,-1.0386645,0.9959879,-8.2169,-6.2967505
1570715162,2.8778305,-5.463568,1.6280571,0.19601464,-0.8607599,-0.033024207,-3.6727054,0.19153613,-2.9783869
1570715162,-0.22505496,-0.46926352,3.8067808,-0.9278736,-0.5496932,1.1760879,-6.7468605,5.3965306,-0.5650316
1570715162,-4.8745947,0.21068975,0.94331545,-1.0823417,0.60189277,2.1114185,-11.03727,6.5696893,-3.265691
1570715162,-7.053318,4.223372,2.2649148,-1.7396299,-0.04793836,0.8639558,-12.832921,11.022904,-1.7956513
1570715162,2.2649148,2.4229321,-2.15957,-0.8810006,0.4154658,-0.17683929,-3.5098996,9.399636,-5.90889
1570715162,8.939949,-11.774684,1.3934253,-0.5827174,3.0179863,-0.47192654,3.289633,-4.783615,-2.5378537
1570715162,16.510414,-21.040245,-2.2457612,-0.1054644,0.18536167,-1.6011413,10.726024,-14.365211,-6.517017
1570715162,-0.4309563,-3.8307228,1.2689269,-0.09055024,-1.4136491,1.5436152,-6.05733,2.9783869,-2.9783869
1570715162,1.292869,-18.243816,7.7811556,-2.1721404,1.8855755,0.7659485,-4.0078936,-11.070788,3.7014358
1570715162,11.678916,-19.349937,5.497087,-0.95876724,0.47618774,0.8096257,6.579266,-11.894394,1.6711528
1570715162,9.385271,-9.3182335,5.3678,-2.327674,0.63917816,1.8461596,4.644751,-1.460463,1.8962077
1570715162,3.667917,-9.332599,8.446744,-2.3660245,0.8224092,1.6437532,-0.5315128,-1.0007763,5.4204726
1570715162,6.2728086,-8.954314,5.386954,-2.5119703,0.47405714,0.8767394,2.408567,-0.2825158,2.9113493
1570715162,5.78918,-1.6089035,4.663905,-2.0645454,0.02450183,1.1430637,2.5761611,6.196194,3.1411927
1570715162,4.745308,0.8810662,3.3614593,-1.1324106,0.033024207,1.571313,1.7812861,9.44752,3.5242648
1570715162,4.6016555,2.3942018,3.3662477,-0.4559471,0.11824796,1.4370855,2.1691468,10.884041,3.1986535
1570715162,0.48841715,5.8801594,1.1061212,0.7041613,-0.9321348,0.4857754,-2.0446482,15.251065,-0.2777274
1570715162,-0.90979666,1.7477672,-0.79487497,2.0048888,-1.6064677,-0.32385027,-4.5441947,11.051635,-2.4899697
1570715162,0.038307227,-8.250419,5.4922986,3.6497073,-1.2751604,-1.0642316,-2.3558946,0.80445176,3.1172507
1570715162,-1.2785037,-32.460587,13.924677,3.5069575,-1.5073951,-2.0475006,-5.0134583,-20.010738,10.424355
1570715162,6.775591,-20.566193,1.0342951,1.2069814,-0.40800872,-2.9082606,2.327164,-14.001291,-1.1683705
1570715162,5.741296,-13.278243,3.940856,2.1945117,-2.1774669,-1.3752984,0.6847417,-6.6750345,-1.1348516
1570715162,11.678916,-8.303091,10.13705,2.1550958,0.9001759,-1.772654,4.759673,0.82360536,2.7724855
1570715162,17.343597,-15.701175,3.892972,1.2517239,-0.88952297,-1.8568126,11.626244,-8.690952,2.1068976
1570715162,6.83784,-12.239159,-1.1300632,1.1665001,-0.6413088,-1.3252294,2.8874073,-6.7708025,-5.9902925
1570715162,1.0247183,-6.0621185,2.6671407,0.5262567,-0.71161836,-0.3472868,-4.999093,-0.5267244,-2.6671407
1570715162,-0.81881696,-1.8339585,2.8538885,-0.4431635,-0.5986969,0.721206,-6.612785,3.3087866,-0.9624691
1570715162,-3.1411927,-0.10055647,1.6280571,-0.8820659,0.3898987,1.5489417,-8.949526,6.1004257,-2.585738
1570715162,-5.9807158,4.4196963,1.5035586,-1.4498692,0.74357724,1.4914157,-11.496957,10.28549,-3.7493198
1570715163,-0.21547815,2.777274,3.1842883,-1.3071194,0.23010413,0.05539544,-7.2065473,10.548853,0.3878607
1570715163,5.482722,-6.5265937,-6.2871737,-0.17790459,1.3071194,-0.8671517,-0.58418524,4.2664676,-11.343728
1570715163,27.739222,-32.18765,1.1683705,0.6072193,1.474371,-2.7537925,21.073763,-31.426292,6.483498
1570715163,0.9959879,-11.48738,1.5035586,0.070309594,-0.936396,1.9537545,-5.2002063,-3.1124623,-0.36870706
1570715163,1.541866,-18.11453,4.9703627,-2.3734815,1.2645074,0.9236124,-1.5993267,-11.463438,1.0630256
1570715163,2.0638018,-16.19438,6.9240313,-1.5830313,0.5869786,0.6370476,-2.8874073,-8.815451,2.767697
1570715163,9.782708,-12.401965,7.029376,-1.9889094,1.162239,1.5457458,6.4068837,-6.2728086,3.9217024
1570715163,4.8219223,-8.968679,10.414778,-2.3010414,1.9164692,1.8355067,0.7278373,-0.79008657,6.861782
1570715163,5.9280434,-7.881712,6.0764837,-2.5620391,0.84158456,0.78725445,2.27928,0.6847417,2.9975405
1570715163,4.1611223,-3.5003228,4.6830587,-2.5396678,0.16085984,0.57632565,0.6943185,5.33907,2.2457612
1570715163,5.0182467,0.06703765,5.947197,-1.7034098,0.020240642,0.85117227,1.7429788,9.11712,4.0797195
1570715163,5.257667,1.9536686,2.791639,-0.56673795,0.43996763,0.8937841,2.2457612,11.142614,1.1779473
1570715163,2.2888567,6.9383965,3.572149,0.33450323,0.067113705,0.68924713,-0.47405192,16.203957,1.9536686
1570715163,-2.0590134,4.865018,-0.63206923,1.2890093,-1.0887334,0.07670138,-4.7548847,14.111424,-2.4516625
1570715163,-0.30645782,-0.92895025,2.2218192,2.1497693,-1.0344033,-1.2357445,-3.241749,8.154651,0.0
1570715163,-0.30166942,-15.514427,8.724471,3.4036238,-0.9907262,-1.4786321,-3.739743,-6.789956,5.841852
1570715163,3.8019924,-33.791763,9.586384,1.8078089,-0.3078708,-4.30593,-0.4165911,-25.689785,6.0142345
1570715163,11.511322,-14.379576,-0.46926352,2.0389783,-1.7694582,-1.7960906,6.4787097,-6.8809357,-4.295198
1570715163,12.406754,-5.717354,1.4939818,2.3543062,-1.248528,-0.60082746,7.383718,1.3838485,-2.5091233
1570715163,13.412318,-13.666103,14.020445,1.4967422,0.29082605,-1.7928947,7.7811556,-7.062895,9.44752
1570715163,9.595961,-16.19438,1.6041151,0.33876443,-1.2975317,-1.5627906,3.4955344,-9.988609,-2.920926
1570715163,5.544971,-11.324574,-1.910573,1.0280116,-0.89271885,-1.0333381,-0.12449849,-7.302315,-5.3199162
1570715163,1.6089035,-4.525041,4.43885,-0.088419646,-0.8234745,0.6604841,-4.9464207,1.2880806,0.038307227
1570715163,-0.9911995,-0.8858546,2.7724855,-0.68498594,-0.15659864,1.3550577,-6.7468605,4.711789,-1.1540052
1570715163,-5.142745,0.63206923,1.163582,-0.7627526,0.44422883,1.9612117,-10.323798,6.0621185,-2.2936451
1570715163,-3.5194764,3.916914,2.4372973,-1.7140628,-0.1054644,0.50388545,-10.869676,11.597513,-1.340753
1570715163,2.4181437,1.5131354,-0.90021986,-0.4559471,0.15553336,-0.22584295,-4.2042184,8.872911,-3.7205894
1570715163,9.44752,-7.465121,-11.27669,-0.98859555,2.1252675,-0.12890093,2.1212628,3.2704794,-11.204864
1570715163,21.988348,-47.649403,12.521675,0.43783703,-0.13635801,-1.0173585,15.160085,-38.407784,15.71554
1570715163,-3.466804,-1.7525556,8.6813755,0.9385266,-0.2865649,0.96302843,-9.208099,4.189853,3.074155
1570715163,2.4660277,-10.251971,6.229713,-1.8813144,2.2381887,0.18855755,-3.7684734,-0.94810385,0.80924016
1570715163,13.455414,-19.756952,5.7029886,-0.9278736,0.99711794,0.068179004,4.5537715,-11.027693,-0.79966336
1570715163,11.597513,-12.689269,4.5633483,-2.0602844,0.04900366,1.8035477,8.911219,-7.0341644,1.8579005
1570715164,3.7924154,-9.65821,9.969456,-2.1369855,1.0386645,1.7875682,0.31124622,-1.5945383,6.0525417
1570715164,4.6782703,-9.380483,6.2009826,-2.6611118,0.4112046,0.72333664,-0.10534488,-1.1875241,4.606444
1570715164,6.861782,-2.9352913,5.6359506,-2.271213,0.14594568,0.5443667,3.1316159,4.687847,3.7684734
1570715164,6.0238113,-0.009576807,4.525041,-1.2432015,-0.10759499,0.8905882,2.3127987,8.532935,2.8778305
1570715164,4.9895163,3.2082303,2.7006595,-0.3078708,-0.28123838,0.95450604,2.1212628,11.7268,2.6384103
1570715164,2.2601264,6.8091097,0.82360536,0.7297284,-0.84158456,0.8309316,-0.6560113,15.05474,-0.46926352
1570715164,-3.763685,3.7828386,0.18674773,1.7779806,-1.2730298,0.21838588,-6.4882865,13.551182,-1.8100165
1570715164,-1.2785037,-2.360683,0.31124622,3.0158556,-1.5393541,-1.0791458,-5.631162,7.350199,-2.2457612
1570715164,-2.930503,-25.43121,12.794614,3.7253435,-1.2123079,-1.3603842,-5.3725886,-11.377247,8.298303
1570715164,7.1730285,-22.984337,3.4763808,1.5255052,-0.07457078,-3.9011173,-0.04309563,-17.592594,3.53863
1570715164,9.792285,-15.150508,0.50278234,2.6653728,-1.4157796,-1.4541303,4.9416323,-8.872911,-4.654328
1570715164,13.541605,-9.993398,3.0310593,2.3692205,-1.0525134,-0.81495214,7.867347,-3.2034419,-1.1971009
1570715164,15.433024,-11.21444,10.91756,1.7683929,-0.057526033,-1.4477385,9.56723,-4.9416323,6.172252
1570715164,10.7356,-12.354081,3.6727054,0.57739097,-1.1558472,-1.4285632,4.477157,-6.4882865,-1.0821792
1570715164,4.5058875,-10.754754,0.5267244,0.6785942,-1.2165691,-0.85756403,-2.1260512,-5.195418,-4.084508
1570715164,1.4030021,-3.5913026,4.501099,-0.117182665,-0.5592809,0.38670278,-5.3582234,1.8962077,0.0
1570715164,-1.8579005,-0.521936,2.992752,-0.7254672,0.07350549,1.5627906,-8.48984,5.2528787,-1.340753
1570715164,-5.889736,1.6711528,0.80445176,-1.080211,0.29828313,2.1476386,-12.100295,7.9583263,-3.4332852
1570715164,-2.4899697,2.8107927,2.767697,-1.833376,0.12677033,0.32598087,-8.422802,9.528923,-1.2018893
1570715164,2.6719291,0.7134721,-2.3319526,-0.29934844,0.040481284,-0.41226992,-3.2992098,7.503428,-6.1195793
1570715164,9.370906,-16.07467,-1.9632454,-1.1643696,3.4078848,-0.24821419,3.5003228,-9.284714,-5.9184666
1570715164,10.151415,-14.135366,-2.0111294,0.7041613,-0.85756403,-0.9236124,4.2425256,-7.5321584,-6.220136
1570715164,1.4173675,-0.076614454,5.3438582,0.35474387,-0.60508865,0.39735577,-4.4005427,6.4882865,0.9576807
1570715164,1.292869,-14.585477,3.572149,-1.9825176,2.134855,-0.19707993,-4.3526587,-7.824251,-0.7326257
1570715164,15.002068,-23.405716,7.5321584,-0.6711371,0.19388404,0.4857754,9.428367,-16.486473,3.371036
1570715164,9.126697,-9.667787,4.453215,-1.639492,0.014914157,2.1146145,3.916914,-2.3080103,0.58418524
1570715164,3.8786068,-9.021352,9.998186,-2.4906642,0.89271885,1.6171207,-1.7238252,-1.1587936,6.4643445
1570715164,4.1371803,-9.543288,5.923255,-2.7974699,0.30254433,0.5997622,-1.1827357,-1.5466543,2.456451
1570715164,6.6846113,-3.514688,5.4539914,-2.213687,0.16192514,0.81282157,2.432509,5.00867,3.1268275
1570715164,6.105214,-0.37828386,6.4164605,-1.3401436,-0.03835069,1.1750225,2.1021092,8.020576,4.486734
1570715164,5.133168,0.1340753,6.114791,-0.82453984,0.15766394,1.122823,1.2354081,9.069236,3.2273839
1570715164,2.9257145,6.4739213,-0.35913026,0.14807628,-0.7009654,0.6796594,0.090979666,14.365211,-0.36391866
1570715164,-0.91458505,5.171476,-0.49799395,1.8365719,-1.3433394,0.32917675,-3.5242648,15.413871,-1.5801731
1570715164,-2.5809495,0.6799533,1.6136919,2.4693582,-1.5073951,-0.5923051,-5.899313,10.6637745,-0.35913026
1570715165,-0.8523358,-10.5919485,7.015011,3.7370617,-1.5702477,-1.5010034,-5.118803,2.2457612,2.3175871
1570715165,5.731719,-32.98252,13.532028,2.8475387,-1.3390783,-3.6081607,-0.4261679,-29.20926,11.147403
1570715165,8.418014,-13.962984,-2.5091233,2.0411088,-1.1665001,-1.7140628,4.050989,-8.920795,-6.2345014
1570715165,7.2113357,0.0047884034,0.8810662,3.15754,-0.65196174,-0.93426543,-0.15801731,3.0262709,-4.19943
1570715165,16.989256,-15.801731,14.987702,2.0336518,-0.37178862,-1.7982212,10.692505,-8.78672,12.464214
1570715165,12.837709,-14.978126,3.098097,0.79151565,-0.12570503,-1.209112,7.1107793,-9.816227,-0.9768343
1570715165,6.133945,-10.769119,1.8722657,1.366776,-1.1089741,-0.800038,0.39264908,-7.0006456,-3.4620156
1570715165,2.954445,-4.2521024,5.5018754,-0.37498453,-0.9140248,0.41013932,-3.6343982,0.009576807,-0.076614454
1570715165,2.1212628,-1.3982137,4.1036615,-1.1143006,0.04793836,1.3199029,-4.357447,3.9552212,-0.11492168
1570715165,0.24420857,-0.5363012,3.490746,-1.2687687,0.30893612,2.1497693,-5.741296,4.6160207,-0.7086837
1570715165,-1.934515,3.6248214,1.7669208,-1.5329623,0.15553336,1.7193892,-7.943961,10.041282,-2.566584
1570715165,-2.1739352,-1.1827357,2.2266076,-0.93000424,0.30147904,0.3483521,-7.881712,6.4260373,-1.2210429
1570715165,3.1364043,-5.3342814,-9.844957,-0.89591473,1.3294905,-0.046873067,-3.8546648,3.7205894,-11.353305
1570715165,17.650055,-30.976181,15.844827,0.26099774,2.396918,-0.703096,12.200851,-24.042574,11.544841
1570715165,0.41180268,-0.94331545,6.6846113,0.3462215,1.0525134,-0.26099774,-4.132392,5.7029886,-1.1252748
1570715165,4.759673,-15.08347,2.5713725,-1.3177723,0.56354207,0.71161836,-0.7134721,-8.293514,-1.910573
1570715165,0.5554548,-16.371552,3.2752678,-2.0688066,0.8639558,0.71907544,-4.405331,-11.353305,0.2777274
1570715165,12.411542,-12.325351,10.462662,-1.7449564,-0.43037996,0.5113425,7.4363904,-4.8506527,6.50744
1570715165,4.4340615,-11.736377,6.363788,-2.5833452,1.0919293,1.6586673,-0.23942018,-3.8355112,2.9017725
1570715165,3.2513258,-11.884817,7.517793,-2.7069194,1.4306937,1.7257811,-0.8475474,-3.4811692,4.548983
1570715165,7.1059904,-6.3542113,6.2488666,-2.4416606,0.67326766,0.72014076,3.3806129,2.384625,3.8163576
1570715165,7.086837,-0.78529817,5.961562,-1.8035477,0.015979454,0.49642837,3.4955344,8.1402855,4.074931
1570715165,6.95755,1.4269443,7.3885064,-0.8724782,0.3483521,0.60508865,3.53863,10.481815,5.813122
1570715165,3.2800562,4.333505,2.777274,-0.10013791,-0.29402196,0.3835069,-0.01436521,13.450625,1.3215994
1570715165,-0.5506664,5.803545,1.9488802,1.2506586,-0.43570644,0.10013791,-3.8019924,14.911088,0.33039984
1570715165,-5.33907,1.7525556,-1.0247183,1.6576021,-0.8479764,-0.18110047,-7.97748,11.7268,-2.4229321
1570715165,-4.9943047,-4.405331,1.13964,1.9388404,-0.24714889,-1.6618632,-8.499416,6.196194,-1.1061212
1570715165,-1.0103531,-15.988479,9.361329,2.9338279,0.6551576,-2.3915915,-6.799533,-1.7908629,3.5673606
1570715165,20.748152,-31.866825,-0.50757074,1.6767774,0.25034478,-3.8553097,15.5671,-24.492683,-4.381389
1570715165,14.331692,-9.184157,-3.53863,2.6216958,-0.08735435,-0.46446946,12.354081,-4.817134,-8.801085
1570715165,14.298173,8.911219,6.775591,1.8781185,0.81708276,-1.9793217,6.5122285,18.20551,-2.2457612
1570715165,16.783354,-15.069105,18.258183,0.8224092,-1.5489417,-2.26056,10.82658,-8.834604,14.092271
1570715165,10.831368,-19.819202,-2.873042,0.92148185,-0.47938362,-1.2421362,5.497087,-13.962984,-3.6152446
1570715166,3.9695864,-7.40766,1.6807296,1.4541303,-1.0823417,-0.14381509,-2.0494366,-4.074931,-4.2425256
1570715166,3.064578,-2.2505496,5.032612,-0.23862651,-0.9332001,1.2655728,-3.787627,1.6903064,0.32561144
1570715166,1.283292,0.44532153,6.129156,-0.53904027,0.5177343,2.4086363,-5.0134583,6.3111157,1.9393034
1570715166,-0.16759412,1.0151415,2.9113493,-0.8426499,-0.33663383,2.4352689,-6.1387334,6.579266,-1.340753
1570715166,-1.5801731,-0.320823,2.4516625,-1.0834069,-0.9662243,1.1973938,-6.8761473,7.8625584,-2.4468741
1570715166,-2.6001031,-4.7022123,2.1021092,-0.9140248,-0.10972559,0.50921196,-8.494628,2.0733786,-2.2170308
1570715166,3.4572272,-5.142745,-7.0485296,-0.81282157,0.54649734,0.059656627,-3.4620156,2.5139117,-8.355764
1570715166,16.366762,-27.28911,9.437943,0.92148185,1.1057782,-1.2005897,6.9767036,-16.716316,4.8267107
1570715166,-1.4700398,-4.88896,2.801216,0.6967042,0.52519137,0.19175345,-7.1730285,1.9632454,-1.2737153
1570715166,6.799533,-12.272678,3.2513258,-0.839454,1.4136491,0.42505348,1.316811,-3.4811692,-1.2545617
1570715166,7.848193,-14.705187,5.5737014,-1.772654,0.2780425,0.23756121,2.9735985,-9.44752,1.1348516
1570715166,8.6334915,-15.456966,5.4539914,-1.392343,-0.053264845,1.2943357,4.3526587,-9.232041,1.8531121
1570715166,4.0462008,-9.44752,6.435614,-2.5705614,1.0333381,1.7098016,-0.19153613,-1.7812861,2.944868
1570715166,3.739743,-8.259995,5.827487,-3.0201168,1.0716888,1.3465353,-0.89543146,-0.01436521,3.3614593
1570715166,7.043741,-8.75799,4.4484267,-2.7324867,0.5923051,0.8277357,3.5625722,-0.6703765,3.5482068
1570715166,5.00867,-2.5905263,6.655881,-2.0997002,0.23010413,0.58484805,1.3311762,6.339846,4.9559975
1570715166,7.369353,1.3790601,7.666234,-1.0972558,0.36859274,0.85436815,3.8163576,9.945514,6.2584434
1570715166,4.5777135,3.5769374,5.5880666,-0.64237404,0.2418224,0.8810006,1.3503298,12.770672,4.4915223
1570715166,1.6041151,3.9360676,-0.6847417,1.0876682,-0.85117227,0.2759119,-1.4269443,13.742718,-1.1923125
1570715166,-0.272939,1.3455414,0.7565677,2.2296665,-0.7510343,-0.26632422,-3.3518825,10.534488,-0.7134721
1570715166,0.46447513,-3.3135753,3.572149,3.3066816,-0.7009654,-1.1281495,-2.882619,5.645528,1.4077905
1570715166,-0.7661445,-23.745693,8.51857,3.5506346,-1.0610358,-1.9058162,-4.5681367,-15.227123,5.497087
1570715166,8.920795,-23.252487,4.7979803,1.7460216,-0.26952013,-3.3034859,4.3047748,-15.370775,1.2114661
1570715166,10.371682,-17.918205,1.2785037,2.095439,-1.5052645,-1.3071194,5.1379566,-10.563218,-2.5617957
1570715166,12.339716,-4.783615,4.2904096,2.4448564,0.063917816,-1.4615874,6.7564373,2.1260512,0.12928689
1570715166,16.563087,-11.731588,8.580819,1.3934084,-1.1973938,-1.4690444,10.630256,-5.3678,4.0462008
1570715166,9.557653,-13.900735,2.7246015,0.7350549,-0.9289389,-1.1196271,3.2082303,-7.896077,-1.7286136
1570715166,2.3942018,-7.7907324,2.3319526,1.0610358,-1.122823,-0.2801731,-4.2042184,-2.054225,-2.1068976
1570715166,-0.18195933,-0.58418524,3.6248214,-0.067113705,-0.6498311,0.9332001,-6.8186865,5.1762643,-0.7230489
1570715166,-3.0693667,0.10534488,3.442862,-0.6072193,0.17683929,1.9292527,-9.461885,6.2249246,-0.7757214
1570715166,-8.183381,2.1547816,2.992752,-1.3912778,-0.43464115,1.3827554,-14.235924,8.719683,-1.043872
1570715166,-3.6056678,-1.412579,0.46447513,-1.1388024,0.56673795,-0.028763017,-9.591172,5.425261,-3.2130187
1570715166,1.9680338,-7.2065473,-4.3287168,-0.59656626,1.5595948,-0.60189277,-5.032612,2.2936451,-7.1490865
1570715167,23.865402,-23.1232,9.825804,0.29189137,1.2155038,-1.6746467,15.413871,-15.945383,6.244078
1570715167,7.1107793,-7.015011,2.4277205,0.32917675,0.7297284,0.39735577,2.27928,0.59855044,-0.6751649
1570715167,3.4093432,-18.669985,3.6535518,-1.5265706,0.96409374,1.1941979,-0.6991069,-10.764331,-1.2880806
1570715167,3.5003228,-15.969325,6.9479733,-1.7012792,0.1395539,1.2165691,-3.8786068,-9.227253,1.6472107
1570715167,11.60709,-12.732365,8.599973,-1.5223093,0.13422741,1.4125837,6.1626754,-5.8083334,4.132392
1570715167,5.6646814,-9.466674,7.5848308,-2.3330002,1.1313454,1.8791838,2.0207062,-1.2354081,3.8067808
1570715167,3.9935284,-9.303867,6.5218053,-2.400114,0.6999001,1.424302,-0.58418524,-1.5370775,3.667917
1570715167,4.841076,-4.3478703,5.056554,-2.3670897,0.16831692,0.61787224,1.3024458,3.2513258,2.72939
1570715167,6.2871737,0.51235914,5.161899,-1.7311075,-0.40055165,0.77340555,2.504335,8.939949,3.667917
1570715167,5.4922986,1.6472107,4.10845,-0.68072474,0.07670138,0.94278777,2.1739352,10.635044,3.169923
1570715167,3.5673606,6.7085533,1.2066777,0.56673795,-0.4538165,0.76168734,1.0582372,15.298949,1.8866309
1570715167,-1.2258313,4.975151,0.22984336,1.9761258,-1.1398677,0.42505348,-3.0310593,15.787366,0.18674773
1570715167,-2.3463178,0.15801731,2.3223755,2.4235506,-1.1505207,-0.6285252,-5.8322754,9.959879,-0.29209262
1570715167,-1.1300632,-12.995727,8.748413,3.4100156,-0.5891092,-1.5638559,-4.098873,-0.5602432,3.0693667
1570715167,4.4484267,-36.051888,12.65575,2.640871,-1.5627906,-3.6230748,-3.0550013,-30.660147,14.077906
1570715167,13.010092,-17.96609,-1.2258313,2.0475006,-1.2400056,-2.087982,8.169016,-12.62702,-5.2289367
1570715167,11.080365,-4.146757,1.2018893,2.7101154,-0.9001759,-0.62213343,4.76925,-0.6895301,-4.185065
1570715167,13.656527,-11.525687,14.676456,1.728977,0.011718267,-1.442412,8.528147,-3.371036,11.305421
1570715167,10.132261,-14.389153,2.705448,0.60828453,-1.2964664,-1.3039235,4.2999864,-7.8146744,-0.47884035
1570715167,5.1906295,-11.33894,-0.6799533,1.1643696,-0.8011033,-0.7840586,-0.59855044,-7.4268136,-5.770026
1570715167,2.3654714,-3.7205894,3.2273839,0.4154658,-0.76168734,0.2769772,-4.280833,1.8674773,-1.3215994
1570715167,-6.603208,1.3263878,-0.0047884034,-0.95024484,0.72333664,2.3330002,-11.798626,6.7229185,-3.5577838
1570715167,-6.603208,1.3263878,-0.0047884034,-0.95024484,0.72333664,2.3330002,-11.798626,6.7229185,-3.5577838
1570715167,-6.7229185,5.45878,2.5378537,-1.930318,0.14914156,1.0834069,-12.411542,12.258312,-1.6472107
1570715167,2.1739352,0.50757074,-3.5051112,-1.0844723,0.5880439,0.15340276,-3.4045548,7.560889,-7.4124484
1570715167,14.159308,-29.683313,20.235792,0.4868407,3.4664762,-0.84904164,8.825027,-22.582111,16.069881
1570715167,4.1371803,-5.813122,0.6991069,0.53264844,1.2549198,-0.21945117,-1.5179238,0.8619126,-3.7253778
1570715167,3.2130187,-9.643845,1.5993267,-1.0589051,0.12890093,0.6626147,-2.2840683,-2.8682537,-2.873042
1570715167,2.2218192,-17.51119,7.5225816,-2.1849241,1.9015551,0.11292148,-2.9592333,-10.381259,3.217807
1570715167,13.01488,-15.729905,7.785944,-1.6299043,0.2418224,0.87993526,7.9822683,-8.331821,3.7588966
1570715167,5.104438,-9.059659,7.991845,-2.0965044,1.4583915,1.6618632,0.50278234,-1.2354081,4.2664676
1570715167,3.9600096,-8.734048,9.045294,-2.7921433,1.1462595,1.3902125,-0.18674773,-0.7613561,5.947197
1570715167,5.45878,-8.312668,5.592855,-2.8049269,0.68179005,0.50921196,1.6424223,0.31603462,2.930503
1570715167,5.329493,-0.770933,6.5840545,-2.292519,0.3845722,0.48044893,1.6663644,8.0924015,4.5441947
1570715168,6.3302693,1.3215994,5.90889,-1.2570504,0.47405714,0.78192794,2.873042,10.34774,4.271256
1570715168,5.650316,3.7732618,3.6583402,-0.5358444,0.24608359,0.77020967,2.4133554,12.919112,2.2218192
1570715168,3.3135753,7.675811,0.37828386,1.0493175,-0.527322,0.4506206,1.0055647,17.132908,-0.5746084
1570715168,0.31124622,4.012682,1.9776106,2.1284633,-1.3305559,0.08096257,-3.3614593,12.923901,-1.685518
1570715168,0.8283938,-3.845088,3.7301662,3.1713889,-1.7140628,-1.0674275,-2.695871,7.019799,-0.05267244
1570715168,-0.47884035,-29.865273,11.252748,3.8798115,-2.1518998,-1.9473628,-4.4101195,-15.471332,6.2967505
1570715168,6.3063273,-21.638796,3.53863,1.022685,0.011718267,-3.6241403,0.33997664,-16.218323,1.982399
1570715168,5.521029,-11.798626,1.4939818,2.6184998,-1.8940979,-1.4104532,-0.023942016,-5.544971,-3.169923
1570715168,13.761871,-10.850522,14.346057,3.0733817,1.0908641,-1.2570504,5.4683566,-0.9911995,7.177817
1570715168,19.867086,-16.989256,2.0733786,1.6043372,-0.8724782,-1.0684928,14.164097,-11.391612,0.17238252
1570715168,9.136273,-11.056423,1.0295067,1.6320349,-0.965159,-0.59656626,5.2480903,-6.181829,-4.4819455
1570715168,1.7477672,-6.129156,4.735731,0.4857754,-1.5095258,-0.06178722,-4.405331,-1.2018893,-1.043872
1570715168,-0.33039984,-1.3599066,4.3382936,-0.5358444,-0.789385,0.91828597,-6.6606693,3.6535518,0.29209262
1570715168,-2.7820623,-0.90979666,1.0247183,-1.1068435,0.018110048,2.0315213,-8.805874,5.1235914,-2.6719291
1570715168,-4.3239284,4.1276035,0.45489833,-1.5883577,0.12996623,1.6331002,-10.611102,9.490616,-4.4819455
1570715168,-1.2689269,1.043872,1.685518,-1.3326864,0.62639457,0.28336897,-7.589619,8.978256,-2.27928
1570715168,3.107674,-2.4372973,-7.038953,-0.35474387,1.3603842,-0.19068815,-3.8019924,6.1626754,-7.0724716
1570715168,23.712173,-43.06211,15.753847,1.0205544,1.3752984,-2.0144765,13.493721,-28.840553,14.025233
1570715168,-1.4652514,-2.0015526,8.75799,0.9118942,1.0876682,0.30254433,-5.693412,3.6727054,0.047884032
1570715168,6.0381765,-14.192827,3.8115692,-1.8525513,0.70735717,0.54330146,-0.33518824,-4.271256,-1.091756
1570715168,2.3654714,-17.578228,2.5570073,-1.97293,0.9694202,0.32917675,-3.0550013,-10.6158905,-1.7190368
1570715168,15.792154,-12.0571995,9.155427,-1.5819659,-0.2823037,1.140933,10.879252,-6.6606693,7.455544
1570715168,4.5394063,-10.371682,8.872911,-2.2115564,1.1792837,2.127398,0.78050977,-2.1164744,4.0174704
1570715168,1.8052281,-12.794614,7.3549876,-2.5726922,0.82880104,1.8802491,-2.3463178,-4.5441947,4.050989
1570715168,5.233725,-8.748413,4.88896,-2.938089,0.57952154,0.6903124,1.436521,-0.110133275,2.207454
1570715168,4.6591167,-1.1971009,5.305551,-2.4214199,0.21412468,0.4911019,1.0199299,7.6853876,3.2944214
1570715168,6.4499793,1.7429788,4.783615,-1.2453321,0.31958908,0.9321348,2.815581,10.505757,3.787627
1570715168,6.8569937,4.927267,2.791639,-0.3845722,0.01384886,0.93000424,3.6966474,14.111424,1.4556746
1570715168,2.432509,7.2831616,-0.21547815,1.3017929,-0.7670138,0.74783844,-0.50757074,16.52478,-1.6519991
1570715168,-1.9153614,2.504335,1.0534488,2.289323,-1.4988728,0.29828313,-4.759673,11.693281,-0.8283938
1570715168,-1.4652514,-5.032612,3.5529952,2.866714,-1.5521376,-1.2314832,-4.5681367,3.9360676,1.091756
1570715168,-3.0693667,-27.825413,14.513651,3.4185379,-1.1888714,-1.9292527,-6.703765,-19.28769,11.334151
1570715168,7.881712,-26.997019,2.6671407,1.1590431,-0.088419646,-4.1131115,3.2513258,-19.129671,-0.91937345
1570715169,9.097966,-13.306973,0.15801731,2.4352689,-2.0293906,-1.3326864,3.7588966,-6.033388,-3.6822822
1570715169,14.235924,-1.5658079,10.0269165,2.5844104,1.3689066,-1.4914157,8.590396,5.21936,5.7508726
1570715169,14.010868,-13.115437,7.350199,1.022685,-1.0823417,-1.4892851,8.087613,-6.823475,2.705448
1570715169,7.52737,-14.18325,0.51714754,0.73185897,-0.81282157,-1.2186997,1.2162545,-8.240842,-4.0701427
1570715169,3.122039,-5.4204726,1.8914193,0.58484805,-0.58484805,-0.3824416,-3.4237084,0.24899697,-2.705448
1570715169,1.9009962,-2.1978772,3.6248214,-0.38883337,-0.5646074,0.8266704,-4.654328,3.5482068,-0.8571242
1570715169,-2.1452048,-1.4269443,3.2465374,-0.92254716,0.0074570784,1.9345793,-8.461109,4.7070007,-1.067814
1570715169,-7.043741,3.3279405,1.8052281,-1.3081846,0.50388545,1.5010034,-12.971785,9.940725,-2.3511062
1570715169,-3.2273839,2.8874073,2.0254946,-1.2059162,0.26952013,0.005326485,-10.247183,10.376471,-1.2449849
1570715169,2.9879637,-4.606444,-3.8786068,-0.47618774,1.9399058,-0.96409374,-1.8148049,-1.6376339,-7.8529816
1570715169,24.660278,-28.390444,9.203311,0.81601745,1.1846102,-2.3308697,16.601395,-19.503166,9.811439
1570715169,3.5769374,-9.753978,1.1348516,-0.31106672,0.08628905,1.0876682,-1.2114661,-1.5035586,-2.2888567
1570715169,2.5474305,-18.851944,7.1155677,-1.5894231,0.85543346,1.2517239,-0.92895025,-12.08593,1.8435353
1570715169,4.7070007,-14.5088625,7.0820484,-1.9580158,0.50814664,0.49962425,-3.3183637,-7.053318,1.0390835
1570715169,10.180145,-11.022904,7.2831616,-1.980387,0.54223615,1.1132354,5.559336,-4.285621,4.644751
1570715169,5.0134583,-10.888829,9.380483,-2.2754743,1.5627906,2.0251296,0.9959879,-2.7629087,5.7604494
1570715169,6.2392898,-9.672575,5.511452,-2.3468492,0.6785942,1.1164312,1.9919758,-1.7190368,4.280833
1570715169,6.3829417,-3.8402996,5.233725,-2.5013173,0.02130594,0.37391922,2.3894134,3.6104562,2.930503
1570715169,6.1004257,-1.364695,3.514688,-1.9452322,-0.19814523,0.7925809,2.3511062,7.489063,2.1930888
1570715169,5.793968,1.8195933,3.2321723,-0.6871165,0.27271602,1.0205544,2.0973208,8.700529,0.31124622
1570715169,2.9161377,7.5465236,3.1890767,0.5816521,0.08522376,1.14839,0.5650316,17.219099,1.2066777
1570715169,-3.0693667,6.2632318,0.9816227,1.553203,-0.67326766,0.46446946,-5.884948,15.413871,-1.2066777
1570715169,-1.3982137,-0.2681506,3.4524388,2.468293,-1.1590431,-1.1089741,-4.663905,10.46745,0.8475474
1570715169,-0.21068975,-13.110648,7.843405,2.9551337,-0.64343935,-1.9164692,-3.5625722,-1.4269443,1.5514427
1570715169,3.3518825,-42.248085,15.342045,3.386579,-2.0634801,-2.9838967,-0.89064306,-34.112587,11.87524
1570715169,12.612655,-16.328455,-3.3518825,2.536472,-2.1518998,-1.8461596,8.355764,-11.702858,-6.0525417
1570715169,10.644621,3.3614593,1.7381904,2.5769532,-0.79045033,-0.70735717,4.1515455,5.861006,-5.530606
1570715169,13.910312,-13.091495,18.152838,1.8291148,0.8351928,-1.5936842,8.173804,-6.612785,13.52724
1570715169,8.762778,-15.298949,2.6048915,0.31319728,-1.0301422,-1.2069814,2.6431987,-9.179369,-2.006341
1570715169,3.916914,-11.267113,-3.0262709,1.5819659,-0.9108289,-0.77020967,-2.5139117,-5.4779334,-7.6375036
1570715169,1.4700398,-4.8937483,2.8634653,0.44103295,-0.95663667,0.6402435,-5.085284,0.7422025,-1.757344
1570715169,0.5506664,-1.6089035,3.8594532,-0.9534408,-0.40481284,1.5510724,-5.889736,4.3047748,-0.56982
1570715169,-3.289633,1.3120226,1.1300632,-1.0312074,0.31958908,1.5958148,-9.423578,7.6949644,-3.0789435
1570715170,-2.8682537,0.34955344,1.5131354,-1.2954011,0.19707993,0.8522375,-8.743625,7.091625,-2.4995465
1570715170,1.4987702,-1.1971009,-0.33997664,-0.66368,0.30893612,0.7244019,-4.209007,5.7843914,-4.185065
1570715170,5.60722,-9.639056,-5.511452,-1.5052645,2.0581536,0.7989727,-0.46447513,0.6512229,-7.398083
1570715170,17.822437,-22.85505,8.279149,0.42611876,0.14807628,-2.27867,12.545617,-15.672444,4.175488
1570715170,0.8810662,-3.0071173,2.6527755,-0.122509144,0.52093023,0.014914157,-4.5298295,4.0701427,-1.4413095
1570715170,3.1651347,-19.01475,6.0477533,-1.9068816,2.1593568,1.2964664,-1.9057846,-11.674128,1.9728222
1570715170,5.7125654,-18.32043,5.7748146,-1.7204546,1.2314832,0.8937841,-0.6703765,-10.716447,0.22026655
1570715170,9.107543,-10.82658,4.429273,-2.3330002,0.15872924,1.1292148,4.6686935,-2.7820623,0.9864111
1570715170,3.5529952,-13.532028,9.437943,-2.9093258,1.6597326,1.6842345,-0.01436521,-4.4484267,5.5401826
1570715170,6.540959,-9.385271,7.2544312,-3.095753,0.9310695,0.83306223,2.456451,-2.4181437,5.9184666
1570715170,7.4124484,-2.0207062,5.0517654,-2.6398058,0.26099774,0.3163932,4.367024,5.875371,4.012682
1570715170,6.301539,1.8674773,5.1571107,-1.2357445,-0.28549957,0.79471153,3.0550013,11.061212,4.0940847
1570715170,4.3287168,2.4516625,5.731719,-0.43996763,-0.15659864,0.9406572,1.5466543,11.96622,4.31914
1570715170,3.9839516,4.5202527,1.340753,0.9097636,-0.9374613,0.6253293,0.9528923,13.608643,0.8810662
1570715170,-0.038307227,3.9217024,0.23942018,2.0826554,-1.1633042,0.32278496,-1.1300632,14.446613,0.29688102
1570715170,-3.0502129,-0.40701428,4.0940847,2.6003897,-1.0557092,-0.6114804,-6.4164605,9.466674,1.8579005
1570715170,-1.0247183,-17.616535,8.935161,3.6848621,-1.0312074,-1.5734435,-3.5577838,-3.667917,4.280833
1570715170,3.0071173,-29.807812,9.270349,2.3287392,-0.64876586,-3.9192274,-4.0174704,-24.463953,8.470686
1570715170,12.181698,-18.693928,1.6807296,2.2584295,-1.9835829,-2.3798733,6.3350577,-12.483368,-1.2354081
1570715170,13.905523,-8.058883,1.6663644,2.5854757,-0.60189277,-0.93426543,8.269572,-3.4859576,-3.3135753
1570715170,13.939042,-12.464214,10.208876,1.6693203,-0.57632565,-1.7119322,9.193734,-4.88896,8.465898
1570715170,9.002198,-14.60463,0.7374141,0.92574304,-1.3518618,-1.474371,4.31914,-7.9152308,-3.0454245
1570715170,0.82360536,-9.212888,1.8387469,1.2272221,-0.7925809,-0.80749506,-5.109226,-4.999093,-3.3327289
1570715170,-1.7860745,-1.6807296,1.685518,-0.014914157,-0.60508865,0.49962425,-7.7907324,3.0933087,-2.3989902
1570715170,-6.2488666,-0.7469909,1.1204864,-1.1324106,0.21518998,1.7481523,-12.689269,5.243302,-3.2082303
1570715170,-6.421249,4.1946416,2.657564,-1.8695961,0.6455699,1.3646454,-13.393165,10.228029,-1.5562311
1570715170,3.7205894,1.9488802,0.2681506,-1.2517239,-0.10972559,-0.14701098,-3.1842883,9.126697,-3.41892
1570715170,8.1163435,-0.4165911,-5.118803,-0.61041516,0.22477765,-0.419727,1.1540052,7.5848308,-7.1107793
1570715170,13.153744,-34.893097,20.561403,1.1792837,3.4792597,-0.47725302,7.3549876,-13.311762,6.191406
1570715170,-4.525041,-6.291962,-2.8060043,1.122823,-0.41226992,1.4978075,-7.2687964,-5.4444146,-11.262324
1570715170,-4.606444,0.36870706,7.2783732,-1.334817,1.2389404,1.1675655,-10.13705,7.249643,3.0119057
1570715170,8.034941,-20.772095,1.2545617,-2.4704237,1.4892851,-0.46127358,2.7868507,-13.546393,-2.801216
1570715170,14.130578,-18.789696,8.90643,-2.2072952,0.08096257,1.4860892,9.064447,-11.319786,5.0613422
1570715170,3.821146,-7.489063,8.135497,-2.2179482,1.0706234,1.8568126,-0.7086837,0.51714754,4.7500963
1570715171,3.6631286,-7.6614456,7.541735,-3.1372995,0.73185897,0.4559471,-0.50278234,0.7469909,4.6926355
1570715171,7.321469,-2.2218192,4.975151,-2.6312835,0.32171968,0.15553336,3.217807,6.421249,2.8299465
1570715171,7.8769236,1.1683705,5.693412,-1.3774289,-0.07776668,0.82560515,3.9312792,9.993398,4.0462008
1570715171,5.2002063,3.5434184,4.687847,-0.1054644,-0.05113425,1.0386645,1.5131354,12.50731,3.2130187
1570715171,1.1540052,6.3685765,1.9536686,1.0961906,-0.64450467,0.88419646,-2.2744915,15.413871,0.36391866
1570715171,-2.4420857,3.7062242,-0.82360536,1.9281875,-1.3316212,0.15979454,-5.78918,12.717999,-2.743755
1570715171,-2.6527755,-1.2880806,4.295198,2.3074331,-1.1270841,-0.88313115,-6.172252,9.801862,-0.009576807
1570715171,-1.3359646,-9.165004,2.9352913,1.9313834,-0.82880104,-2.156161,-5.3678,-0.6847417,0.10055647
1570715171,4.390966,-38.350323,20.326773,3.5644836,-1.8791838,-2.4832072,-1.3311762,-20.379444,12.957419
1570715171,16.089035,-20.982784,-3.5529952,2.1337898,-0.18642697,-1.9612117,10.132261,-13.781025,-7.2304893
1570715171,8.916007,6.83784,-0.48362875,2.8262327,-1.3028581,-1.2527891,2.9640217,13.565547,-4.414908
1570715171,14.647726,-11.080365,17.999609,1.5830313,-0.15127216,-1.2080467,8.475474,-4.855441,13.594277
1570715171,6.9862804,-15.332468,8.063671,0.058591332,-0.98859555,-1.191002,1.757344,-8.537724,5.506664
1570715171,3.7349546,-15.62456,-4.156334,1.2815522,-1.0525134,-0.5177343,-2.705448,-11.971008,-7.5848308
1570715171,3.5434184,-5.046977,1.2210429,0.4548818,-0.6700718,0.77020967,-3.7014358,1.8339585,-4.2042184
1570715171,0.79008657,-1.8674773,4.4963107,-1.012032,0.07670138,1.7087363,-5.094861,4.10845,-0.46447513
1570715171,-2.1643584,0.5267244,2.4516625,-1.5393541,0.21945117,1.8791838,-8.058883,6.172252,-0.91458505
1570715171,-5.0517654,0.8858546,1.9680338,-1.2613115,0.5646074,0.81282157,-10.67814,8.336611,-2.183512
1570715171,-1.7956513,0.31124622,-0.9720459,-0.8266704,0.14061919,-0.026632423,-8.585608,7.053318,-3.4476504
1570715171,6.2249246,-6.3446345,-11.161768,-1.3891472,2.9338279,-0.2759119,-0.7038953,4.1180267,-13.857639
1570715171,26.839,-38.95845,13.43626,0.9768773,0.14274979,-2.3095639,17.937359,-34.203564,16.711529
1570715171,0.05267244,-0.7565677,5.7987566,0.32917675,-0.30041373,0.9044371,-5.1235914,4.237737,1.9297266
1570715171,1.3024458,-15.155296,7.201759,-1.7673277,2.0933084,0.87460876,-4.3861775,-5.7508726,2.5378537
1570715171,12.957419,-21.830332,4.2521024,-1.0248157,0.5475626,0.5475626,5.0900726,-12.928689,-1.5131354
1570715171,8.848969,-11.841722,4.2425256,-2.1657486,0.13103153,2.0901127,6.4882865,-6.066907,1.283292
1570715171,1.5466543,-11.200075,10.548853,-2.612108,0.9747467,1.4413468,-2.4277205,-2.3223755,7.053318
1570715171,5.2002063,-6.83784,6.143522,-3.003072,0.4825795,0.15872924,0.04309563,0.47884035,4.232949
1570715171,7.4986396,-0.25857377,6.009446,-2.0538924,0.23116943,0.39415985,3.7972038,7.73806,4.6351743
1570715171,6.244078,0.80445176,4.9224787,-1.1334759,-0.05646074,0.9491796,2.6384103,9.65821,4.146757
1570715171,3.6774938,3.9025488,4.1515455,-0.05539544,-0.3440909,1.0823417,0.37349546,11.741165,2.9879637
1570715171,1.9967642,6.0477533,0.22505496,1.4946116,-1.2037855,0.5241261,-0.9959879,15.433024,-0.60812724
1570715171,-0.40701428,3.0550013,-0.50757074,2.1977077,-1.610729,-0.01065297,-3.7780502,12.105083,-2.1978772
1570715171,-1.1587936,-3.040636,5.2624555,2.7431395,-1.3870167,-1.2911398,-4.7884035,8.259995,3.8594532
1570715172,0.08140286,-10.692505,7.1730285,3.0829694,-1.1569124,-1.7833071,-4.0797195,-2.2601264,4.381389
1570715172,9.883265,-41.14675,12.603078,2.995615,-2.3223474,-3.0893612,4.960786,-33.37996,9.184157
1570715172,7.9104424,-17.525557,-1.2641385,3.2747228,-2.4842725,-0.4474247,4.256891,-11.9374895,-5.4204726
1570715172,10.730812,1.1540052,5.2720323,2.5631044,0.23116943,-1.5894231,4.817134,7.809886,1.163582
1570715172,12.162544,-13.723564,13.311762,0.91722065,-1.2016549,-1.1760879,6.0238113,-7.5082164,8.844181
1570715172,7.920019,-15.184027,0.35434186,0.771275,-1.0375992,-0.8522375,1.4413095,-9.227253,-3.9791632
1570715172,2.2218192,-4.2425256,-1.043872,0.9385266,-0.6647453,-0.15659864,-4.4580035,1.4556746,-5.401319
1570715172,1.1444284,-0.3878607,2.3654714,-0.7638179,-0.8021686,1.0333381,-5.535394,5.439626,-1.8243817
1570715172,-2.96881,0.92416185,2.8491,-1.7321728,0.4559471,2.2179482,-9.323022,7.273585,-1.0726024
1570715172,-6.0621185,4.414908,2.5905263,-1.550007,1.280487,1.4892851,-12.129025,11.314998,-1.2210429
1570715172,-1.2689269,0.8858546,-0.4261679,-1.1057782,-0.30147904,-0.040481284,-6.9623384,8.030152,-3.9839516
1570715172,4.807557,-3.4045548,-6.3925185,-0.6231987,1.6405573,-0.5550197,-0.91458505,3.7541082,-9.873688
1570715172,24.224533,-41.438843,19.13446,0.75209963,1.8163313,-1.6533408,18.598158,-34.42862,15.203181
1570715172,-0.31603462,-5.693412,0.94810385,0.82453984,-0.2098635,0.5944357,-2.183512,-3.6391866,-6.349423
1570715172,3.9935284,-12.41633,6.8426285,-1.9377751,1.3497312,0.6157416,-1.5658079,-5.353435,2.920926
1570715172,4.1180267,-20.432117,1.9632454,-1.9217957,1.4807627,0.37072334,-1.9632454,-13.062764,-1.1540052
1570715172,14.053964,-15.394717,11.841722,-1.9143386,0.65089643,1.259181,8.78672,-9.931149,7.8865004
1570715172,4.9320555,-8.039729,10.304645,-2.3042374,1.7460216,1.8706614,1.316811,-0.14844051,4.999093
1570715172,4.721366,-11.075577,7.2783732,-2.8784323,0.8714129,1.1015171,0.320823,-2.4708161,5.1666875
1570715172,6.0764837,-3.0454245,5.401319,-2.5737574,0.40268224,0.41866168,2.4660277,4.1515455,3.1651347
1570715172,5.650316,0.63206923,5.4300494,-1.3795595,0.0,0.74996907,2.1404164,9.241618,4.060566
1570715172,4.390966,2.8203697,3.9695864,-0.5156037,-0.025567126,0.77020967,1.2114661,11.410766,2.767697
1570715172,2.4995465,6.7803793,1.7525556,1.1920673,-0.65622294,0.44103295,0.0,15.8783455,1.2497733
1570715172,-0.8523358,5.2528787,-0.24420857,2.2179482,-1.2623769,0.30147904,-3.0262709,15.241488,-1.3215994
1570715172,-0.94331545,-2.384625,1.7669208,3.1298423,-1.3380129,-0.8980453,-4.3766007,6.4978633,-0.5650316
1570715172,-0.50278234,-22.256498,14.33648,4.3442807,-1.1814142,-1.3017929,-3.098097,-6.8761473,7.699753
1570715172,8.676587,-27.844566,6.445191,1.4051267,-0.5891092,-4.3346934,1.283292,-23.300371,7.551312
1570715172,9.964667,-16.859968,0.2777274,2.6142387,-2.069872,-1.4796975,6.133945,-10.697293,-3.6343982
1570715172,13.330915,-4.1802764,8.734048,3.2693963,1.3795595,-1.7300422,5.1379566,2.4372973,-0.320823
1570715172,15.20797,-14.4849205,7.9248075,1.4008654,-1.6544062,-1.5574641,9.878476,-8.978256,6.6367273
1570715172,7.953538,-13.819332,-0.22026655,1.1856755,-1.1143006,-1.1164312,3.0885203,-8.173804,-4.4675803
1570715172,1.4077905,-5.305551,1.8339585,0.87460876,-1.4125837,0.053264845,-4.9703627,-1.7764976,-3.5625722
1570715172,-2.1643584,0.21547815,1.9009962,-0.7659485,-0.3845722,1.1601083,-8.020576,5.1379566,-2.72939
1570715173,-6.909666,1.1731589,0.07182605,-1.3145764,0.92041653,2.4927948,-12.5504055,6.215348,-3.4237084
1570715173,-4.3861775,4.1659107,0.521936,-2.1337898,-0.089484945,1.0972558,-12.679692,10.596737,-2.3654714
1570715173,4.0701427,1.5466543,-0.24420857,-0.71161836,0.60508865,-0.19281875,-2.2601264,8.576031,-4.2281604
1570715173,6.363788,-2.695871,-3.1316159,-0.24501829,1.8301802,-0.18323107,0.5506664,5.482722,-5.4444146
1570715173,16.01721,-33.485306,13.196839,0.5880439,2.4853377,0.5518238,10.548853,-26.580427,8.868123
1570715173,-0.2777274,-1.6807296,4.5441947,1.5649211,-0.771275,0.34302562,-6.0142345,3.098097,-3.3566709
1570715173,0.4357447,-5.8226986,5.449203,-0.8053645,0.487906,0.7265325,-5.2289367,0.79487497,0.9528923
1570715173,0.59855044,-18.947712,-0.81402856,-1.8163313,1.4935462,-0.19921052,-4.7500963,-12.042834,-5.2720323
1570715173,14.820108,-19.330784,14.178462,-1.316707,0.82880104,0.7009654,9.624691,-12.301409,9.725247
1570715173,4.8745947,-8.1163435,8.916007,-1.8749226,1.5404193,1.6639938,0.11971009,-0.59376204,4.793192
1570715173,2.944868,-10.232818,8.987833,-2.7964044,1.266638,0.9619631,-1.3359646,-2.255338,5.209783
1570715173,7.896077,-6.603208,6.8426285,-2.730356,0.818148,0.79045033,3.9073372,1.7669208,3.6487634
1570715173,6.631939,-3.1747115,5.554548,-2.0634801,0.25460598,0.9832691,2.9161377,5.506664,2.9161377
1570715173,5.7269306,-0.9816227,4.8602295,-1.3774289,0.26632422,1.0205544,2.3080103,7.9343843,2.6288335
1570715173,3.9456444,3.8738184,3.572149,-0.78192794,-0.067113705,0.7659485,0.7661445,12.943054,1.6136919
1570715173,0.17238252,5.329493,-0.8714894,0.5944357,-0.79471153,0.36859274,-2.873042,14.451402,-2.7868507
1570715173,-0.33518824,3.3039982,1.3503298,1.7055404,-1.0344033,-0.60402334,-3.3279405,12.330139,-0.82360536
1570715173,-0.30166942,-2.2409728,3.2513258,2.5087743,-1.2783563,-1.492481,-3.845088,6.5122285,0.60333884
1570715173,0.79008657,-18.420988,12.722788,3.422799,-1.2442669,-1.4381509,-3.1411927,-3.0310593,6.83784
1570715173,9.763555,-29.592333,4.721366,1.6533408,-0.8351928,-3.892595,3.1364043,-26.187778,8.001422
1570715173,8.183381,-12.818556,0.6847417,2.7719026,-2.2808008,-0.57206446,2.7150247,-5.755661,-3.371036
1570715173,11.075577,1.9153614,7.1873937,2.2360582,0.7371855,-1.4839586,3.940856,8.350976,-1.3599066
1570715173,13.220781,-13.79539,12.5504055,1.3454701,-1.0375992,-1.54255,7.3549876,-7.369353,11.33894
1570715173,11.070788,-16.050728,-2.207454,0.7041613,-1.1270841,-1.3305559,5.6886234,-9.801862,-5.2624555
1570715173,3.2992098,-4.903325,1.9440918,0.83306223,-0.9108289,-0.37178862,-3.4332852,0.521936,-2.6719291
1570715173,1.0630256,-1.1923125,5.1762643,-0.47938362,-0.5816521,0.7840586,-5.875371,2.8921957,0.80445176
1570715173,-0.6464345,0.31124622,3.1507695,-1.2730298,-0.25886714,1.7822418,-6.9144545,6.253655,-0.4357447
1570715173,-1.316811,1.8626889,1.4987702,-1.1579778,-0.22477765,1.8525513,-7.776367,7.6470804,-2.7820623
1570715173,-0.6655881,0.80924016,1.0199299,-1.0130974,-0.15340276,1.0514481,-6.919243,8.403648,-2.6719291
1570715173,-0.5315128,-1.9776106,-0.6703765,-0.6285252,1.162239,0.21732058,-6.325481,5.410896,-3.4332852
1570715173,7.479486,-23.72654,10.611102,0.2769772,2.4842725,-0.77020967,-2.695871,-9.883265,-2.1164744
1570715173,5.5641246,-8.192958,-0.45489833,0.27271602,0.6583535,-0.45807767,6.9048777,-4.807557,-4.7261543
1570715173,1.9488802,-10.28549,3.2369606,-0.6274599,0.45914298,1.0599705,-4.865018,-1.70946,-1.2306197
1570715173,-0.033518825,-16.548721,6.157887,-1.9825176,2.1497693,0.3877681,-5.6551046,-10.931925,1.8339585
1570715174,15.8304615,-17.085024,11.918336,-1.406192,0.6157416,0.24608359,8.690952,-10.127473,5.8226986
1570715174,5.5641246,-9.677363,8.686164,-2.378808,1.5777048,1.6565367,2.1212628,-2.6192567,2.873042
1570715174,5.5018754,-10.290278,9.591172,-2.6557853,0.96089786,1.4786321,0.16759412,-2.3080103,5.0421886
1570715174,8.221688,-6.7564373,6.1770406,-2.6557853,0.32811147,0.9822038,4.223372,0.36391866,2.4708161
1570715174,7.469909,-1.0342951,7.1826053,-1.9494934,-0.16192514,0.9917914,3.7014358,7.5321584,5.401319
1570715174,6.397307,-0.6847417,5.2385135,-1.4679792,-0.12783563,1.14839,3.122039,8.279149,4.673482
1570715174,2.8299465,6.090849,1.3838485,0.08522376,-0.4516859,0.89698005,-0.023942016,14.30775,0.32561144
1570715174,0.89064306,6.5218053,2.7102363,1.5393541,-0.79471153,0.5933704,-2.1212628,15.710752,1.1013328
1570715174,-1.3982137,3.4237084,2.8921957,2.0421743,-1.1196271,-0.3813763,-4.4340615,12.5264635,0.8762778
1570715174,-0.090979666,-4.247314,4.606444,2.7452703,-1.4200408,-1.5159175,-3.4955344,4.582502,2.0446482
1570715174,1.067814,-22.256498,14.015656,3.7391922,-2.327674,-1.162239,-2.8443117,-13.857639,10.802638
1570715174,7.335834,-30.028078,1.7046716,2.1071572,-0.96409374,-3.6102912,2.5617957,-22.285229,-1.9728222
1570715174,7.8769236,-15.974113,0.7374141,2.5876062,-2.2690825,-1.1973938,2.4229321,-8.863335,-3.2465374
1570715174,9.80665,-0.770933,9.294291,1.6277738,1.4775668,-1.4988728,3.9935284,5.899313,5.0613422
1570715174,10.692505,-13.13459,11.990162,1.0780805,-0.8703476,-1.1707613,4.735731,-6.885724,7.3310456
1570715174,11.506534,-17.0946,-3.107674,0.674333,-1.5244399,-1.0567746,5.142745,-11.133038,-7.599196
1570715174,4.7405195,-6.703765,0.34955344,0.6029581,-0.49003658,-0.49749365,-1.8674773,-1.0055647,-4.122815
1570715174,-0.320823,-2.0159178,5.90889,-0.82453984,-0.14914156,0.62213343,-6.9288197,3.763685,1.5466543
1570715174,-2.2266076,-0.6847417,3.074155,-1.4807627,0.14381509,1.6064677,-8.604761,5.4922986,-1.0821792
1570715174,-4.7740383,3.6296098,0.89064306,-1.1856755,0.18855755,1.2421362,-10.840945,10.25676,-3.0262709
1570715174,-1.8770541,1.3072342,0.7086837,-0.9822038,0.47831833,0.1054644,-7.8386164,8.154651,-2.992752
1570715174,2.9831753,-0.80445176,-4.6782703,-0.8053645,1.1547819,-0.2737813,-2.8921957,6.1004257,-8.403648
1570715174,11.176133,-18.420988,6.2632318,-0.4847101,3.1799114,-0.3526133,3.2944214,-5.3438582,-5.482722
1570715174,8.058883,-8.528147,-2.0254946,-0.03089361,0.57632565,-0.5869786,-2.255338,0.5650316,-4.1132383
1570715174,4.673482,-11.061212,1.8291701,-0.43464115,-0.43251055,0.41866168,-2.1404164,-2.3654714,0.16759412
1570715174,3.6822822,-18.674774,8.274361,-1.9462975,1.6032718,0.77766675,-2.2266076,-12.842498,3.5051112
1570715174,14.686033,-15.394717,10.903194,-1.9079468,0.37285393,0.6999001,6.95755,-9.509769,6.244078
1570715174,8.058883,-12.248735,4.7548847,-2.2435153,0.9044371,1.8685309,4.951209,-4.3861775,0.5554548
1570715174,2.1930888,-12.674904,11.247959,-2.579084,1.0024444,2.4384646,-1.6807296,-4.865018,8.576031
1570715174,4.3143516,-4.8506527,6.813898,-2.9199789,0.46020827,0.6796594,-0.34955344,2.327164,5.0661306
1570715174,5.626374,0.56982,5.626374,-2.335131,-0.067113705,0.56780326,2.207454,9.155427,3.763685
1570715174,5.841852,1.2401965,4.256891,-1.2794216,0.07989727,1.0642316,2.1068976,10.065224,3.9600096
1570715174,6.0477533,6.143522,0.36391866,0.058591332,-0.43570644,1.0897988,3.466804,14.18325,1.4317327
1570715175,0.60333884,4.975151,0.4213795,1.395539,-1.1079088,0.56780326,-0.5363012,15.672444,1.283292
1570715175,-1.9680338,2.5713725,3.2944214,2.0325866,-1.3507965,-0.57632565,-5.5976434,11.520899,0.22026655
1570715175,-0.30166942,-8.700529,4.2760444,3.5772672,-1.4456079,-1.4445426,-4.256891,3.5003228,0.7469909
1570715175,-2.2601264,-30.602686,9.672575,3.357816,-1.7343034,-2.489599,-6.2488666,-19.9437,5.932832
1570715175,9.351752,-22.40015,3.0023289,2.1071572,-0.8266704,-3.3855135,3.4476504,-15.998055,1.1492168
1570715175,10.314221,-13.254301,2.5761611,2.7090502,-2.4097016,-1.3113805,4.060566,-7.264008,-1.0295067
1570715175,13.048399,-8.063671,12.861651,1.9963665,1.5723783,-1.6884956,6.8905125,-0.58897364,6.445191
1570715175,13.034034,-15.107412,5.851429,1.3710371,-1.6448184,-1.5148523,6.612785,-8.101978,3.7349546
1570715175,8.461109,-14.322115,-1.2641385,1.1643696,-1.5372235,-1.1941979,1.7621324,-8.5473,-5.5018754
1570715175,2.566584,-4.5537715,3.2561142,0.8564987,-0.5891092,-0.14914156,-4.357447,0.93373865,-0.9911995
1570715175,-0.24899697,-0.6943185,2.920926,-0.30360964,-0.45807767,1.0695581,-7.1347213,4.8985367,-1.2497733
1570715175,-5.449203,0.49320555,0.45489833,-0.9374613,0.42824936,2.0581536,-12.042834,6.517017,-3.5817258
1570715175,-5.884948,6.205771,2.5570073,-1.6277738,0.059656627,1.172892,-12.090718,12.717999,-1.3359646
1570715175,1.3838485,1.6136919,0.6560113,-0.5241261,0.07137489,0.09694202,-4.759673,8.331821,-2.9783869
1570715175,5.884948,-4.855441,-7.2448545,-0.4559471,1.4115185,0.014914157,-0.15801731,1.8962077,-10.984597
1570715175,23.578098,-52.38513,18.119318,0.8011033,1.4402815,-1.2549198,17.78413,-45.5856,14.06354
1570715175,-2.3511062,-3.9025488,7.680599,1.2826176,-0.3472868,0.7936462,-8.37013,2.6240451,3.5242648
1570715175,0.23942018,-11.554418,2.9017725,-1.6884956,2.073068,0.46553475,-5.6359506,-4.865018,-1.2066777
1570715175,4.721366,-16.472107,4.0174704,-1.7321728,1.2975317,-0.42292288,-0.8379706,-9.514558,-0.090979666
1570715175,16.098612,-14.149732,9.792285,-1.7417605,0.42611876,1.0429257,10.702082,-6.9958572,5.793968
1570715175,4.2281604,-8.571242,9.337387,-2.1412468,1.4594568,1.5276358,-0.7182605,-0.9576807,5.6359506
1570715175,4.012682,-8.853758,7.7189064,-2.7868168,0.6285252,0.9108289,-0.5554548,-0.79966336,4.4915223
1570715175,7.785944,-5.353435,5.463568,-2.5098395,0.15979454,0.64663523,3.3997664,3.016694,2.8395233
1570715175,6.7372837,-1.5370775,5.6646814,-1.6757121,-0.1022685,1.0024444,2.5761611,7.091625,3.5673606
1570715175,6.3589997,-0.93852705,5.616797,-1.0333381,-0.03728539,1.1547819,2.777274,7.848193,3.394978
1570715175,2.0590134,4.19943,0.7757214,-0.312132,-0.487906,0.8607599,-1.5466543,13.182474,-0.7661445
1570715175,0.22984336,5.779603,0.6512229,1.3465353,-0.75316495,0.47512242,-2.815581,15.433024,-0.63206923
1570715175,0.272939,3.107674,1.4796166,1.9100775,-1.230418,-0.14168449,-3.3901896,12.401965,-1.2018893
1570715175,-0.18674773,-3.490746,5.0900726,2.518362,-1.5297664,-1.298597,-4.0414124,5.1571107,2.552219
1570715175,0.78529817,-24.9811,11.013328,3.734931,-2.3084984,-1.4946116,-3.5673606,-16.7642,7.896077
1570715175,8.049306,-29.707254,5.1235914,2.1305938,-1.0642316,-3.1948254,1.7621324,-25.143906,5.1235914
1570715175,8.111555,-13.618219,-0.6943185,2.8922813,-1.8664002,-0.7723403,4.0701427,-8.576031,-4.8219223
1570715175,11.334151,-0.545878,8.7771435,2.5417986,0.6114804,-1.0897988,4.0797195,7.015011,0.34476504
1570715176,11.592725,-14.288596,14.369999,1.0887334,-0.57526034,-1.3795595,6.5936313,-8.159439,12.186486
1570715176,10.582372,-17.099388,-1.436521,0.9917914,-1.2282873,-0.9236124,4.3957543,-10.907983,-4.3143516
1570715176,5.3007627,-7.9343843,-0.5554548,0.9736814,-0.8064298,-0.4506206,-0.4261679,-4.390966,-6.4068837
1570715176,2.0446482,-3.1603463,5.779603,-0.4154658,-0.527322,0.8607599,-3.9791632,2.0254946,1.5131354
1570715176,0.21547815,-0.46447513,3.8019924,-1.1569124,0.16085984,1.833376,-5.971139,5.693412,0.05267244
1570715176,-3.1555579,2.054225,1.364695,-0.9949873,0.17790459,1.9090121,-8.508993,7.4986396,-2.5139117
1570715176,-3.1364043,3.265691,1.4700398,-1.2900746,-0.2077329,0.6125457,-9.3661175,10.773908,-2.4708161
1570715176,0.90500826,-0.6560113,-3.371036,-0.4911019,0.52945256,-0.07989727,-5.645528,6.3925185,-5.353435
1570715176,8.5473,-14.800955,-3.241749,-0.68072474,2.777229,0.015979454,2.8778305,-7.776367,-7.0724716
1570715176,2.5234885,-7.5321584,-1.6950948,0.33343795,-0.04900366,-0.6935083,2.9113493,-6.8186865,-4.6016555
1570715176,5.3486466,-8.322245,4.5681367,-0.16831692,-0.018110048,0.36113566,-2.5905263,0.866701,1.934515
1570715176,2.96881,-16.816874,5.779603,-2.0251296,1.7758499,0.3898987,-2.480393,-9.792285,1.6328455
1570715176,12.038046,-14.709975,11.013328,-1.2176344,0.7595567,0.4239882,4.841076,-8.350976,4.927267
1570715176,9.983821,-9.859323,5.449203,-1.9377751,0.5198649,1.1643696,4.951209,-2.2936451,1.7477672
1570715176,2.882619,-11.247959,8.604761,-2.191316,1.1505207,1.6480143,-1.6711528,-3.2465374,5.2241483
1570715176,4.7788267,-9.174581,6.991069,-2.5013173,1.0280116,1.122823,0.6655881,-0.7613561,4.0653543
1570715176,5.21936,-3.9073372,7.192182,-2.5236886,0.3398297,0.74464256,1.364695,4.8027687,4.8602295
1570715176,7.1490865,-0.05267244,5.5497594,-1.7524135,0.29615256,1.0684928,3.5482068,8.892065,3.763685
1570715176,7.1251445,2.360683,4.903325,-1.0557092,0.43570644,1.1750225,3.8594532,11.48738,3.4332852
1570715176,2.753332,4.003105,-0.79966336,0.3419603,-1.0525134,0.9193513,-0.23463176,13.244724,-2.135628
1570715176,0.46447513,2.5187001,1.5753847,1.4008654,-0.95557135,0.15020686,-2.4277205,11.760319,0.038307227
1570715176,-1.2497733,-0.40222588,1.5658079,2.400114,-1.2836828,-1.0663623,-4.3478703,8.686164,-0.40701428
1570715176,0.641646,-14.709975,6.5984197,3.5921812,-1.531897,-1.2442669,-2.9017725,-5.9663506,3.9217024
1570715176,0.46926352,-26.877308,9.634268,2.371351,-0.6583535,-3.3599465,-3.7493198,-18.665197,6.325481
1570715176,6.253655,-17.48246,3.845088,1.7556094,-0.6498311,-2.9039993,1.1971009,-9.921572,0.16280572
1570715176,10.0987425,-12.919112,4.2904096,2.119941,-1.4988728,-1.2559851,4.4675803,-5.8945246,0.3878607
1570715176,18.555063,-11.812991,8.748413,2.633414,0.21945117,-1.2559851,13.283031,-5.2959743,4.3718123
1570715176,13.503298,-12.325351,2.3415294,1.1601083,-0.50708133,-1.4338896,7.3071036,-6.2967505,-2.2936451
1570715176,4.510676,-11.334151,2.777274,0.89165354,-1.1963284,-0.93426543,-2.7150247,-5.046977,-1.6089035
1570715176,0.6464345,-3.3614593,4.501099,0.24714889,-0.9715508,0.09587672,-6.0956373,2.1643584,0.01436521
1570715176,-0.866701,-0.9959879,2.3223755,-0.4932325,-0.40587813,0.95557135,-7.302315,4.2521024,-1.3982137
1570715176,-4.7644615,-1.3599066,0.58897364,-1.1419983,0.13529271,1.8536167,-10.529699,4.247314,-3.1842883
1570715176,-3.8833952,2.3511062,2.0829554,-2.1476386,0.088419646,1.277291,-11.152191,8.51857,-1.8195933
1570715176,2.920926,2.2266076,0.6560113,-1.1089741,0.789385,0.32598087,-3.7349546,8.949526,-2.5809495
1570715177,6.2392898,-3.7349546,-6.4020953,-0.84478045,1.4956769,0.08202787,-0.272939,5.33907,-7.800309
1570715177,12.914324,-36.13808,17.697939,0.7680791,1.374233,-0.7510343,4.6112323,-19.9437,11.659762
1570715177,0.6991069,-0.40222588,5.267244,0.9012412,0.7957768,-0.011718267,-4.189853,4.357447,-2.7964275
1570715177,3.3183637,-7.2209125,4.333505,-0.9523755,1.7225852,0.3398297,-2.944868,2.5330653,-0.93373865
1570715177,8.159439,-22.084116,4.0414124,-1.4285632,0.7797974,0.13209683,0.8571242,-14.192827,0.5267244
1570715177,15.44739,-15.787366,8.801085,-1.5127217,-0.036220096,1.0652969,10.845734,-11.908759,5.5976434
1570715177,4.1036615,-9.988609,8.796297,-2.0357823,0.95876724,1.9004897,0.90979666,-1.8291701,3.2752678
1570715177,0.81402856,-11.142614,7.0724716,-2.8496692,0.82453984,1.5489417,-3.6535518,-3.7205894,5.4683566
1570715177,6.1387334,-5.616797,7.1490865,-2.6025205,0.3898987,0.5582156,1.5993267,1.6903064,4.5202527
1570715177,6.579266,-1.3742718,4.960786,-1.8781185,0.13316211,0.8639558,3.098097,7.2209125,3.2273839
1570715177,5.133168,0.8714894,5.257667,-0.965159,0.33876443,0.7638179,1.2306197,10.089166,1.1013328
1570715177,2.8060043,5.1523223,1.8770541,0.16938221,-0.3142626,0.5156037,-0.08619126,14.192827,0.33997664
1570715177,0.7182605,3.2752678,-0.24420857,1.2368097,-1.1430637,0.2418224,-2.5761611,12.5743475,-1.9776106
1570715177,0.6560113,0.6847417,1.8579005,1.8237884,-1.2293527,-0.67539823,-2.0207062,11.03727,0.58418524
1570715177,-0.31603462,-4.146757,1.685518,2.227536,-1.610729,-1.3816901,-4.1036615,5.3438582,0.18195933
1570715177,1.7477672,-32.728737,12.995727,3.9511864,-2.4459217,-1.9207304,-2.7820623,-17.597382,8.240842
1570715177,9.811439,-26.00103,-0.090979666,1.8866409,-0.6189375,-2.5854757,4.7644615,-21.016302,-1.9919758
1570715177,6.6750345,-12.694057,0.51235914,2.3926568,-2.396918,-0.82453984,1.1061212,-5.473145,-3.107674
1570715177,12.660539,-10.070012,16.610971,1.6874304,1.1792837,-1.5233747,6.8091097,0.39264908,10.218452
1570715177,12.148179,-15.389929,4.232949,0.7755362,-1.162239,-1.1451942,5.9998693,-8.604761,2.1499932
1570715177,7.704541,-13.9151,-3.3997664,1.1601083,-0.91295946,-0.965159,1.2210429,-7.872135,-7.599196
1570715177,2.7389667,-4.367024,1.9488802,0.43464115,-0.5134731,-0.1033338,-3.9121256,1.4556746,-2.2888567
1570715177,0.37349546,-1.163582,4.984728,-0.8064298,-0.059656627,0.9917914,-5.741296,4.654328,1.0534488
1570715177,-1.6136919,-0.6991069,3.4763808,-0.9992485,-0.07457078,1.6022066,-7.9583263,5.645528,-0.47405192
1570715177,-2.801216,2.327164,1.6759412,-0.95024484,-0.12144385,1.1505207,-8.868123,9.059659,-2.0685902
1570715177,-0.7230489,0.8283938,1.2976574,-0.674333,0.36433154,-0.07883197,-6.6846113,7.723695,-2.3080103
1570715177,4.060566,-2.1308396,-8.801085,-0.9715508,1.0578399,-0.51240784,-1.910573,4.7788267,-12.35887
1570715177,20.819979,-32.92985,14.053964,0.90869826,1.2836828,-1.2794216,14.920665,-26.139894,10.13705
1570715177,3.107674,-4.3718123,8.221688,0.18536167,0.51666903,0.66368,-2.743755,2.3415294,4.1180267
1570715177,4.697424,-14.681245,4.6830587,-1.6714509,1.3017929,0.487906,-0.9959879,-7.771579,0.6799533
1570715177,4.4196963,-17.223886,2.0494366,-1.9356445,-0.2098635,0.46127358,-2.135628,-9.41879,0.49799395
1570715177,11.142614,-12.100295,7.9008656,-1.5968801,-0.04154658,1.6810386,5.884948,-4.525041,4.5537715
1570715177,4.132392,-9.605537,7.824251,-2.2797353,1.1633042,1.9526893,0.2825158,-1.6998832,4.2760444
1570715178,4.5681367,-10.299856,7.7189064,-2.5322108,0.89591473,1.14839,-1.0630256,-1.8531121,5.1379566
1570715178,7.4986396,-4.9416323,4.984728,-2.4235506,0.33024204,0.5933704,3.9073372,2.0925324,3.0789435
1570715178,5.722142,-0.30645782,5.683835,-1.5052645,0.0042611877,0.9236124,1.4460979,8.073248,3.289633
1570715178,5.770026,0.2873042,4.1419687,-0.8351928,-0.08415846,1.2165691,2.183512,9.337387,2.96881
1570715178,3.8402996,6.3350577,1.1779473,0.3057402,-0.60828453,0.96409374,0.37349546,14.135366,-0.45010993
1570715178,-0.33518824,5.544971,1.8866309,1.5883577,-0.986465,0.5784562,-1.388637,16.25663,2.4420857
1570715178,-3.3566709,1.9728222,2.9879637,2.2179482,-1.2314832,-0.46127358,-6.540959,12.148179,1.3790601
1570715178,-0.6512229,-7.953538,3.9217024,2.8113186,-1.2336138,-1.8088742,-4.9416323,2.5234885,1.0342951
1570715178,1.6567876,-40.265686,16.931795,3.7881958,-2.5961287,-2.4235506,-3.3997664,-24.20059,13.010092
1570715178,11.123461,-22.907722,-1.5275006,1.7896988,-0.08309316,-2.913587,5.315128,-18.650831,-4.960786
1570715178,7.7093296,-6.71813,-2.3942018,2.8177104,-2.3617632,-0.5603462,1.9919758,-2.9783869,-6.3350577
1570715178,14.781801,-9.203311,16.960526,2.0890472,1.3028581,-1.5446806,8.259995,1.5610195,10.31901
1570715178,10.342952,-14.288596,6.3829417,0.26525894,-0.907633,-1.2794216,5.056554,-7.627927,4.2664676
1570715178,6.4068837,-14.293385,-2.6623523,1.5116564,-0.73931605,-0.6977695,0.9528923,-9.600749,-6.847417
1570715178,2.801216,-5.602432,2.695871,0.43783703,-1.0791458,0.37391922,-3.8259344,0.8283938,-2.5139117
1570715178,0.2633622,-0.641646,4.721366,-0.8660864,0.014914157,1.2005897,-5.683835,4.7405195,0.22505496
1570715178,-3.2465374,1.1971009,2.0638018,-1.2059162,0.52945256,2.2072952,-8.75799,6.7612257,-0.8331822
1570715178,-6.143522,4.5872903,2.585738,-1.5223093,0.6498311,1.2101773,-12.167333,11.736377,-1.6472107
1570715178,0.44532153,1.2258313,-2.1499932,-0.9108289,0.08309316,-0.089484945,-6.1866174,9.356541,-4.7884035
1570715178,8.51857,-9.883265,-2.7868507,-0.79151565,3.0904264,-0.50388545,1.1971009,1.0055647,-10.984597
1570715178,24.406492,-29.956251,-1.4269443,-0.3185238,-0.30147904,-2.4523137,21.959618,-41.252094,5.755661
1570715178,-1.5035586,-3.217807,3.7828386,0.057526033,-0.68498594,1.0205544,-7.465121,3.064578,0.91458505
1570715178,0.94331545,-13.55597,8.853758,-2.1849241,1.9090121,0.73185897,-4.3861775,-6.3685765,4.8362875
1570715178,7.1873937,-18.693928,5.3582234,-1.2069814,1.6991487,0.113986775,2.1021092,-11.233594,1.5227122
1570715178,10.625467,-12.77546,4.687847,-2.4448564,0.9726161,0.99818325,5.7269306,-5.0757074,1.0869676
1570715178,2.96881,-10.381259,10.97502,-2.335131,1.510591,1.492481,-1.4221559,-2.2361844,7.723695
1570715178,5.4300494,-6.9000893,6.6367273,-2.777229,0.6903124,0.43890235,1.3455414,1.5897499,3.916914
1570715178,6.727707,-2.7150247,5.0134583,-2.415028,0.21518998,0.6125457,2.7868507,6.019023,2.9352913
1570715178,6.105214,-1.0007763,5.386954,-1.3880819,0.120378554,1.1398677,2.4277205,7.943961,3.7684734
1570715178,4.453215,2.3511062,5.391742,-0.653027,0.3483521,0.936396,1.0773908,11.453861,4.003105
1570715178,2.1739352,6.05733,1.4987702,1.0972558,-0.3792457,0.122509144,-1.0582372,15.198392,0.04309563
1570715178,-1.1444284,5.3821654,0.22505496,2.4437912,-1.3145764,-0.4495553,-4.4915223,14.398729,-1.6807296
1570715178,-1.5658079,-1.1013328,3.2848446,3.0009415,-1.1665001,-1.2943357,-5.2241483,7.6375036,0.770933
1570715179,3.892972,-26.460716,17.879898,4.506206,-1.2346791,-2.3330002,-0.32561144,-18.258183,14.537593
1570715179,15.562311,-31.354465,-5.9759274,0.9736814,-0.46553475,-3.325857,10.366894,-23.951593,-9.773131
1570715179,5.161899,-12.842498,-2.336741,3.164997,-3.2491558,-0.17790459,-0.45968673,-5.9184666,-6.411672
1570715179,16.361975,-7.771579,13.627796,2.8400817,0.49749365,-1.5489417,10.376471,-1.4700398,9.074024
1570715179,15.08347,-14.159308,9.77792,0.91295946,-0.67326766,-1.1270841,10.500969,-7.809886,7.6231384
1570715179,4.936844,-13.441049,-1.6472107,1.6277738,-1.0738193,-0.45807767,-1.5610195,-7.8625584,-6.4164605
1570715179,0.92895025,-3.514688,2.8491,0.53904027,-1.4498692,0.46766534,-5.755661,1.8722657,-1.8770541
1570715179,-0.5650316,-0.21068975,3.4237084,-1.2272221,-0.54223615,1.2581156,-7.240066,5.449203,-0.9911995
1570715179,-1.934515,-0.50278234,3.1411927,-1.8759879,0.060721926,1.8930327,-7.9583263,5.023035,-0.7086837
1570715179,-3.9264908,1.8579005,1.2306197,-1.6767774,0.16405573,1.9345793,-9.801862,8.236053,-2.4756045
1570715179,-0.34476504,-0.4357447,1.4652514,-1.2623769,0.39309457,1.1931325,-6.7612257,7.225701,-1.8866309
1570715179,3.442862,-5.8083334,-4.510676,-0.96089786,1.104713,-0.30041373,-2.896984,3.2034419,-6.5457473
1570715179,16.984467,-27.993006,9.710882,0.7797974,2.1412468,-2.9316971,9.179369,-19.268536,6.6510925
1570715179,0.7757214,-9.212888,5.257667,0.5219955,0.75742614,0.8085604,-5.2289367,-2.6240451,0.009576807
1570715179,8.001422,-17.070658,7.0245876,-2.0720026,1.3752984,0.73185897,4.1802764,-8.810662,3.4859576
1570715179,3.1603463,-16.754623,4.687847,-1.9654728,1.0887334,0.4218576,-3.4859576,-7.153875,-0.94331545
1570715179,12.421119,-15.557523,7.9583263,-1.7374994,0.2801731,1.162239,8.130709,-9.308656,5.233725
1570715179,5.2385135,-8.724471,10.572795,-2.482142,1.7715888,1.8067436,1.2449849,-1.0007763,6.2823853
1570715179,7.240066,-7.7332716,7.297527,-2.7495315,0.9023065,1.230418,2.5474305,0.8283938,4.9081135
1570715179,5.2049947,-4.88896,4.390966,-2.497056,0.08735435,0.61361104,2.2170308,2.719813,1.9297266
1570715179,5.21936,-0.4165911,5.209783,-1.4264326,-0.14807628,0.82453984,1.3455414,8.394072,3.6056678
1570715179,5.33907,1.6280571,3.6104562,-0.6253293,-0.0074570784,0.8703476,2.1452048,10.261548,2.8634653
1570715179,4.0174704,5.1810527,2.2697031,0.5315832,-0.65622294,0.6200028,0.9959879,14.06354,1.7238252
1570715179,1.0630256,4.8267107,0.80445176,1.4125837,-1.636296,0.44635943,-0.641646,14.968549,1.13964
1570715179,-1.8626889,1.1779473,2.0494366,2.3234127,-1.6735815,-0.39948636,-4.4196963,11.631032,0.36391866
1570715179,-2.360683,-7.0245876,5.1666875,3.2012172,-1.3571883,-1.550007,-5.7748146,3.1507695,2.2601264
1570715179,0.56982,-36.77015,17.961302,3.6134872,-2.04537,-2.9466114,-3.4380736,-28.361713,14.767436
1570715179,6.871359,-21.964407,0.49320555,0.8351928,-0.61467636,-3.809502,1.8291701,-14.259866,-2.8921957
