time,ax,ay,az,gx,gy,gz,la_x,la_y,la_z,fox,foy,foz
1570727080,-5.9177856,-4.0339203,3.1952515,-2.2460175,2.2838593,-0.65663147,-0.16739368,-0.7924409,-3.9716716
1570727080,-9.717392,-5.4153748,6.439392,-3.2846527,1.528595,-0.7919159,-3.1751585,-1.7009141,-0.8772526
1570727080,-8.145599,-5.8954163,6.1233673,-3.2122192,2.0963745,-0.68218994,-1.903451,-1.0973802,-0.16231537
1570727080,-10.044189,-5.274124,7.3982697,-2.855362,2.3403168,-0.872879,-2.9864569,-0.41810274,2.5869527
1570727080,-10.615219,-5.1364594,5.409897,-2.5283203,1.9504395,-0.31147766,-3.550449,0.6380062,1.0782785
1570727080,-8.772873,-6.799225,3.2467346,-2.5666656,2.0250092,-0.028121948,-1.5993276,-0.58536386,-0.30981994
1570727080,-8.704636,-7.1775055,2.9426575,-2.9001007,1.4774628,-0.267807,-1.0762272,-0.5215411,0.2225666
1570727080,-10.34108,-8.324326,1.6390228,-2.7829132,1.0865021,-0.4947052,-2.3927073,-1.657949,-0.059415817
1570727080,-13.138702,-8.514664,0.88246155,-2.905426,0.4857025,0.029403687,-5.6589484,-1.5727105,-6.3180923E-6
1570727081,-11.37059,-9.333481,-1.364502,-3.751236,-0.52523804,0.6206207,-3.8108807,-2.6508994,-1.6403155
1570727081,-10.924072,-9.067734,-0.53730774,-4.3041077,-0.5103302,0.9135742,-3.2305918,-2.4831657,-0.55094004
1570727081,-5.3527527,-3.8687286,19.79306,1.4131622,0.62312317,0.3628235,3.3890157,2.6183476,23.827787
1570727081,-7.5171204,-5.329178,0.76034546,-0.8835449,2.9826813,-0.3423767,1.1470928,0.5784707,-0.5049585
1570727081,-7.815201,-6.5047455,-0.9790344,-0.722702,0.9139404,0.466156,-1.9100876,-0.26583385,1.6193595
1570727081,-5.9608917,-6.2928467,4.869995,-0.6694336,-3.1979828,-0.7940521,1.9648914,0.36759138,6.592254
1570727081,-10.767242,-5.061035,-3.399582,-0.53308105,0.11817932,-1.0997772,-3.4075294,1.565373,-1.7157851
1570727081,-14.141876,-6.7860565,-0.2966919,-0.3637085,2.0665436,-0.30082703,-5.3455544,0.80288124,0.6745188
1570727081,-9.0086975,-4.8515472,1.571991,-0.18153381,1.0151367,0.40330505,-1.5878258,2.038249,3.023972
1570727081,-10.1423645,-4.352356,-0.49061584,0.33937073,0.09794617,0.8411255,-2.7347674,2.5668187,1.7158535
1570727081,-8.631622,-4.9317474,-2.5101318,0.27012634,0.6476135,0.8091736,-0.86238956,1.8665938,-0.1618104
1570727081,-8.893784,-4.498398,-1.4387207,0.31700134,0.8148651,0.911438,-1.8103037,1.8207684,0.72513056
1570727081,-5.800476,-3.471283,-0.3541565,0.27119446,0.9948883,0.608902,1.1526465,2.5497794,1.3861988
1570727081,-6.8012543,-2.459732,-1.1382446,0.3329773,-0.36437988,0.24671936,1.176568,4.0441694,1.643713
1570727081,-9.109268,-5.298065,-3.0416412,0.21366882,-0.3846283,0.26908875,-1.6935086,0.9650879,-0.76253533
1570727081,-2.2199402,-9.708176,-1.5201263,-0.051574707,-0.972641,0.5023804,4.826983,-4.865372,-0.55005765
1570727081,-6.4624786,-7.403763,-0.63427734,-1.4002075,-0.61364746,1.8392792,1.8336039,-1.7593799,1.154281
1570727081,-7.606903,-6.8973846,-5.2850037,-0.29125977,-3.9298248,1.0648346,3.5422325,-0.26664257,-1.4011958
1570727081,-8.040253,-7.5282593,-1.6039276,0.36494446,0.47398376,-0.43292236,0.6190424,-2.7933378,-0.69935536
1570727081,7.048004,-10.16069,-1.4554901,0.43312073,0.874527,-2.1980743,8.627653,-4.3872848,0.31462848
1570727081,-16.656982,-11.493057,5.7450714,0.91781616,0.50486755,-5.4822845,-6.2705293,-7.201356,10.01079
1570727081,-11.997864,-4.0219574,-7.166855,0.31593323,0.94163513,-3.5605469,-7.388872,3.4083452,-7.209896
1570727081,-8.982376,0.73532104,6.2071533,1.298111,4.5028076,-3.8236542,-2.335402,8.00676,5.6189265
1570727081,-6.279312,-1.2710114,-0.30267334,1.8435211,0.22471619,-2.7978058,0.44884968,8.685972,-0.0034713745
1570727081,-9.7712555,-0.22235107,-1.8493347,1.4504395,-2.7324677,-1.7708893,-4.2996817,6.6261206,1.203371
1570727081,-3.1632538,-11.373352,4.8759766,2.750061,-3.3396606,1.0552521,-1.0153799,1.3909864,3.667341
1570727081,-0.01966858,-20.018814,3.477768,2.285614,-0.23016357,0.9316864,4.777176,-10.9902935,1.3896995
1570727081,-4.0036316,-12.202942,0.98301697,2.3569794,-0.6402893,1.3780212,1.5797224,-4.675412,-1.0534506
1570727081,4.587967,-16.598694,-1.3621063,1.744461,-0.4709015,0.8922577,9.02816,-6.8790703,-3.0555325
1570727081,-4.9852448,-9.806335,1.9311218,1.1404572,-0.4677124,-1.302185,0.93399143,-1.5743723,-0.28817463
1570727081,-5.788498,-8.007095,3.0144958,0.932724,-0.6264343,-0.41375732,-1.676271,1.8790646,-1.5089445
1570727081,-3.2326965,-9.890137,2.4985352,1.3598938,-1.2709198,0.31062317,0.8595829,-1.2482119,-0.76560473
1570727081,-3.1536865,-6.6483917,3.833313,1.5953217,-0.85014343,1.0424652,1.3261242,1.1156988,-0.40249944
1570727082,-2.902298,-2.1568756,2.5895233,1.7487183,-0.09060669,0.90930176,1.1990824,6.232049,-1.0748448
1570727082,1.9699097,-1.886322,3.565155,1.3076935,1.1568146,0.013427734,6.8797927,5.609157,-0.71274805
1570727082,0.5513458,-7.3271484,3.774643,0.5545502,1.4028931,-1.988205,5.4711766,-0.12981081,-2.104247
1570727082,-7.4273376,12.190384,-0.42956543,0.57159424,2.4617615,-0.6896515,-2.0660076,13.850723,-3.5482268
1570727082,-8.091721,-38.414658,4.0703278,-1.9733124,3.4290314,0.3330078,-2.6401138,-29.28232,-0.61843896
1570727082,-6.0662384,-3.862732,2.6302185,1.0978394,-0.80540466,-0.27313232,-4.6617312,8.66244,-0.86446214
1570727082,-1.5411835,-8.155533,2.0376587,1.570816,-1.3731842,-0.066467285,2.9977198,-1.4834914,-1.6870437
1570727082,-2.6568909,-7.9005585,3.8464813,0.6046295,-0.75852966,0.29785156,2.1632366,0.0840683,0.6849518
1570727082,-2.5299988,-4.887451,2.5907135,-0.054779053,0.11392212,0.5375366,1.8255949,2.4782228,-2.4958744
1570727082,-0.5499878,-5.009552,1.853302,-0.115493774,0.62631226,0.5226135,3.3328934,2.6803865,-1.7034526
1570727082,-1.2706451,-5.7936554,5.5044556,-0.55545044,-0.17050171,0.03791809,3.56698,2.137227,0.42178726
1570727082,-5.5299225,-4.906616,8.284134,-0.10270691,-0.29408264,-0.2592926,-0.20256376,2.768568,3.6706276
1570727082,-5.389862,-9.475937,4.1194153,0.24136353,0.23641968,-0.617218,-2.1971393,-1.2381916,0.29398012
1570727082,1.1953888,-8.756485,4.7335205,-0.6928711,0.64974976,-1.427887,4.753904,-1.0553303,-0.27053785
1570727082,-2.6090088,-9.532211,0.259964,-0.90486145,0.62098694,-1.6984558,2.2788968,-0.9142351,-3.7540588
1570727082,-5.705902,-11.101608,2.4195251,-1.1860809,0.21618652,-1.3948517,-1.8201704,-2.9142056,-1.1048024
1570727082,-3.7067413,-10.589249,2.0520172,-1.5099335,-0.07676697,-0.9911194,-1.4109504,-2.2298374,-1.6015296
1570727082,-0.55119324,-9.352646,2.3608704,-0.73760986,-0.42723083,-1.4949951,2.7833254,-0.47543716,-0.60740304
1570727082,-3.7905426,-8.150757,1.9837799,-0.43400574,-0.6179199,-1.9274902,-0.3632145,0.72054577,-0.5016222
1570727082,-6.4469147,-8.508682,1.4474792,-0.96025085,-1.3018188,-0.9655609,-4.3320913,0.8027687,-1.3224349
1570727082,-2.7119598,-8.858246,1.8521118,-1.1104584,-1.0781097,-0.26887512,-1.4414757,0.54585266,-0.88819075
1570727082,-1.4202881,-6.6591644,1.9442902,-0.9964752,-1.0493469,-0.32533264,0.069561005,2.2249622,-0.015249729
1570727082,0.3430481,-6.9632263,1.9382935,-0.84413147,-0.318573,0.020874023,1.7291838,2.9683838,-1.2673881
1570727082,2.1626434,-7.15477,0.41438293,-0.86224365,-0.37290955,-0.09629822,3.4437737,2.2205076,-1.6128931
1570727082,1.2552338,-7.682678,-0.5732269,-1.3011322,-0.07569885,-0.2667389,3.0667348,2.23316,-2.0544643
1570727082,-1.2179718,-8.47995,-1.0257263,-1.6441498,1.3506927,-0.080322266,0.9429467,1.3238935,-2.123261
1570727082,-2.1074219,-8.570938,2.8397217,-1.7602692,1.8918457,-0.28485107,-0.11803436,0.81192684,0.60787547
1570727082,-6.405014,-7.440872,3.94104,-1.18396,1.352829,-0.5223999,-4.273495,2.2876434,4.2729516
1570727082,-6.184738,-8.7708435,1.6916962,-0.8505249,0.717926,0.056030273,-5.1563587,1.1138124,1.8503627
1570727082,-2.6233673,-7.9484406,0.07321167,-0.9581146,0.29714966,0.24777222,-1.9977441,1.7339439,0.53165334
1570727082,-0.84088135,-10.578476,0.9638519,-0.75891113,0.25880432,-0.061141968,0.713621,-0.38481045,1.730856
1570727082,-0.6828613,-10.536575,0.1725769,-0.45744324,0.3557434,-0.30296326,0.5451703,-1.4929571,1.4112401
1570727082,-1.4418335,-8.989914,-2.0312958,-0.4925995,0.7498779,-0.5170746,0.17741156,0.6784258,-0.52127254
1570727082,-3.2745972,-11.258423,-2.1497955,-0.724823,0.42817688,-0.42333984,-2.0093513,-0.81737137,-0.867468
1570727083,-3.0710907,-15.644608,0.38087463,-0.7067108,0.5538788,-0.12931824,-2.1878042,-5.258236,1.0786204
1570727083,-2.5299988,-16.587921,6.2658234,0.33085632,0.15333557,0.12846375,-1.7539791,-6.623371,6.998919
1570727083,-2.091858,-14.062042,5.1273804,1.9447327,0.25985718,0.40756226,-0.87732935,-5.3496656,6.663599
1570727083,-2.2367096,-11.454758,3.8428802,2.9577942,0.6614685,1.0030518,-1.2373458,-1.9196596,4.9006233
1570727083,-1.1844482,-11.516998,1.2870789,3.288025,1.2473602,1.3162384,0.27056348,-1.4101553,1.1364408
1570727083,-1.4107056,-11.593613,0.73161316,3.2241058,2.453247,1.4483337,0.8947427,-2.24119,-0.86266184
1570727083,-3.238678,-10.272018,-1.3262024,2.445404,1.3070221,1.7732391,-0.62052584,-1.1511736,-2.1754537
1570727083,-2.9453888,-8.368622,-1.6829376,1.6752167,1.3112793,2.121582,0.25312805,0.40556526,-5.4622602
1570727083,-1.0348206,-8.16153,4.3301086,1.7359314,0.39302063,2.1194458,2.469293,0.5534563,0.85290504
1570727083,-2.3073273,-7.602478,0.9866028,1.5335388,-1.4882355,1.9564667,2.4108572,0.5408287,-1.1598866
1570727083,-2.510849,-7.6671295,3.3137665,1.523941,-0.62857056,2.2376862,1.1611862,0.4925766,-0.7290776
1570727083,0.55374146,-6.163559,0.16778564,1.6539154,-1.2112732,1.9298248,5.589951,0.5589876,-2.8923926
1570727083,-0.09030151,-3.440155,1.2894745,1.2597656,-0.68395996,1.579361,5.15383,3.1311731,-3.9514728
1570727083,-2.5539398,-2.8775177,2.5967102,1.0658875,-1.0386963,1.2981262,3.6386166,3.6290565,-2.0894394
1570727083,-1.9948883,-2.8451996,1.1912994,0.59184265,-1.5521545,1.0200958,3.0664463,3.1260796,-4.097913
1570727083,0.6363373,-2.1975708,1.9418945,-0.029205322,-1.1899567,0.4885254,5.4112988,3.5707097,-3.892775
1570727083,-1.3388824,-1.5834503,3.1629333,-0.68434143,-0.36012268,0.03366089,4.2310867,4.2123427,-2.7490702
1570727083,-1.2215576,-1.5487366,3.3604584,-1.3544006,0.23323059,-0.3604889,3.9325209,4.510082,-2.0791883
1570727083,-2.6556854,-2.6392975,7.0547028,-1.7336273,0.96932983,-0.79937744,2.7277703,4.03137,0.7157831
1570727083,-6.2565765,-8.761276,6.592621,-1.6537323,1.9451141,-0.9325409,-1.2100964,-0.8058243,6.3747244
1570727083,-9.140381,-18.575104,6.818878,-1.0028534,1.1120758,-1.6601105,-3.103951,-10.371849,1.077992
1570727083,-1.9757385,-13.470673,3.5400238,-1.5930176,-0.33668518,-1.1306763,2.4978733,-7.9170613,2.2740295
1570727083,-2.1576996,-7.4264984,0.93392944,-1.3501434,0.37597656,-1.2840729,2.0353231,0.83495235,-2.818275
1570727083,-0.30937195,-10.234909,1.4235382,-1.6047363,0.49421692,-1.6824799,3.8857336,-1.8286419,-1.23382
1570727083,-1.6046295,-10.835846,0.93751526,-1.3224335,0.624176,-2.067047,2.406065,-2.1823015,-1.3623381
1570727083,-1.3041687,-10.602417,0.37608337,-1.3085938,-0.061843872,-2.241745,2.1642218,-1.7571917,-1.4428706
1570727083,-2.879547,-9.472351,0.52571106,-1.5397491,-0.25997925,-2.3120575,-0.14771676,-0.33686066,-1.1905448
1570727083,-5.188751,-8.551788,0.94111633,-1.5312347,-0.7915497,-1.8358765,-3.0833673,0.74878216,-0.2772231
1570727083,-4.581833,-7.65036,0.6322632,-1.5014038,-0.42297363,-1.1562347,-3.5618331,1.9205866,-0.3610444
1570727083,-1.456192,-7.243347,1.2427826,-1.3405457,-0.7127228,-0.62786865,-0.2828697,2.2702742,0.85012084
1570727083,-0.5715332,-6.9847717,0.88365173,-1.1903534,-0.60194397,-0.39564514,0.595291,2.3146248,0.94798243
1570727083,-0.52485657,-6.7944336,-0.9658661,-1.2649078,-0.124694824,-0.10482788,0.38508713,2.838521,0.046361417
1570727083,-2.045166,-6.559799,-2.9805908,-1.8050079,1.2015533,0.19451904,-1.0117569,3.0609093,-1.9429214
1570727084,5.4043884,-8.69783,4.4115143,-1.9711914,0.89157104,-0.56288147,5.385627,0.7985983,4.067887
1570727084,-2.9705353,-7.3558807,-1.9702301,-1.0380096,-0.20458984,-1.3746185,-1.6754093,1.9716339,0.51648927
1570727084,-5.104965,-8.55896,-0.43077087,-1.0891418,0.11178589,-0.82281494,-4.721456,0.8955555,1.3996029
1570727084,-2.8735657,-10.907669,1.2080688,-0.61190796,0.08729553,-0.5554352,-2.8788097,-1.3633432,3.5575876
1570727084,-1.7171631,-11.178223,-1.2747192,-0.1485138,0.49421692,-0.28805542,-1.787499,-1.9057245,1.2779999
1570727084,-1.1066437,-12.4387665,-2.104309,-0.06010437,0.64442444,-0.2667389,-1.140827,-2.7031765,0.23454165
1570727084,-0.49971008,-13.536514,-0.6246948,0.3766632,0.6422882,-0.16021729,-0.7472981,-3.9649382,1.3610325
1570727084,-2.1768494,-16.258713,0.85372925,0.9284668,0.048934937,-0.08778381,-1.9923842,-7.022729,2.8178034
1570727084,-3.0555267,-13.117523,2.450653,1.3439178,0.29608154,0.26055908,-3.3549204,-3.6523705,3.965099
1570727084,-2.3432465,-12.317856,3.1353912,2.3591156,0.61779785,0.94233704,-2.2716837,-2.8206635,4.18149
1570727084,-2.1253815,-11.320679,3.853653,3.0483398,1.1333771,1.7572632,-1.6845989,-1.5242405,3.9667256
1570727084,-2.2690277,-12.722473,2.2567291,3.368988,1.9493713,2.185501,-0.99421287,-2.8360138,1.9188612
1570727084,-1.1222076,-11.493057,-2.5927277,2.7063904,2.0686798,2.1652527,0.7446561,-2.2204933,-3.9446545
1570727084,-1.0312195,-10.11998,-0.35534668,1.6869354,0.7104645,2.218521,0.5340619,-0.98485184,-2.2394724
1570727084,2.5612793,-8.025055,-0.47984314,1.4962463,0.008453369,2.1279755,5.528392,0.64070225,-3.024427
1570727084,-0.19325256,-6.966812,3.0540009,1.6911926,-0.98542786,2.0299683,3.9184403,1.6244144,0.3662119
1570727084,-4.1544647,-7.179901,0.6657715,1.6709595,-0.36331177,2.1119995,0.14486337,1.2460594,-2.771982
1570727084,-0.20283508,-7.507904,2.6781006,1.3247375,-0.9737091,2.453949,3.7461085,0.26398134,-0.62914133
1570727084,1.1319427,-5.938507,-1.3860474,1.427002,-0.86079407,2.0800323,5.9808025,1.3045101,-5.4463286
1570727084,-1.0372162,-4.0351257,1.7168274,0.99664307,-0.6530762,1.5985413,4.3505974,2.620123,-2.7272625
1570727084,-2.2019958,-3.6939392,1.3576965,0.66748047,-1.0951538,1.3695068,2.8679795,2.760017,-3.2402945
1570727084,0.007858276,-3.0822296,1.2511597,0.12205505,-1.2868958,0.8390045,4.985418,3.119882,-3.6147165
1570727084,0.88053894,-1.5523376,1.4738159,-0.5522461,-1.0749207,0.20835876,5.93096,4.389592,-3.819888
1570727084,0.99786377,-0.69999695,4.0535736,-1.0784912,-0.32177734,-0.42333984,6.080247,5.6550317,-1.2990203
1570727084,-1.5184479,-2.3819275,8.195541,-1.3661194,0.42285156,-1.1349335,3.6148095,4.5399733,2.527841
1570727084,-9.740128,-7.0230865,6.0922394,-1.4033966,2.5523071,-1.4065704,-4.435381,0.8866501,3.819788
1570727084,-8.4939575,-20.714325,0.46466064,-2.1522827,2.2678833,-1.6558533,-3.8819065,-11.522957,-5.572764
1570727084,-2.491684,-17.74672,7.130127,-1.2862244,-0.7042084,-0.99005127,1.6009178,-13.63289,8.602598
1570727084,-3.429016,-4.396637,1.209259,-1.4619904,0.14907837,-1.4534454,0.5060773,3.4042206,-2.218234
1570727084,0.943985,-8.336304,2.6493683,-1.4300385,-0.4868927,-1.7293549,4.577875,0.8045044,0.11745906
1570727084,0.22213745,-10.947174,1.1158905,-1.0774231,-0.45385742,-2.2193756,3.586511,-1.8800163,-0.6596265
1570727084,0.21855164,-11.916824,-0.4056244,-0.9815521,-0.98223877,-2.1085815,2.6762457,-3.0360918,-2.0669203
1570727084,-2.5671082,-9.185043,-0.38526917,-1.3618469,-0.75639343,-2.1245575,-0.24428785,-0.8601818,-2.0785935
1570727085,-4.4226074,-6.4903717,0.1725769,-1.5376282,-0.04373169,-1.3639679,-2.9101515,2.5553865,-1.2077032
1570727085,-3.6468964,-7.388199,0.38804626,-1.458786,-0.2685089,-0.9122925,-2.651591,2.3256006,-0.45295835
1570727085,-3.0160217,-7.444458,0.7232361,-1.3267059,-0.18647766,-0.57141113,-2.301295,2.0299997,0.30632493
1570727085,-1.1485443,-7.151169,1.4798126,-1.2393494,-0.4400177,-0.2944336,-0.7800673,2.318246,1.2942585
1570727085,-0.4111328,-6.3239746,-0.030929565,-0.9996643,0.27690125,-0.11122131,0.4141469,2.945817,1.1930997
1570727085,-0.78222656,-7.3546753,-0.6797638,-1.0380096,1.0588074,0.25949097,-0.34812784,2.5214777,-0.23958474
1570727085,1.2013702,-9.048584,1.1015167,-0.9219055,0.53790283,-0.36260986,1.9503651,0.18409443,2.2973278
1570727085,-3.1848145,-8.238144,-1.8265839,-0.8462677,-0.0021972656,-0.7279968,-2.1423917,0.94227314,-0.529369
1570727085,-3.0351715,-8.665512,-0.43196106,-0.7993927,-0.14494324,-0.4169464,-2.9208002,0.8572283,0.5808089
1570727085,-0.3045807,-12.450745,0.70648193,-0.4233551,-0.10978699,-0.2901764,-0.16094604,-2.654395,2.074543
1570727085,-1.0767212,-11.34462,-1.6673737,-0.10165405,0.3035431,-0.48512268,-0.7741611,-2.7282753,0.09529579
1570727085,-0.26628113,-12.222092,0.63105774,-0.28060913,0.046813965,-0.490448,-0.17631513,-2.4293394,1.7915303
1570727085,-2.8508148,-14.475037,0.63105774,0.30741882,0.5133972,-0.3104248,-2.4225492,-4.547124,2.132195
1570727085,-2.225937,-14.496582,2.710434,0.9146118,0.5687866,0.25523376,-2.4748094,-5.108389,3.0417206
1570727085,-1.8308868,-12.57164,5.722336,2.0246277,0.83509827,0.9391327,-1.5781969,-3.4693651,6.5277452
1570727085,-3.120163,-10.37616,3.362854,2.8938751,1.1110077,1.5452728,-2.5786138,-1.0049133,4.3676453
1570727085,-2.5850677,-11.259628,-0.16740417,2.7585907,1.3656006,1.7189026,-1.378057,-1.5365438,-0.3825184
1570727085,-3.68161,-11.1064,1.4331207,2.1769562,2.196518,1.9500732,-2.0493145,-2.104745,-0.45611012
1570727085,0.048553467,-10.702972,1.1123047,1.7231445,0.43136597,2.4251862,0.7351177,-1.5365047,-0.27615368
1570727085,1.7819672,-9.48671,0.52093506,1.727417,-0.027755737,2.1279755,4.738828,-0.99074936,-1.8568892
1570727085,-2.1169891,-7.689865,0.03730774,1.5463104,-0.82351685,1.7732391,2.2391472,0.5405197,-2.8244793
1570727085,-2.6389313,-7.6228333,4.3731995,1.4483185,-0.070373535,2.265396,0.40140295,1.0057201,1.077487
1570727085,-0.16333008,-7.816757,0.10673523,1.6112976,-0.94389343,2.2771149,3.5613637,-0.12734699,-2.860927
1570727085,0.6506958,-5.581772,0.3605194,1.5409851,-0.986496,1.9159851,5.1929703,1.3806767,-3.0011375
1570727085,-1.0360107,-4.2565765,2.284256,1.1457825,-0.5401459,1.626236,4.24778,2.6889029,-2.2596717
1570727085,-2.2247314,-4.2242584,1.6330414,0.7665405,-1.0781097,1.4557953,2.4270167,2.4250684,-2.9717455
1570727085,0.1299591,-2.9505463,0.88246155,0.29037476,-1.2059479,0.9295502,4.5834136,3.0091681,-4.172313
1570727085,-0.115448,-1.5164185,1.8628845,-0.35836792,-0.747879,0.23712158,5.1615996,4.3998513,-3.188655
1570727085,-1.4131012,-1.4589539,3.541214,-1.0987396,0.14907837,-0.25715637,3.681532,4.8977966,-1.8674245
1570727085,-2.4593658,-2.4417725,4.5036774,-1.3852844,0.7094116,-0.87927246,2.465938,4.3179493,-0.13214207
1570727085,-1.9721527,-3.701126,12.604462,-1.1296234,0.3546753,-1.0720825,3.1150079,3.7787294,5.1260977
1570727085,-12.945969,-15.69249,-5.3508453,-2.0841064,2.7270203,-1.3874054,-6.8431287,-4.7994924,-6.095715
1570727085,-2.843628,-24.092545,16.264008,-1.37677,1.0886383,-1.1839294,-1.2768264,-15.622082,7.1589766
1570727085,-3.6408997,-6.7154236,1.5157166,-1.6164551,-0.042678833,-1.1541138,0.39759016,-0.7333002,-2.1820085
1570727086,0.5010681,-7.336731,1.5635986,-1.3181763,-0.365448,-1.3746185,3.8331122,1.7530594,-1.3414304
1570727086,0.33706665,-11.196182,2.0209045,-1.2723694,0.32910156,-1.9839478,3.5510457,-2.247756,0.14437366
1570727086,0.12756348,-12.089218,0.5233307,-0.9772949,-0.33242798,-2.1756897,3.1298487,-3.350628,-1.0718108
1570727086,-1.7207489,-9.985901,-0.09677124,-1.0891418,-0.5284271,-2.2481384,1.1840532,-1.4761858,-1.7087853
1570727086,-4.515991,-7.7592926,-0.502594,-1.3469391,-0.49328613,-1.812439,-2.3978906,1.1556721,-1.7816956
1570727086,-4.3483887,-7.949646,-0.0010070801,-1.4502716,-0.27064514,-1.2499847,-3.377194,1.5455055,-1.3017943
1570727086,-3.1931915,-7.171524,1.0380707,-1.2478638,0.05958557,-0.89738464,-2.585384,1.9932251,0.33465767
1570727086,-1.4083099,-7.4887543,0.8202057,-1.1754303,-0.62324524,-0.5000305,-1.018009,1.900444,1.1168195
1570727086,-0.25550842,-7.1775055,0.4407196,-1.1306915,-0.923645,-0.3381195,0.12415254,1.9409275,0.8796387
1570727086,-2.7035675,-5.2669373,-9.5095825,-1.2798309,1.5584259,0.22860718,-1.83377,4.3778114,-5.545862
1570727086,4.785492,-9.915283,9.039505,-1.7133942,0.7062073,-0.2081604,3.1673872,0.53363514,6.516033
1570727086,-3.5798492,-7.8598633,-0.9443207,-0.3764801,0.112854004,-0.9602356,-2.681976,1.2345657,0.65012765
1570727086,-4.7817383,-7.4779816,-1.1238861,-0.41589355,0.20872498,-0.44250488,-4.1991854,1.7845335,-0.18781447
1570727086,-1.8907471,-10.106812,-0.02255249,-0.43293762,0.12882996,-0.267807,-2.6144795,-0.2808113,1.0902452
1570727086,-0.74272156,-11.567276,-0.8018646,-0.3988495,0.07237244,-0.48831177,-0.8467019,-2.2505045,0.946404
1570727086,0.15510559,-11.540939,-1.2747192,-0.47981262,0.30673218,-0.69818115,-0.18928686,-2.0293102,-0.14308393
1570727086,0.4040985,-13.458694,1.0739899,-0.30297852,0.11392212,-0.6768646,0.2940643,-4.033703,2.4353569
1570727086,-2.5671082,-14.43074,0.4000244,0.45228577,0.11605835,-0.35942078,-3.0387473,-5.1815205,1.7203803
1570727086,-1.550766,-13.93515,3.3293304,1.092514,0.37278748,0.24139404,-1.9354686,-4.6746025,4.802653
1570727086,-2.265442,-10.748459,2.4243164,1.9351349,0.7062073,0.82621765,-2.551196,-2.0924997,3.712164
1570727086,-2.503662,-10.828659,2.6350098,2.475235,0.8180542,1.4270325,-2.3638384,-1.1160593,2.8979301
1570727086,-3.7378693,-13.031326,1.3265839,2.4667053,0.7157898,1.7732391,-3.0710385,-3.4799585,0.90076244
1570727086,-2.4198608,-11.318283,0.53170776,2.113037,0.31951904,2.024643,-1.4591615,-2.1732168,-0.53505623
1570727086,1.1774292,-10.00386,-1.0903625,1.9351349,0.19488525,2.1556702,2.5067172,-0.97468853,-2.4277864
1570727086,1.9998322,-9.237717,-0.8305969,1.570816,-0.08634949,2.0960083,4.1076803,-0.41353798,-3.4960775
1570727086,0.017440796,-8.410522,4.1038513,1.7146301,0.47398376,2.0992126,2.8217328,0.2523489,1.2152197
1570727086,-0.2459259,-8.183075,2.888794,1.8328705,0.07662964,2.1492767,3.1196084,0.17695236,0.37136912
1570727086,-1.80336,-8.269272,1.2787018,1.9053192,-0.5050049,2.1972198,2.258019,-0.2193079,-2.2358515
1570727086,-1.80336,-8.269272,1.2787018,1.9053192,-0.5050049,2.1972198,2.258019,-0.2193079,-2.2358515
1570727086,-1.80336,-8.269272,1.2787018,1.9053192,-0.5050049,2.1972198,2.258019,-0.2193079,-2.2358515
1570727086,-1.80336,-8.269272,1.2787018,1.9053192,-0.5050049,2.1972198,2.258019,-0.2193079,-2.2358515
1570727086,-1.80336,-8.269272,1.2787018,1.9053192,-0.5050049,2.1972198,2.258019,-0.2193079,-2.2358515
1570727086,-1.80336,-8.269272,1.2787018,1.9053192,-0.5050049,2.1972198,2.258019,-0.2193079,-2.2358515
1570727087,-1.80336,-8.269272,1.2787018,1.9053192,-0.5050049,2.1972198,2.258019,-0.2193079,-2.2358515
1570727087,-1.80336,-8.269272,1.2787018,1.9053192,-0.5050049,2.1972198,2.258019,-0.2193079,-2.2358515
1570727087,-1.80336,-8.269272,1.2787018,1.9053192,-0.5050049,2.1972198,2.258019,-0.2193079,-2.2358515
1570727087,-1.80336,-8.269272,1.2787018,1.9053192,-0.5050049,2.1972198,2.258019,-0.2193079,-2.2358515
1570727087,-1.80336,-8.269272,1.2787018,1.9053192,-0.5050049,2.1972198,2.258019,-0.2193079,-2.2358515
1570727087,-1.80336,-8.269272,1.2787018,1.9053192,-0.5050049,2.1972198,2.258019,-0.2193079,-2.2358515
1570727087,-1.80336,-8.269272,1.2787018,1.9053192,-0.5050049,2.1972198,2.258019,-0.2193079,-2.2358515
1570727087,-1.80336,-8.269272,1.2787018,1.9053192,-0.5050049,2.1972198,2.258019,-0.2193079,-2.2358515
1570727087,-1.80336,-8.269272,1.2787018,1.9053192,-0.5050049,2.1972198,2.258019,-0.2193079,-2.2358515
1570727087,-1.80336,-8.269272,1.2787018,1.9053192,-0.5050049,2.1972198,2.258019,-0.2193079,-2.2358515
1570727087,-1.80336,-8.269272,1.2787018,1.9053192,-0.5050049,2.1972198,2.258019,-0.2193079,-2.2358515
1570727087,-1.80336,-8.269272,1.2787018,1.9053192,-0.5050049,2.1972198,2.258019,-0.2193079,-2.2358515
1570727087,-1.80336,-8.269272,1.2787018,1.9053192,-0.5050049,2.1972198,2.258019,-0.2193079,-2.2358515
1570727087,-1.80336,-8.269272,1.2787018,1.9053192,-0.5050049,2.1972198,2.258019,-0.2193079,-2.2358515
1570727087,-1.80336,-8.269272,1.2787018,1.9053192,-0.5050049,2.1972198,2.258019,-0.2193079,-2.2358515
1570727087,-1.80336,-8.269272,1.2787018,1.9053192,-0.5050049,2.1972198,2.258019,-0.2193079,-2.2358515
1570727087,-1.80336,-8.269272,1.2787018,1.9053192,-0.5050049,2.1972198,2.258019,-0.2193079,-2.2358515
1570727087,-1.80336,-8.269272,1.2787018,1.9053192,-0.5050049,2.1972198,2.258019,-0.2193079,-2.2358515
1570727087,-1.80336,-8.269272,1.2787018,1.9053192,-0.5050049,2.1972198,2.258019,-0.2193079,-2.2358515
1570727087,-1.80336,-8.269272,1.2787018,1.9053192,-0.5050049,2.1972198,2.258019,-0.2193079,-2.2358515
1570727087,-1.80336,-8.269272,1.2787018,1.9053192,-0.5050049,2.1972198,2.258019,-0.2193079,-2.2358515
1570727087,-1.80336,-8.269272,1.2787018,1.9053192,-0.5050049,2.1972198,2.258019,-0.2193079,-2.2358515
1570727087,-1.80336,-8.269272,1.2787018,1.9053192,-0.5050049,2.1972198,2.258019,-0.2193079,-2.2358515
1570727087,-1.80336,-8.269272,1.2787018,1.9053192,-0.5050049,2.1972198,2.258019,-0.2193079,-2.2358515
1570727087,-1.80336,-8.269272,1.2787018,1.9053192,-0.5050049,2.1972198,2.258019,-0.2193079,-2.2358515
1570727087,-1.80336,-8.269272,1.2787018,1.9053192,-0.5050049,2.1972198,2.258019,-0.2193079,-2.2358515
1570727087,-1.80336,-8.269272,1.2787018,1.9053192,-0.5050049,2.1972198,2.258019,-0.2193079,-2.2358515
1570727087,-1.80336,-8.269272,1.2787018,1.9053192,-0.5050049,2.1972198,2.258019,-0.2193079,-2.2358515
1570727087,-1.80336,-8.269272,1.2787018,1.9053192,-0.5050049,2.1972198,2.258019,-0.2193079,-2.2358515
1570727087,-1.80336,-8.269272,1.2787018,1.9053192,-0.5050049,2.1972198,2.258019,-0.2193079,-2.2358515
1570727087,-1.80336,-8.269272,1.2787018,1.9053192,-0.5050049,2.1972198,2.258019,-0.2193079,-2.2358515
1570727087,-1.80336,-8.269272,1.2787018,1.9053192,-0.5050049,2.1972198,2.258019,-0.2193079,-2.2358515
1570727087,-1.80336,-8.269272,1.2787018,1.9053192,-0.5050049,2.1972198,2.258019,-0.2193079,-2.2358515
1570727088,-1.80336,-8.269272,1.2787018,1.9053192,-0.5050049,2.1972198,2.258019,-0.2193079,-2.2358515
1570727088,-1.80336,-8.269272,1.2787018,1.9053192,-0.5050049,2.1972198,2.258019,-0.2193079,-2.2358515
1570727088,-1.80336,-8.269272,1.2787018,1.9053192,-0.5050049,2.1972198,2.258019,-0.2193079,-2.2358515
1570727088,-1.80336,-8.269272,1.2787018,1.9053192,-0.5050049,2.1972198,2.258019,-0.2193079,-2.2358515
1570727088,-1.80336,-8.269272,1.2787018,1.9053192,-0.5050049,2.1972198,2.258019,-0.2193079,-2.2358515
1570727088,-1.80336,-8.269272,1.2787018,1.9053192,-0.5050049,2.1972198,2.258019,-0.2193079,-2.2358515
1570727088,-1.80336,-8.269272,1.2787018,1.9053192,-0.5050049,2.1972198,2.258019,-0.2193079,-2.2358515
1570727088,-1.80336,-8.269272,1.2787018,1.9053192,-0.5050049,2.1972198,2.258019,-0.2193079,-2.2358515
1570727088,-1.80336,-8.269272,1.2787018,1.9053192,-0.5050049,2.1972198,2.258019,-0.2193079,-2.2358515
1570727088,-1.80336,-8.269272,1.2787018,1.9053192,-0.5050049,2.1972198,2.258019,-0.2193079,-2.2358515
1570727088,-1.80336,-8.269272,1.2787018,1.9053192,-0.5050049,2.1972198,2.258019,-0.2193079,-2.2358515
1570727088,-1.80336,-8.269272,1.2787018,1.9053192,-0.5050049,2.1972198,2.258019,-0.2193079,-2.2358515
1570727088,-1.80336,-8.269272,1.2787018,1.9053192,-0.5050049,2.1972198,2.258019,-0.2193079,-2.2358515
1570727088,-1.80336,-8.269272,1.2787018,1.9053192,-0.5050049,2.1972198,2.258019,-0.2193079,-2.2358515
1570727088,-1.80336,-8.269272,1.2787018,1.9053192,-0.5050049,2.1972198,2.258019,-0.2193079,-2.2358515
1570727088,-1.80336,-8.269272,1.2787018,1.9053192,-0.5050049,2.1972198,2.258019,-0.2193079,-2.2358515
1570727088,-1.80336,-8.269272,1.2787018,1.9053192,-0.5050049,2.1972198,2.258019,-0.2193079,-2.2358515
1570727088,0.45437622,-8.754089,-1.3154297,1.9053192,-0.5050049,2.1972198,2.258019,-0.2193079,-2.2358515
1570727088,0.45437622,-8.754089,-1.3154297,1.9053192,-0.5050049,2.1972198,2.258019,-0.2193079,-2.2358515
1570727088,-4.001236,-8.948029,3.4610138,-2.2950287,-0.6956787,-1.3352051,-2.1076078,0.14259338,2.6732507
1570727088,-13.578033,-17.816147,9.866699,-1.2468109,-0.35691833,-0.58206177,-11.682623,-8.583447,9.899102
1570727088,-10.545776,-16.658554,13.977539,0.9092865,1.5030212,0.58439636,-9.462114,-7.9018755,13.876149
1570727088,-2.0343933,-7.8335266,5.913864,0.8677368,0.11924744,0.6909332,-0.30283988,0.774539,5.8658586
1570727088,1.8729401,-3.7825317,0.08039856,0.49916077,0.5027466,0.4895935,3.618577,5.2843323,-0.13031873
1570727088,9.158493,-15.836136,0.15342712,-0.16983032,0.114990234,-0.46914673,11.088501,-6.6199055,-0.4056478
1570727088,4.4251556,-10.77121,-2.3664703,0.56733704,0.8383026,-1.0625,6.485789,-2.2972164,-2.9191725
1570727088,1.1247559,-5.7888794,-1.0664215,0.9135437,0.33869934,-1.1988525,2.5380876,3.183467,-1.7434587
1570727088,-0.12382507,-5.545868,-1.5644226,0.007003784,-0.5923462,-1.3266754,0.91475385,3.554843,-2.391009
1570727088,1.0146179,-9.958374,-3.067978,-0.36264038,-1.03656,-1.2031097,1.6537416,-0.5978594,-3.7260287
1570727088,1.1522827,-12.866135,-5.7375183,-0.4467926,0.3131256,-1.1647644,1.5078578,-3.9398518,-6.333659
1570727088,1.0014496,-7.7257843,-4.891159,-1.1328278,1.930191,-0.28271484,1.0168227,1.309783,-5.2536187
1570727088,2.4080505,-7.4660034,-3.1769104,-1.5812988,3.1499176,0.06349182,2.4611132,1.7123375,-3.208974
1570727088,1.7915344,-8.985138,-1.0903625,-1.5727692,3.4034576,-0.23692322,1.9807645,0.3016262,-0.8435293
1570727088,-0.010101318,-9.892532,0.038497925,-1.2958069,2.4319305,-0.3690033,-0.091185346,-0.7317982,0.95083565
1570727089,-0.8779907,-9.811127,-0.12071228,-1.105133,1.4135437,-0.04623413,-1.0870034,-0.75150204,1.0296042
1570727089,-1.15094,-10.306732,-1.5153351,-0.45744324,1.2068787,-0.22413635,-1.4468951,-1.2948799,0.21592307
1570727089,-7.3722687,-8.412918,-8.020386,-1.2382812,3.2947998,-0.27633667,-6.596017,0.23426342,-6.235408
1570727089,-7.4979706,-8.041809,-2.6884918,-2.4058075,3.329956,1.0392761,-8.254159,0.9027872,-0.7951257
1570727089,0.09284973,-10.531784,7.1600494,-2.968277,1.1088715,1.4451294,-0.8473989,-1.3040457,6.7663574
1570727089,3.8361816,-10.663467,0.107925415,0.7740021,1.5253906,0.13912964,4.2856503,-2.4614172,6.1906767
1570727089,0.7859802,-7.9400635,-4.2255707,-0.41270447,1.7139435,0.03366089,0.044709682,0.5475569,-2.605628
1570727089,0.12756348,-9.003082,-0.04649353,-0.07501221,1.3379059,-0.3104248,-0.09123784,-0.089868546,2.9578738
1570727089,-0.9330597,-8.995911,-2.4227448,-0.20497131,1.179184,-0.40948486,-1.661742,-0.38132095,0.48178983
1570727089,-0.97377014,-8.614029,-1.8900299,-0.18687439,1.0247192,-0.48405457,-1.9056733,-0.084905624,0.98190856
1570727089,0.1874237,-9.492706,-1.1454315,-0.23905945,0.88623047,-0.5000305,-0.9947159,-0.6848469,1.8250067
1570727089,-0.6481476,-11.860565,-1.4255524,-0.12188721,1.4114075,-0.40522766,-1.9987992,-2.9471521,1.8504887
1570727089,-1.1401672,-12.722473,0.0049743652,0.42033386,1.7714691,0.18386841,-2.9647107,-3.8637018,2.416121
1570727089,0.06411743,-14.021332,1.892807,0.9103546,1.7736053,0.38946533,-1.3832799,-5.3019505,4.4434233
1570727089,-0.7774353,-12.461517,1.6821136,1.6230164,2.0782623,0.5726776,-2.5413346,-3.8031988,3.73187
1570727089,2.528946,-11.457138,2.4638214,2.2792206,2.5736237,1.3045197,0.62769973,-2.4691677,3.726512
1570727089,2.224884,-12.364548,4.449814,2.9514008,2.7429962,2.0565948,1.5453218,-3.2385712,4.9651423
1570727089,1.8573761,-12.671005,-0.9048157,2.8949432,2.3989105,2.1322327,1.3240669,-3.4887915,-0.6493763
1570727089,2.4954376,-12.020981,-0.6713867,1.7849426,2.0931854,1.3545837,3.096365,-2.869216,-2.1168368
1570727089,2.2117157,-9.771622,1.4941711,1.9564514,1.1738586,1.373764,2.588467,-0.8517723,0.47850347
1570727089,-0.041229248,-9.487915,2.229187,2.0523224,1.3368378,1.2086487,1.4012277,-0.3567648,0.33737504
1570727089,-2.9848938,-9.118011,2.6804962,1.9244843,1.9632263,1.7604523,-1.5814966,-0.35789013,0.3694861
1570727089,1.4312134,-7.3834076,4.042801,1.8307495,1.5051575,1.8595276,3.1288936,0.8991184,1.2450507
1570727089,-0.31774902,-6.8267517,1.571991,1.8903961,-0.17050171,1.9820251,2.534005,1.6408472,-1.5554783
1570727089,-0.84088135,-6.3670654,1.532486,1.7593689,0.48677063,1.8808289,2.0126784,1.506259,-2.6157057
1570727089,-0.5751343,-6.2162323,1.9454803,1.5218201,0.23109436,1.7956085,2.8295393,1.2975683,-1.9232655
1570727089,-1.7219543,-4.3631287,2.505722,1.4610901,-0.34733582,1.5037231,2.2189476,2.535337,-1.8188791
1570727089,-1.3640137,-2.356781,1.9550629,1.1436462,-1.0610657,1.0776215,2.4419284,4.307066,-2.41718
1570727089,-0.36683655,-2.624939,1.6067047,0.5428314,-1.2666626,0.47787476,3.4052532,4.0392885,-3.2134314
1570727089,1.165451,-1.0890503,1.3553162,-0.24119568,-0.91192627,-0.113342285,4.693059,5.226294,-3.8991532
1570727089,0.42564392,-1.2985535,2.639801,-1.1455994,0.042541504,-0.8387909,4.2823715,5.4846687,-2.4852238
1570727089,-1.1629028,-2.9517365,6.0539246,-1.884903,0.9671936,-1.3266754,2.2999668,4.1835814,0.48207903
1570727089,-7.938492,-7.815567,15.194992,-0.83880615,2.1485748,-1.4736938,-1.8575642,0.73728323,16.041021
1570727090,-3.539154,-19.304138,-2.6573792,-1.7581329,0.86813354,-1.1125641,-2.4517686,-11.079025,-6.166465
1570727090,-2.6963959,-12.593201,12.094498,-0.6800842,0.9863739,-0.85476685,-1.0716004,-6.7008243,8.256168
1570727090,-1.5579529,-4.3715057,0.8740692,-1.2350922,-0.8725128,-1.285141,1.6429119,3.6184826,-1.6793408
1570727090,1.3103027,-7.788025,-0.4918213,-1.2862244,-0.19393921,-1.3724823,3.4466293,1.3066092,-3.48221
1570727090,1.3103027,-7.788025,-0.4918213,-1.2862244,-0.19393921,-1.3724823,3.4466293,1.3066092,-3.48221
1570727090,1.3103027,-7.788025,-0.4918213,-1.2862244,-0.19393921,-1.3724823,3.4466293,1.3066092,-3.48221
1570727090,1.3103027,-7.788025,-0.4918213,-1.2862244,-0.19393921,-1.3724823,3.4466293,1.3066092,-3.48221
1570727090,1.3103027,-7.788025,-0.4918213,-1.2862244,-0.19393921,-1.3724823,3.4466293,1.3066092,-3.48221
1570727090,1.3103027,-7.788025,-0.4918213,-1.2862244,-0.19393921,-1.3724823,3.4466293,1.3066092,-3.48221
1570727090,1.3103027,-7.788025,-0.4918213,-1.2862244,-0.19393921,-1.3724823,3.4466293,1.3066092,-3.48221
1570727090,1.3103027,-7.788025,-0.4918213,-1.2862244,-0.19393921,-1.3724823,3.4466293,1.3066092,-3.48221
1570727090,1.3103027,-7.788025,-0.4918213,-1.2862244,-0.19393921,-1.3724823,3.4466293,1.3066092,-3.48221
1570727090,1.3103027,-7.788025,-0.4918213,-1.2862244,-0.19393921,-1.3724823,3.4466293,1.3066092,-3.48221
1570727090,1.3103027,-7.788025,-0.4918213,-1.2862244,-0.19393921,-1.3724823,3.4466293,1.3066092,-3.48221
1570727090,1.3103027,-7.788025,-0.4918213,-1.2862244,-0.19393921,-1.3724823,3.4466293,1.3066092,-3.48221
1570727090,1.3103027,-7.788025,-0.4918213,-1.2862244,-0.19393921,-1.3724823,3.4466293,1.3066092,-3.48221
1570727090,1.3103027,-7.788025,-0.4918213,-1.2862244,-0.19393921,-1.3724823,3.4466293,1.3066092,-3.48221
1570727090,1.3103027,-7.788025,-0.4918213,-1.2862244,-0.19393921,-1.3724823,3.4466293,1.3066092,-3.48221
1570727090,1.3103027,-7.788025,-0.4918213,-1.2862244,-0.19393921,-1.3724823,3.4466293,1.3066092,-3.48221
1570727090,-3.1860046,-8.075333,0.8800659,-1.2862244,-0.19393921,-1.3724823,0.6298951,3.0971956,-0.095098495
1570727090,0.117996216,-14.810226,-0.0728302,-0.039855957,0.32484436,0.08479309,-1.411137,-5.647829,0.71021414
1570727090,1.0505371,-14.058441,3.0767365,0.86135864,0.23536682,0.35217285,0.7334808,-5.536853,4.065812
1570727090,-2.8759613,-12.326233,4.8951416,1.8254242,0.605011,1.0275574,-3.2266207,-3.8752909,5.6069007
1570727090,-4.3005066,-10.762833,4.2941895,2.3260956,1.1376343,2.3122559,-4.8057218,-1.5322685,4.7073436
1570727090,-2.2486725,-11.657059,2.631424,2.3750916,2.0186157,2.9918976,-2.318132,-2.16644,2.7758996
1570727090,-0.71998596,-11.841415,1.2308044,2.5327454,3.201065,3.3402405,-1.2291605,-3.2085114,0.28402847
1570727090,-0.71998596,-11.841415,1.2308044,2.5327454,3.201065,3.3402405,-1.2291605,-3.2085114,0.28402847
1570727090,-0.71998596,-11.841415,1.2308044,2.5327454,3.201065,3.3402405,-1.2291605,-3.2085114,0.28402847
1570727090,-0.71998596,-11.841415,1.2308044,2.5327454,3.201065,3.3402405,-1.2291605,-3.2085114,0.28402847
1570727090,-0.71998596,-11.841415,1.2308044,2.5327454,3.201065,3.3402405,-1.2291605,-3.2085114,0.28402847
1570727090,-0.71998596,-11.841415,1.2308044,2.5327454,3.201065,3.3402405,-1.2291605,-3.2085114,0.28402847
1570727090,-0.71998596,-11.841415,1.2308044,2.5327454,3.201065,3.3402405,-1.2291605,-3.2085114,0.28402847
1570727090,-0.71998596,-11.841415,1.2308044,2.5327454,3.201065,3.3402405,-1.2291605,-3.2085114,0.28402847
1570727091,-0.71998596,-11.841415,1.2308044,2.5327454,3.201065,3.3402405,-1.2291605,-3.2085114,0.28402847
1570727091,-0.71998596,-11.841415,1.2308044,2.5327454,3.201065,3.3402405,-1.2291605,-3.2085114,0.28402847
1570727091,-0.71998596,-11.841415,1.2308044,2.5327454,3.201065,3.3402405,-1.2291605,-3.2085114,0.28402847
1570727091,-0.71998596,-11.841415,1.2308044,2.5327454,3.201065,3.3402405,-1.2291605,-3.2085114,0.28402847
1570727091,-0.71998596,-11.841415,1.2308044,2.5327454,3.201065,3.3402405,-1.2291605,-3.2085114,0.28402847
1570727091,-0.71998596,-11.841415,1.2308044,2.5327454,3.201065,3.3402405,-1.2291605,-3.2085114,0.28402847
1570727091,-0.71998596,-11.841415,1.2308044,2.5327454,3.201065,3.3402405,-1.2291605,-3.2085114,0.28402847
1570727091,-0.71998596,-11.841415,1.2308044,2.5327454,3.201065,3.3402405,-1.2291605,-3.2085114,0.28402847
1570727091,-0.71998596,-11.841415,1.2308044,2.5327454,3.201065,3.3402405,-1.2291605,-3.2085114,0.28402847
1570727091,-1.2060089,-7.140396,1.3170013,-1.3544006,-0.142807,-1.3799438,1.8244765,1.7189274,-2.3510344
1570727091,-1.2646637,-11.1866,1.7611237,-1.3181763,-0.0597229,-2.2055206,2.2340665,-3.1909475,-0.7164941
1570727091,-1.2275543,-9.689026,0.8190155,-1.154129,-0.2876892,-2.3088531,1.4331028,-1.9944038,-1.4008482
1570727091,-0.8887634,-8.866623,0.9854126,-1.0465393,-0.5007324,-2.6145935,1.3416791,-0.25039768,-1.2132454
1570727091,-2.0870667,-9.11322,1.2164459,-0.96450806,-1.256012,-2.9629211,-0.30610108,-0.3148117,-0.64288247
1570727091,-5.16481,-9.029419,0.29707336,-1.2872925,-1.4658661,-2.28862,-3.8058243,-0.42367458,-1.3906517
1570727091,-5.362335,-7.245743,0.8776703,-1.2851562,-0.94921875,-1.0806122,-5.895569,1.1966248,-0.61453557
1570727091,-1.5040741,-7.127228,1.7012787,-0.9719696,-0.65626526,-0.37220764,-2.1844592,1.8338604,0.7133632
1570727091,-0.38838196,-6.807602,1.5025482,-0.738678,-0.5369568,-0.08351135,-0.6127954,2.082077,1.1707428
1570727091,0.019836426,-7.1451874,-2.262329,-0.93148804,-0.17263794,0.18598938,0.5742795,1.7047977,-1.2646873
1570727091,1.2480621,-8.070541,0.9243469,-2.206604,1.4178009,0.38519287,0.49409854,1.2692547,-3.9484031
1570727091,1.6371155,-10.048157,3.6896515,-0.35731506,-0.038406372,-0.57566833,2.2584698,-1.1492987,7.32817
1570727091,-1.6596985,-8.384186,-1.0795898,-0.5469208,-0.054397583,-0.84625244,-1.4208603,0.41695976,-1.3529295
1570727091,-2.249878,-8.271652,-1.146637,-0.5458679,0.14801025,-0.6576996,-3.0695214,0.7661381,-0.6381506
1570727091,-0.8755951,-9.4543915,-1.0484619,-0.59272766,0.08409119,-0.65449524,-1.653121,-0.35938358,-0.29221058
1570727091,-0.98931885,-10.170258,-1.8277893,-0.6332092,-0.058654785,-0.6960449,-1.840035,-1.1571217,-0.9220307
1570727091,-0.34049988,-10.75444,-1.8636932,-0.7290802,-0.077819824,-0.6427765,-1.6892536,-1.3747473,-1.1374495
1570727091,0.77160645,-14.024933,-0.25837708,-0.50431824,-0.042678833,-0.52667236,-0.25469148,-4.855221,0.5532377
1570727091,0.25805664,-15.647003,2.8169708,0.5194092,0.41539,0.16468811,-0.9516356,-6.9397316,3.4488277
1570727091,-0.21240234,-13.941132,4.6102295,1.4813385,1.0620117,0.62168884,-1.1253773,-4.9760265,5.0812864
1570727091,-2.53479,-12.53334,4.878372,2.55513,1.305954,1.0690918,-3.0055017,-3.7692099,5.378126
1570727091,-3.1955872,-11.343414,1.0249023,2.8086548,1.4316559,1.5196991,-3.6931524,-2.204648,1.6300638
1570727091,-3.482895,-12.498627,0.72084045,2.2909393,2.117691,1.8829651,-3.6933348,-2.8852005,-0.9430951
1570727091,-1.6177979,-10.410873,1.5396576,1.9607086,1.3996887,2.3197174,-1.2675614,-1.7001371,-0.34632492
1570727091,0.7440796,-9.291595,-2.0229034,1.8200836,0.4068756,2.4443512,1.4503136,-0.6752367,-3.3558846
1570727092,0.26045227,-8.663116,-1.4016113,0.9593506,0.09901428,2.4337006,2.323877,-0.24743557,-4.9431987
1570727092,-0.6373749,-8.4189,7.411438,1.5271454,-0.28981018,2.5402222,1.8112109,-0.18341827,4.5010233
1570727092,-0.09628296,-8.312363,1.1901093,1.5814667,-0.39100647,2.470993,2.6881082,-0.3050213,-2.3272383
1570727092,1.1702423,-7.6312103,1.5635986,1.567627,-0.62324524,2.3495483,4.6690307,-0.45826197,-0.83264947
1570727092,0.3430481,-4.8766785,-0.054870605,1.2597656,-0.19607544,1.9127808,4.782406,1.8841419,-4.4583726
1570727092,-2.1972046,-3.5143738,1.987381,0.9785309,-0.4208374,1.7583313,2.7575831,3.0833564,-2.5955896
1570727092,-2.1804352,-3.2833405,1.6845093,0.8847809,-1.129242,1.5782928,2.0555491,2.9018292,-2.389258
1570727092,1.0792694,-1.9737091,0.10913086,0.27651978,-1.3114014,0.95510864,4.8993955,3.8303409,-4.767442
1570727092,1.4779053,-1.3631897,0.59036255,-0.6278839,-0.68289185,-0.089904785,6.3262095,4.5434036,-4.4625587
1570727092,-0.15255737,-2.1065826,1.6234589,-1.4662476,-0.25146484,-0.7354584,4.443621,4.4034166,-3.5825968
1570727092,-0.3548584,-3.5886078,1.9706116,-2.3919678,0.6944885,-1.7463989,3.7434382,3.2101116,-2.3595676
1570727092,-7.649994,-5.8618927,26.231064,-1.0156403,3.06044,-2.4292297,0.3072157,2.273933,12.227187
1570727092,-11.384949,-26.507095,-8.533936,-2.2396393,2.216751,-1.2744904,-11.130897,-16.23663,-14.540435
1570727092,-5.728653,-14.157806,10.516724,-0.041992188,-1.6618805,-0.3178711,-3.1400502,-10.816345,12.511201
1570727092,0.6938019,0.9460144,-1.6889191,-1.0039215,-1.5691986,-0.90057373,3.1128807,6.4268627,-4.8971696
1570727092,3.0532837,-5.0382843,-1.0724182,-1.775177,-0.22802734,-1.8561249,5.9476576,4.528632,-3.53436
1570727092,-0.35845947,-15.395599,1.1039124,-1.6739807,0.7157898,-2.4026031,3.0383847,-6.131627,-1.3268206
1570727092,-1.7626495,-12.975067,2.6433868,-1.3267059,-0.5902252,-2.0105743,0.202407,-5.0228586,1.0870746
1570727092,-2.7155457,-8.617615,0.7328186,-0.9240265,-1.3177948,-1.8667755,-1.3240483,-0.1607809,-0.53222156
1570727092,-2.4114838,-7.013504,0.17616272,-0.95918274,-1.1537476,-1.4214935,-1.5994537,1.9251823,-0.9380685
1570727092,-1.4921112,-8.450027,-0.210495,-0.898468,-0.7404175,-1.1274719,-1.0321773,0.76412964,-1.2448418
1570727092,-1.2263489,-8.253708,0.57958984,-1.041214,-0.5454712,-0.9133606,-1.0898368,0.66707706,-0.30378753
1570727092,-0.21479797,-7.978363,1.6043091,-0.83135986,-0.38035583,-0.57673645,-0.24840432,0.9807596,0.95741725
1570727092,0.23051453,-7.9628143,0.5855713,-0.7173767,-0.45066833,-0.6140137,0.16239811,1.2628927,0.45235008
1570727092,-2.0032654,-6.815979,-0.5241394,-0.7770233,-0.02243042,-0.504303,-1.9182466,2.0394697,-0.15918578
1570727092,-2.9298248,-7.361862,-3.4534454,-1.7070007,1.0854492,0.1401825,-3.5486937,1.854845,-4.203021
1570727092,2.508606,-9.5334015,5.288986,-0.71842957,0.32910156,-0.38285828,2.252553,-0.5131836,6.2384644
1570727092,-1.2275543,-8.823517,-1.9355164,-0.50538635,-0.44215393,-0.826004,-1.3498832,0.14458466,-1.2454093
1570727092,-1.9134827,-9.091675,-0.75756836,-0.48194885,0.021240234,-0.6406555,-2.583561,-0.04452324,0.18030316
1570727092,-1.9386292,-9.096466,-0.6043396,-0.41056824,0.07130432,-0.5746002,-2.685439,-0.15676594,0.21223307
1570727092,-1.9386292,-9.096466,-0.6043396,-0.41056824,0.07130432,-0.5746002,-2.685439,-0.15676594,0.21223307
1570727092,-1.9386292,-9.096466,-0.6043396,-0.41056824,0.07130432,-0.5746002,-2.685439,-0.15676594,0.21223307
1570727092,-1.9386292,-9.096466,-0.6043396,-0.41056824,0.07130432,-0.5746002,-2.685439,-0.15676594,0.21223307
1570727093,-1.9386292,-9.096466,-0.6043396,-0.41056824,0.07130432,-0.5746002,-2.685439,-0.15676594,0.21223307
1570727093,-1.9386292,-9.096466,-0.6043396,-0.41056824,0.07130432,-0.5746002,-2.685439,-0.15676594,0.21223307
1570727093,-1.9386292,-9.096466,-0.6043396,-0.41056824,0.07130432,-0.5746002,-2.685439,-0.15676594,0.21223307
1570727093,-1.9386292,-9.096466,-0.6043396,-0.41056824,0.07130432,-0.5746002,-2.685439,-0.15676594,0.21223307
1570727093,-1.9386292,-9.096466,-0.6043396,-0.41056824,0.07130432,-0.5746002,-2.685439,-0.15676594,0.21223307
1570727093,-1.9386292,-9.096466,-0.6043396,-0.41056824,0.07130432,-0.5746002,-2.685439,-0.15676594,0.21223307
1570727093,-1.9386292,-9.096466,-0.6043396,-0.41056824,0.07130432,-0.5746002,-2.685439,-0.15676594,0.21223307
1570727093,-1.9386292,-9.096466,-0.6043396,-0.41056824,0.07130432,-0.5746002,-2.685439,-0.15676594,0.21223307
1570727093,-1.9386292,-9.096466,-0.6043396,-0.41056824,0.07130432,-0.5746002,-2.685439,-0.15676594,0.21223307
1570727093,-1.9386292,-9.096466,-0.6043396,-0.41056824,0.07130432,-0.5746002,-2.685439,-0.15676594,0.21223307
1570727093,-1.9386292,-9.096466,-0.6043396,-0.41056824,0.07130432,-0.5746002,-2.685439,-0.15676594,0.21223307
1570727093,-1.9386292,-9.096466,-0.6043396,-0.41056824,0.07130432,-0.5746002,-2.685439,-0.15676594,0.21223307
1570727093,-1.9386292,-9.096466,-0.6043396,-0.41056824,0.07130432,-0.5746002,-2.685439,-0.15676594,0.21223307
1570727093,-2.7813873,-4.870697,1.774292,1.2416534,0.591156,0.39904785,-0.7514088,-1.022809,-1.3345773
1570727093,-2.7813873,-4.870697,1.774292,2.2600403,1.1727905,1.6837616,-0.7514088,-1.022809,-1.3345773
1570727093,0.21257019,-2.1281433,2.2172241,-0.535202,-0.6029968,0.08798218,4.7671485,3.7189298,-3.086351
1570727093,0.1191864,-2.051529,3.1916656,-1.0710297,-0.12362671,-0.49577332,4.413237,4.025441,-1.7271128
1570727093,-0.18966675,-2.3041077,1.7623291,-1.5930176,0.4420166,-1.3213501,3.8207479,4.106241,-3.024621
1570727093,-2.9801025,-4.458893,16.229294,-1.4193726,1.3176727,-1.8348083,2.1372921,3.1307778,7.6674147
1570727093,-20.808533,-21.879105,-5.3783875,-2.077713,3.3778992,-0.7237396,-18.770813,-12.429844,-8.035353
1570727093,-5.4269714,-22.69194,15.803116,-1.2286987,-0.14706421,-0.6427765,-0.7185962,-17.477386,11.849594
1570727093,0.39930725,-3.22229,-1.8373566,-0.9389496,-1.0120697,-0.53411865,3.4827096,3.0290303,-4.26378
1570727093,1.6838074,-2.067093,1.3660889,-1.3607941,-0.35054016,-1.4182892,4.898533,6.9364305,-1.238601
1570727093,1.007431,-12.192169,1.6043091,-1.5802307,0.4345703,-2.0393372,4.3929696,-3.0152283,-1.3543174
1570727093,-2.4090881,-14.234421,2.572754,-1.154129,0.1277771,-2.2076569,0.50088906,-6.231472,0.61061954
1570727093,-4.092209,-9.3550415,1.1960907,-0.81643677,-0.9939575,-1.8273621,-1.987495,-1.1072178,-0.59002304
1570727093,-3.2099457,-7.0733643,0.6968994,-0.9570465,-0.71165466,-1.5205536,-1.8767132,1.3895893,-1.0656883
1570727093,-2.5252075,-7.8335266,0.17137146,-1.0465393,-0.84695435,-1.3064423,-1.4657031,1.2280722,-1.2305748
1570727093,-2.0894623,-9.316727,0.18814087,-1.25,-0.69781494,-1.1104279,-1.4267049,-0.29293346,-1.0892985
1570727093,-1.6225891,-9.013855,1.0715942,-1.2148438,-0.54974365,-0.9186859,-1.2841351,-0.12971592,0.11688608
1570727093,-0.81814575,-7.846695,1.5205078,-1.0774231,-0.59555054,-0.7120209,-0.669165,1.0180378,0.9230405
1570727093,-0.9103241,-7.610855,2.5045319,-0.9240265,-0.5124512,-0.62467957,-0.6486627,1.3242607,1.6200246
1570727093,-1.0312195,-7.1918793,0.8453369,-0.5703583,-0.68821716,-0.38285828,-0.8966753,1.7496815,1.0330019
1570727094,-2.0116577,-7.6084595,-2.9482727,-1.3501434,1.193039,0.38414,-2.7958355,1.7318773,-4.3634777
1570727094,2.6618347,-9.364609,4.628189,-0.69073486,0.34295654,-0.18791199,2.6942666,-0.21765423,5.473115
1570727094,0.51423645,-8.979141,-1.2926788,-0.4499817,0.09687805,-0.72161865,0.56939447,-0.01736927,-1.0491092
1570727094,-0.3045807,-8.801971,-0.5672302,-0.45744324,0.21192932,-0.7375946,-0.674072,0.110980034,0.14517069
1570727094,-0.9438324,-9.514252,-1.0185394,-0.4787445,0.103271484,-0.8153534,-1.5378578,-0.5287895,-0.255225
1570727094,-1.1150208,-10.41806,-0.77194214,-0.48088074,-0.01071167,-0.87394714,-1.9275253,-1.2278595,0.07082403
1570727094,-1.950592,-12.23407,-0.76116943,-0.3210907,0.09262085,-0.6481018,-2.65158,-3.7344465,0.43361223
1570727094,-2.0068665,-10.93042,-0.6103363,0.046432495,0.41859436,0.13166809,-3.2836463,-1.874877,-0.05766654
1570727094,1.181015,-15.023315,1.4403076,0.71221924,0.3365631,0.559906,-0.25402468,-5.3664722,2.0181558
1570727094,3.0772247,-17.49292,3.7411346,1.617691,1.0726624,0.7537842,2.3866382,-8.992191,4.1388903
1570727094,-1.1126251,-11.745651,4.8364716,2.5934753,1.6404419,0.82940674,-1.1607052,-2.9330635,4.8859067
1570727094,-3.1249542,-10.055344,-0.102752686,2.8683167,1.7821198,1.260849,-3.3501172,-1.0498581,-0.31462038
1570727094,-2.6281586,-10.565308,0.6837311,2.1439362,1.9248657,1.5612488,-2.5035925,-1.4042006,-1.0707042
1570727094,-3.2422638,-9.745285,1.719223,1.8424683,1.4284515,1.9000092,-2.7720337,-1.0400553,0.09805274
1570727094,-1.2622681,-8.964783,-0.5097809,1.6890564,0.2854309,2.2845612,-0.24320304,-0.2060833,-2.3451872
1570727094,-0.54759216,-9.340668,0.8848419,1.1031647,0.368515,2.457138,1.566668,-0.71497726,-2.762116
1570727094,0.4124756,-9.886551,5.5702972,1.471756,0.49635315,2.5391693,2.9942853,-1.7848091,2.4944475
1570727094,0.17904663,-7.8730316,3.304184,1.3471069,0.018051147,2.2749786,3.5690374,-0.18373299,-0.21919823
1570727094,0.36340332,-6.1492004,1.2499695,1.4855957,-0.44747925,2.0757751,4.1704226,1.0668111,-2.1641037
1570727094,-1.025238,-4.4110107,1.4079742,1.2927856,-0.07356262,1.819046,3.178389,2.520905,-2.8548312
1570727094,-1.5675201,-4.1644135,2.466217,0.99450684,-0.04800415,1.6752319,2.938499,2.5262465,-1.6645961
1570727094,-2.503662,-3.7777405,1.640213,1.0317993,-0.7446747,1.370575,2.174993,2.46172,-2.8810167
1570727094,-1.2275543,-2.743454,2.0831451,0.6791992,-1.0056763,1.022232,3.1560278,3.2549381,-2.5547915
1570727094,-0.23036194,-2.7314758,1.8844299,0.09649658,-0.6392212,0.32554626,4.4854693,3.1763916,-3.1424713
1570727094,-0.052001953,-2.4896545,2.8528748,-0.38607788,-0.089538574,-0.1378479,4.6205897,3.2345657,-2.1748114
1570727094,-2.1924133,-2.8966827,2.4542542,-0.785553,0.13310242,-0.7557068,2.8423748,3.1076312,-2.3973112
1570727094,-2.1924133,-3.2019348,1.8760529,-1.3309631,0.103271484,-1.0944519,2.0383592,2.9956927,-2.2811642
1570727094,-5.1456604,-4.8359833,14.39653,-1.5749054,0.7637329,-1.5088348,0.6778641,2.8753238,3.9994636
1570727094,-23.722275,-22.075424,-1.6147003,-1.5323029,2.232727,-0.45103455,-20.550663,-12.113839,-2.5857613
1570727094,0.5740814,-17.349274,12.298004,-2.0255127,-0.7553406,-0.62361145,4.814224,-10.126705,4.393078
1570727094,-0.083114624,-5.0945587,-0.70370483,-1.1605225,-1.0940857,-0.72587585,3.8265038,1.9316239,-3.6349614
1570727094,-1.3520508,-2.8440094,1.6845093,-1.6856995,-0.16410828,-1.1935272,2.5431314,5.7563567,-0.9355366
1570727094,0.95477295,-14.149429,1.2320099,-2.2918243,1.0705261,-1.6569061,4.422393,-5.8084984,-1.2913818
1570727094,-1.4274597,-14.585175,4.0332184,-1.665451,0.68170166,-1.8816833,1.7101619,-6.4707108,2.3167152
1570727095,-2.5611267,-11.52179,3.1641235,-1.3448029,0.1277771,-1.9019318,0.54593015,-4.093541,1.9138297
1570727095,-2.5611267,-11.52179,3.1641235,-1.3448029,0.1277771,-1.9019318,0.54593015,-4.093541,1.9138297
1570727095,-2.5611267,-11.52179,3.1641235,-1.3448029,0.1277771,-1.9019318,0.54593015,-4.093541,1.9138297
1570727095,-2.5611267,-11.52179,3.1641235,-1.3448029,0.1277771,-1.9019318,0.54593015,-4.093541,1.9138297
1570727095,-2.5611267,-11.52179,3.1641235,-1.3448029,0.1277771,-1.9019318,0.54593015,-4.093541,1.9138297
1570727095,-2.5611267,-11.52179,3.1641235,-1.3448029,0.1277771,-1.9019318,0.54593015,-4.093541,1.9138297
1570727095,-2.5611267,-11.52179,3.1641235,-1.3448029,0.1277771,-1.9019318,0.54593015,-4.093541,1.9138297
1570727095,-2.5611267,-11.52179,3.1641235,-1.3448029,0.1277771,-1.9019318,0.54593015,-4.093541,1.9138297
1570727095,-2.5611267,-11.52179,3.1641235,-1.3448029,0.1277771,-1.9019318,0.54593015,-4.093541,1.9138297
1570727095,-2.5611267,-11.52179,3.1641235,-1.3448029,0.1277771,-1.9019318,0.54593015,-4.093541,1.9138297
1570727095,-2.5611267,-11.52179,3.1641235,-1.3448029,0.1277771,-1.9019318,0.54593015,-4.093541,1.9138297
1570727095,-2.5611267,-11.52179,3.1641235,-1.3448029,0.1277771,-1.9019318,0.54593015,-4.093541,1.9138297
1570727095,-2.5611267,-11.52179,3.1641235,-1.3448029,0.1277771,-1.9019318,0.54593015,-4.093541,1.9138297
1570727095,-2.5611267,-11.52179,3.1641235,-1.3448029,0.1277771,-1.9019318,0.54593015,-4.093541,1.9138297
1570727095,-2.5611267,-11.52179,3.1641235,-1.3448029,0.1277771,-1.9019318,0.54593015,-4.093541,1.9138297
1570727095,-2.5611267,-11.52179,3.1641235,-1.3448029,0.1277771,-1.9019318,0.54593015,-4.093541,1.9138297
1570727095,-2.5611267,-11.52179,3.1641235,-1.3448029,0.1277771,-1.9019318,0.54593015,-4.093541,1.9138297
1570727095,-2.5611267,-11.52179,3.1641235,-1.3448029,0.1277771,-1.9019318,0.54593015,-4.093541,1.9138297
1570727095,-2.5611267,-11.52179,3.1641235,-1.3448029,0.1277771,-1.9019318,0.54593015,-4.093541,1.9138297
1570727095,-2.5611267,-11.52179,3.1641235,-1.3448029,0.1277771,-1.9019318,0.54593015,-4.093541,1.9138297
1570727095,-2.5611267,-11.52179,3.1641235,-1.3448029,0.1277771,-1.9019318,0.54593015,-4.093541,1.9138297
1570727095,-2.5611267,-11.52179,3.1641235,-1.3448029,0.1277771,-1.9019318,0.54593015,-4.093541,1.9138297
1570727095,-2.5611267,-11.52179,3.1641235,-1.3448029,0.1277771,-1.9019318,0.54593015,-4.093541,1.9138297
1570727095,-2.5611267,-11.52179,3.1641235,-1.3448029,0.1277771,-1.9019318,0.54593015,-4.093541,1.9138297
1570727095,-2.5611267,-11.52179,3.1641235,-1.3448029,0.1277771,-1.9019318,0.54593015,-4.093541,1.9138297
1570727095,-2.5611267,-11.52179,3.1641235,-1.3448029,0.1277771,-1.9019318,0.54593015,-4.093541,1.9138297
1570727095,-2.5611267,-11.52179,3.1641235,-1.3448029,0.1277771,-1.9019318,0.54593015,-4.093541,1.9138297
1570727095,-2.5611267,-11.52179,3.1641235,-1.3448029,0.1277771,-1.9019318,0.54593015,-4.093541,1.9138297
1570727095,-2.5611267,-11.52179,3.1641235,-1.3448029,0.1277771,-1.9019318,0.54593015,-4.093541,1.9138297
1570727095,-2.5611267,-11.52179,3.1641235,-1.3448029,0.1277771,-1.9019318,0.54593015,-4.093541,1.9138297
1570727095,-2.5611267,-11.52179,3.1641235,-1.3448029,0.1277771,-1.9019318,0.54593015,-4.093541,1.9138297
1570727095,-2.5611267,-11.52179,3.1641235,-1.3448029,0.1277771,-1.9019318,0.54593015,-4.093541,1.9138297
1570727095,-2.5611267,-11.52179,3.1641235,-1.3448029,0.1277771,-1.9019318,0.54593015,-4.093541,1.9138297
1570727096,-2.5611267,-11.52179,3.1641235,-1.3448029,0.1277771,-1.9019318,0.54593015,-4.093541,1.9138297
1570727096,-2.5611267,-11.52179,3.1641235,-1.3448029,0.1277771,-1.9019318,0.54593015,-4.093541,1.9138297
1570727096,-2.5611267,-11.52179,3.1641235,-1.3448029,0.1277771,-1.9019318,0.54593015,-4.093541,1.9138297
1570727096,-2.5611267,-11.52179,3.1641235,-1.3448029,0.1277771,-1.9019318,0.54593015,-4.093541,1.9138297
1570727096,-2.5611267,-11.52179,3.1641235,-1.3448029,0.1277771,-1.9019318,0.54593015,-4.093541,1.9138297
1570727096,-2.5611267,-11.52179,3.1641235,-1.3448029,0.1277771,-1.9019318,0.54593015,-4.093541,1.9138297
1570727096,-2.5611267,-11.52179,3.1641235,-1.3448029,0.1277771,-1.9019318,0.54593015,-4.093541,1.9138297
1570727096,-2.5611267,-11.52179,3.1641235,-1.3448029,0.1277771,-1.9019318,0.54593015,-4.093541,1.9138297
1570727096,-2.5611267,-11.52179,3.1641235,-1.3448029,0.1277771,-1.9019318,0.54593015,-4.093541,1.9138297
1570727096,-2.5611267,-11.52179,3.1641235,-1.3448029,0.1277771,-1.9019318,0.54593015,-4.093541,1.9138297
1570727096,-1.0922699,-8.173492,2.4051666,-1.3448029,0.1277771,-1.9019318,0.6264294,1.0725679,1.0141706
1570727096,0.3933258,-9.170685,-1.8577118,-1.3448029,0.1277771,-1.9019318,0.6264294,1.0725679,1.0141706
1570727096,4.237213,-11.696564,2.9235077,-0.09526062,0.15119934,0.43527222,5.3256283,-2.7235117,2.1193569
1570727096,6.131027,-9.333481,2.169342,0.73991394,1.1845093,-0.23158264,7.798256,-1.6064415,0.9175851
1570727096,0.45677185,-5.025116,-1.735611,0.36387634,0.114990234,-0.74931335,2.6501684,3.138999,-2.4143867
1570727096,-0.6038666,-5.2046814,-1.4028168,0.007003784,0.5496216,-0.91015625,0.1804269,3.7028666,-2.7097545
1570727096,-0.5978699,-8.266876,-0.46427917,0.013397217,-0.14494324,-0.89845276,0.15303755,0.9171877,-1.4373051
1570727096,-0.5092926,-12.466293,-1.3393707,0.42459106,-0.55825806,-0.8025665,0.04430437,-3.4462147,-2.325269
1570727096,-0.6278076,-10.084076,-1.9798126,0.13165283,-0.9939575,-0.504303,-0.27261326,-1.9781055,-3.1146636
1570727096,0.4005127,-6.9009857,-2.4071808,-0.9293518,-0.20140076,0.15829468,0.45316344,1.7828894,-3.4811559
1570727096,1.9723053,-7.9592133,-2.1186829,-1.5099335,1.1174011,0.14978027,2.2171435,0.8967409,-2.8989196
1570727096,2.2631989,-9.532211,-1.2411957,-1.2840881,2.2369995,-0.26034546,2.658211,-0.5827427,-1.6164854
1570727096,2.2548218,-9.161102,-0.759964,-1.1253662,2.435135,0.09864807,2.4007778,-0.45901966,-0.7744264
1570727096,1.667038,-8.593674,0.12828064,-1.1658478,1.7469788,-0.103759766,2.082952,0.08589649,0.46976164
1570727096,0.83026123,-8.345886,-0.1410675,-0.98368835,0.99276733,-0.10694885,1.0020938,0.47590542,0.575865
1570727096,0.8530121,-9.083298,-0.8976288,-0.675827,0.9384308,-0.0675354,1.0000913,-0.21263695,0.14536995
1570727096,0.4447937,-9.568115,-1.0017853,-0.39352417,1.3677368,-0.12399292,0.5014568,-0.7740154,0.055704474
1570727096,0.32629395,-8.977951,-1.3633118,-0.115493774,1.6468353,-0.027053833,0.27632838,-0.28314495,-0.18511808
1570727096,-0.69963074,-8.604446,-3.0069275,-0.38500977,2.3776093,-0.10055542,-0.5472396,0.15537548,-1.7809104
1570727096,-1.6836395,-9.313141,-1.0903625,-0.7759552,2.0644226,-0.07606506,-1.9455241,-0.51008415,-0.15003133
1570727096,-1.0719299,-9.174271,-0.50138855,-0.8473358,0.6646576,-0.26994324,-1.4177532,-0.59254456,1.0000337
1570727096,0.14073181,-8.550583,-0.5097809,-1.1669159,0.17996216,-0.30403137,-0.3497585,0.10978603,1.188636
1570727096,0.29516602,-9.453201,-0.49899292,-1.0326843,0.6657257,-0.40415955,-0.09167278,-0.867342,1.5724189
1570727097,-0.8755951,-8.980347,0.105529785,-0.6129761,0.96932983,-0.4350586,-1.3059379,-0.5691986,2.2269385
1570727097,-1.7650452,-8.962387,0.17018127,-0.3221588,0.7999573,-0.18791199,-2.4231741,-0.30650902,2.4289458
1570727097,-2.5766754,-9.972733,-0.82580566,0.07624817,0.48249817,-0.011077881,-3.311139,-1.4673891,1.7160659
1570727097,-0.53681946,-9.618393,-1.2052917,-0.25398254,1.4529572,0.5907898,-1.7088244,-1.0846672,0.9143424
1570727097,0.528595,-11.681,0.033706665,-0.2507782,2.4159546,0.85498047,-0.5487386,-3.0173426,2.056928
1570727097,0.4902954,-11.238068,9.938522,1.5303345,5.351822,0.815567,0.14844006,-2.77314,11.832988
1570727097,0.12158203,-10.558121,8.80127,3.1218414,0.98316956,0.8634949,-0.43732417,-1.8762016,10.556313
1570727097,1.7316895,-12.048508,1.0715942,3.9772491,-0.054397583,1.22995,1.0107485,-2.8650703,2.6114085
1570727097,6.1717377,-17.19246,-7.3919067,3.3785706,3.6047974,1.7636566,5.372654,-7.763996,-7.650875
1570727097,8.02005,-12.131119,-2.040863,2.3995972,4.4836426,1.5399475,8.423378,-4.4408016,-3.9263618
1570727097,4.082794,-7.4504547,-2.4335175,1.6091614,1.5531006,0.39797974,6.0285277,0.7195072,-4.278681
1570727097,-8.648376,-7.8694305,1.1949005,0.71754456,0.6284485,0.641922,-5.657981,1.1199646,-2.363528
1570727097,-1.2443085,-11.665436,10.616089,2.3537903,3.236206,1.8861542,-1.7508656,-2.6792498,7.8156543
1570727097,5.849716,-9.9045105,3.1701202,2.3580475,1.2154083,1.1660309,7.6804547,-1.9663811,1.2296612
1570727097,2.8629456,-7.566574,1.4247437,2.0608368,1.9078217,0.75057983,6.094141,0.033489227,-2.7708673
1570727097,-0.2746582,-7.0625916,3.3616486,2.33461,1.5680084,0.5162201,2.9022408,0.60147715,-0.07273674
1570727097,-4.9409637,-8.095688,3.8644257,2.1151733,1.2303162,0.5588379,-1.5848653,-0.59255075,-0.26929808
1570727097,-5.2174835,-7.080551,3.8787994,2.0437927,0.48677063,0.75164795,-2.3017128,-0.21425962,-0.8208833
1570727097,-2.2474823,-4.681549,3.7614746,1.8275452,-0.634964,0.721817,1.1000106,1.811975,-1.1598253
1570727097,-1.9829254,-2.2669983,3.039627,1.5132904,-0.62324524,0.34791565,1.3428526,3.4968948,-2.2453685
1570727097,-1.6980133,-1.1776428,4.549179,0.9604187,-0.27064514,-0.056884766,1.6519907,4.8626423,-1.102654
1570727097,-2.6066132,-2.1065826,5.3416595,0.630188,-0.028823853,-0.32107544,0.7678213,3.9765425,-0.47286272
1570727097,-3.4002838,-3.1420746,5.849228,0.33190918,-0.039474487,-0.29338074,-0.17030692,2.767437,-0.052159786
1570727097,-4.1688232,-3.1624298,6.1796265,0.100753784,-0.11936951,-0.26567078,-0.96077704,2.6104355,0.3248844
1570727097,-4.964905,-2.320877,6.1233673,-0.29658508,-0.2674408,-0.2901764,-1.7197661,3.2544546,0.5798311
1570727097,-4.1412964,-2.641693,7.640091,-1.0518646,-0.014968872,-0.47233582,-1.4267776,3.4214873,0.94566584
1570727097,-5.1684113,-9.711777,17.805862,-0.30404663,1.2750549,-1.0070953,-1.2179713,-2.1776156,11.593164
1570727097,2.9371643,-11.181808,2.1226501,-0.93574524,1.1994324,-0.1421051,3.905059,-6.0853353,-3.6492038
1570727097,-2.6090088,-6.6795197,5.075897,-0.85691833,1.0002289,-1.6121674,2.8281941,-1.0331149,2.4214396
1570727097,-1.3783875,-5.2717285,0.8908386,-1.7794342,1.3006287,-1.559967,1.6153259,1.5894604,-3.4769716
1570727097,2.508606,-9.50827,2.0328674,-1.775177,1.7267303,-1.702713,4.9649506,-1.9797983,-2.1549635
1570727097,1.212143,-13.456299,0.5448761,-1.9999542,1.990921,-2.0681,4.3195186,-5.4893003,-3.3060677
1570727097,1.212143,-13.456299,0.5448761,-1.9999542,1.990921,-2.0681,4.3195186,-5.4893003,-3.3060677
1570727097,1.212143,-13.456299,0.5448761,-1.9999542,1.990921,-2.0681,4.3195186,-5.4893003,-3.3060677
1570727098,1.212143,-13.456299,0.5448761,-1.9999542,1.990921,-2.0681,4.3195186,-5.4893003,-3.3060677
1570727098,1.212143,-13.456299,0.5448761,-1.9999542,1.990921,-2.0681,4.3195186,-5.4893003,-3.3060677
1570727098,1.212143,-13.456299,0.5448761,-1.9999542,1.990921,-2.0681,4.3195186,-5.4893003,-3.3060677
1570727098,1.212143,-13.456299,0.5448761,-1.9999542,1.990921,-2.0681,4.3195186,-5.4893003,-3.3060677
1570727098,1.212143,-13.456299,0.5448761,-1.9999542,1.990921,-2.0681,4.3195186,-5.4893003,-3.3060677
1570727098,1.212143,-13.456299,0.5448761,-1.9999542,1.990921,-2.0681,4.3195186,-5.4893003,-3.3060677
1570727098,1.212143,-13.456299,0.5448761,-1.9999542,1.990921,-2.0681,4.3195186,-5.4893003,-3.3060677
1570727098,1.212143,-13.456299,0.5448761,-1.9999542,1.990921,-2.0681,4.3195186,-5.4893003,-3.3060677
1570727098,1.212143,-13.456299,0.5448761,-1.9999542,1.990921,-2.0681,4.3195186,-5.4893003,-3.3060677
1570727098,1.212143,-13.456299,0.5448761,-1.9999542,1.990921,-2.0681,4.3195186,-5.4893003,-3.3060677
1570727098,1.212143,-13.456299,0.5448761,-1.9999542,1.990921,-2.0681,4.3195186,-5.4893003,-3.3060677
1570727098,1.212143,-13.456299,0.5448761,-1.9999542,1.990921,-2.0681,4.3195186,-5.4893003,-3.3060677
1570727098,1.212143,-13.456299,0.5448761,-1.9999542,1.990921,-2.0681,4.3195186,-5.4893003,-3.3060677
1570727098,1.212143,-13.456299,0.5448761,-1.9999542,1.990921,-2.0681,4.3195186,-5.4893003,-3.3060677
1570727098,1.212143,-13.456299,0.5448761,-1.9999542,1.990921,-2.0681,4.3195186,-5.4893003,-3.3060677
1570727098,1.212143,-13.456299,0.5448761,-1.9999542,1.990921,-2.0681,4.3195186,-5.4893003,-3.3060677
1570727098,1.212143,-13.456299,0.5448761,-1.9999542,1.990921,-2.0681,4.3195186,-5.4893003,-3.3060677
1570727098,1.212143,-13.456299,0.5448761,-1.9999542,1.990921,-2.0681,4.3195186,-5.4893003,-3.3060677
1570727098,1.212143,-13.456299,0.5448761,-1.9999542,1.990921,-2.0681,4.3195186,-5.4893003,-3.3060677
1570727098,1.212143,-13.456299,0.5448761,-1.9999542,1.990921,-2.0681,4.3195186,-5.4893003,-3.3060677
1570727098,1.212143,-13.456299,0.5448761,-1.9999542,1.990921,-2.0681,4.3195186,-5.4893003,-3.3060677
1570727098,1.212143,-13.456299,0.5448761,-1.9999542,1.990921,-2.0681,4.3195186,-5.4893003,-3.3060677
1570727098,1.212143,-13.456299,0.5448761,-1.9999542,1.990921,-2.0681,4.3195186,-5.4893003,-3.3060677
1570727098,1.212143,-13.456299,0.5448761,-1.9999542,1.990921,-2.0681,4.3195186,-5.4893003,-3.3060677
1570727098,1.212143,-13.456299,0.5448761,-1.9999542,1.990921,-2.0681,4.3195186,-5.4893003,-3.3060677
1570727098,1.212143,-13.456299,0.5448761,-1.9999542,1.990921,-2.0681,4.3195186,-5.4893003,-3.3060677
1570727098,1.212143,-13.456299,0.5448761,-1.9999542,1.990921,-2.0681,4.3195186,-5.4893003,-3.3060677
1570727098,1.212143,-13.456299,0.5448761,-1.9999542,1.990921,-2.0681,4.3195186,-5.4893003,-3.3060677
1570727098,1.212143,-13.456299,0.5448761,-1.9999542,1.990921,-2.0681,4.3195186,-5.4893003,-3.3060677
1570727098,1.212143,-13.456299,0.5448761,-1.9999542,1.990921,-2.0681,4.3195186,-5.4893003,-3.3060677
1570727098,1.212143,-13.456299,0.5448761,-1.9999542,1.990921,-2.0681,4.3195186,-5.4893003,-3.3060677
1570727098,1.212143,-13.456299,0.5448761,-1.9999542,1.990921,-2.0681,4.3195186,-5.4893003,-3.3060677
1570727098,1.212143,-13.456299,0.5448761,-1.9999542,1.990921,-2.0681,4.3195186,-5.4893003,-3.3060677
1570727099,1.212143,-13.456299,0.5448761,-1.9999542,1.990921,-2.0681,4.3195186,-5.4893003,-3.3060677
1570727099,1.212143,-13.456299,0.5448761,-1.9999542,1.990921,-2.0681,4.3195186,-5.4893003,-3.3060677
1570727099,1.212143,-13.456299,0.5448761,-1.9999542,1.990921,-2.0681,4.3195186,-5.4893003,-3.3060677
1570727099,1.212143,-13.456299,0.5448761,-1.9999542,1.990921,-2.0681,4.3195186,-5.4893003,-3.3060677
1570727099,1.212143,-13.456299,0.5448761,-1.9999542,1.990921,-2.0681,4.3195186,-5.4893003,-3.3060677
1570727099,1.212143,-13.456299,0.5448761,-1.9999542,1.990921,-2.0681,4.3195186,-5.4893003,-3.3060677
1570727099,1.212143,-13.456299,0.5448761,-1.9999542,1.990921,-2.0681,4.3195186,-5.4893003,-3.3060677
1570727099,1.212143,-13.456299,0.5448761,-1.9999542,1.990921,-2.0681,4.3195186,-5.4893003,-3.3060677
1570727099,1.212143,-13.456299,0.5448761,-1.9999542,1.990921,-2.0681,4.3195186,-5.4893003,-3.3060677
1570727099,1.212143,-13.456299,0.5448761,-1.9999542,1.990921,-2.0681,4.3195186,-5.4893003,-3.3060677
1570727099,1.212143,-13.456299,0.5448761,-1.9999542,1.990921,-2.0681,4.3195186,-5.4893003,-3.3060677
1570727099,1.212143,-13.456299,0.5448761,-1.9999542,1.990921,-2.0681,4.3195186,-5.4893003,-3.3060677
1570727099,1.212143,-13.456299,0.5448761,-1.9999542,1.990921,-2.0681,4.3195186,-5.4893003,-3.3060677
1570727099,1.212143,-13.456299,0.5448761,-1.9999542,1.990921,-2.0681,4.3195186,-5.4893003,-3.3060677
1570727099,1.212143,-13.456299,0.5448761,-1.9999542,1.990921,-2.0681,4.3195186,-5.4893003,-3.3060677
1570727099,1.212143,-13.456299,0.5448761,-1.9999542,1.990921,-2.0681,4.3195186,-5.4893003,-3.3060677
1570727099,1.212143,-13.456299,0.5448761,-1.9999542,1.990921,-2.0681,4.3195186,-5.4893003,-3.3060677
1570727099,1.212143,-13.456299,0.5448761,-1.9999542,1.990921,-2.0681,4.3195186,-5.4893003,-3.3060677
1570727099,1.212143,-13.456299,0.5448761,-1.9999542,1.990921,-2.0681,4.3195186,-5.4893003,-3.3060677
1570727099,1.212143,-13.456299,0.5448761,-1.9999542,1.990921,-2.0681,4.3195186,-5.4893003,-3.3060677
1570727099,1.212143,-13.456299,0.5448761,-1.9999542,1.990921,-2.0681,4.3195186,-5.4893003,-3.3060677
1570727099,1.212143,-13.456299,0.5448761,-1.9999542,1.990921,-2.0681,4.3195186,-5.4893003,-3.3060677
1570727099,1.212143,-13.456299,0.5448761,-1.9999542,1.990921,-2.0681,4.3195186,-5.4893003,-3.3060677
1570727099,1.212143,-13.456299,0.5448761,-1.9999542,1.990921,-2.0681,4.3195186,-5.4893003,-3.3060677
1570727099,1.212143,-13.456299,0.5448761,-1.9999542,1.990921,-2.0681,4.3195186,-5.4893003,-3.3060677
1570727099,1.212143,-13.456299,0.5448761,-1.9999542,1.990921,-2.0681,4.3195186,-5.4893003,-3.3060677
1570727099,1.212143,-13.456299,0.5448761,-1.9999542,1.990921,-2.0681,4.3195186,-5.4893003,-3.3060677
1570727099,1.212143,-13.456299,0.5448761,-1.9999542,1.990921,-2.0681,4.3195186,-5.4893003,-3.3060677
1570727099,2.1865845,-9.337082,0.6657715,-1.9999542,1.990921,-2.0681,4.3195186,-5.4893003,-3.3060677
1570727099,0.115600586,-9.121597,-0.14225769,1.8584442,1.3751984,2.3751068,0.059298217,-0.13930607,-1.5465912
1570727099,4.256363,-10.033798,-3.2642975,1.0360565,-0.014968872,2.1428833,5.486687,-1.3323212,-5.6243324
1570727099,3.2172852,-8.2956085,7.7155,1.2768097,0.32058716,1.9138489,5.053241,0.28204536,5.321946
1570727099,-0.25071716,-8.526642,0.64901733,1.8062439,-0.5838318,1.7785645,2.1154776,-0.15481377,-1.9514575
1570727100,0.355011,-8.426086,1.2667236,1.6890564,-0.082092285,1.9660492,2.811729,-0.37688637,-1.9088752
1570727100,1.260025,-5.811615,0.26475525,1.6443176,-0.05758667,1.7338257,4.4469147,1.632082,-3.260506
1570727100,-0.9174957,-5.0706177,1.3134155,1.2118225,0.2705078,1.54953,2.5467305,2.3818974,-2.6753638
1570727100,-3.2614288,-5.2884827,3.1330109,1.2310028,-0.82777405,1.4142456,0.53861356,1.8117714,-0.71909237
1570727100,-1.2395172,-4.5809937,1.1984863,0.9753418,-1.3742523,1.1681671,2.388627,2.1893373,-3.1771193
1570727100,1.4228363,-1.9222412,0.60832214,0.26054382,-1.2762451,0.34365845,5.1093035,4.322375,-4.187126
1570727100,0.592041,-0.0990448,1.4917755,-0.5682373,-0.82884216,-0.28910828,4.129649,6.4513555,-3.3308554
1570727100,-0.89715576,-1.1501007,3.264679,-1.4662476,0.42071533,-1.0475769,2.4896464,5.695221,-1.4772491
1570727100,-9.873016,-6.08934,14.331879,-0.51283264,2.0345917,-1.2148285,-5.717059,1.3200665,11.66904
1570727100,-4.013199,-15.500946,-2.514923,-1.8476105,0.92459106,-0.82281494,-1.3321116,-8.198616,-7.013883
1570727100,-0.80018616,-15.747559,6.9146423,-0.7993927,0.69981384,-0.8941803,1.6065812,-10.435415,3.927185
1570727100,-3.693573,-5.634445,2.7834473,-1.4023285,-0.32710266,-1.1988525,0.0022580624,2.1361446,0.22374177
1570727100,-0.18966675,-10.293564,1.3517151,-1.5312347,0.24388123,-1.2787476,2.1776843,-1.6385021,-1.754576
1570727100,0.8482208,-10.67305,2.6601562,-1.4939423,0.24176025,-1.622818,3.0421731,-2.3880663,0.311131
1570727100,-0.27944946,-9.101257,1.5157166,-0.96876526,-0.55718994,-1.7836761,1.5633752,-0.61252785,-0.35403776
1570727100,-0.5883026,-9.939224,0.83935547,-0.88461304,-0.84375,-1.8188324,0.67762053,-1.1936378,-1.0471294
1570727100,-2.155304,-9.701004,0.98062134,-0.98262024,-0.9630585,-1.7176361,-1.3732657,-1.0710335,-0.7976742
1570727100,-2.5695038,-8.4344635,0.730423,-1.0156403,-0.8490753,-1.111496,-2.4353294,0.247118,-0.725855
1570727100,-0.2566986,-7.8454895,1.2272186,-0.9623871,-0.5912781,-0.8057709,-0.40373912,1.0145493,0.08149195
1570727100,0.45318604,-7.4947357,1.1338501,-0.8792877,-0.6402893,-0.70350647,0.22949924,1.4283323,0.22369856
1570727100,0.113204956,-7.5917053,-0.114730835,-0.6332092,-0.43148804,-0.72480774,-0.29026607,1.3189402,-0.1479649
1570727100,-1.4729614,-8.303986,0.32939148,-1.1733093,-0.7468109,-0.6353302,-2.0066872,0.67985344,0.06572771
1570727100,-2.2391052,-7.4396667,-1.4099884,-1.4033966,0.068115234,-0.2443695,-2.660843,1.2019215,-1.0410182
1570727100,0.21734619,-8.357849,2.6062775,-1.5727692,1.2782593,0.2531128,-1.2264209,0.6668892,2.1904058
1570727100,1.4036713,-8.981537,2.1166687,-0.5895386,0.26838684,-0.23904419,1.0652466,-0.25657177,3.4832125
1570727100,0.5597229,-8.093292,-1.1418457,-0.6939392,0.1405487,-0.48405457,-0.1180352,0.5589123,-0.686986
1570727100,-0.59547424,-8.111252,0.02053833,-0.6694336,-0.10446167,-0.63212585,-1.3740742,0.84397984,0.7337845
1570727100,-0.6481476,-9.796768,0.30186462,-0.4734192,-0.13641357,-0.5788727,-1.7257992,-0.83498096,1.4318283
1570727100,-0.21839905,-10.303146,-1.0029755,-0.38287354,-0.23760986,-0.52134705,-1.4928313,-1.5366497,0.2899804
1570727100,0.18623352,-12.082031,-1.4483032,-0.41163635,-0.32710266,-0.47872925,-1.0858289,-3.128891,-0.04366076
1570727100,-1.3089447,-12.951126,-0.8198242,-0.13893127,-0.28022766,-0.19430542,-2.8325162,-3.4180813,0.55793846
1570727100,1.5748596,-15.129852,1.9861755,0.4086151,-0.13641357,0.33087158,-0.32571733,-6.185481,2.7481794
1570727100,3.2651672,-14.635452,4.5192413,1.20224,0.30993652,0.4139557,2.4229019,-6.3683586,5.578031
1570727100,-1.9529877,-11.806702,4.841263,2.4070587,1.050293,0.5918579,-2.4370615,-2.9950895,5.4736433
1570727101,-3.6768188,-11.212936,1.2140503,2.7447357,1.1514893,1.2097168,-4.492595,-2.0400543,1.3895203
1570727101,-2.9394073,-12.022171,0.8992157,2.3719025,1.5488281,1.7892151,-3.497294,-2.985999,-0.056123376
1570727101,-1.605835,-10.525803,-0.9072113,2.2781525,0.74775696,2.0491486,-1.672993,-1.821476,-2.072959
1570727101,1.5856323,-10.166672,-4.7810364,1.441925,0.35147095,2.2994843,1.52756,-1.3394384,-6.679703
1570727101,0.93800354,-9.174271,2.4458618,0.8581543,1.2185974,2.1194458,2.5006728,-0.66914654,-1.1760504
1570727101,0.08566284,-8.569733,5.5511475,1.5409851,-0.43255615,2.294159,2.069687,-0.117108345,3.8881924
1570727101,0.95596313,-8.545792,2.3764343,1.6539154,-0.37184143,2.2888336,3.2962403,-0.3664446,-0.7811971
1570727101,1.5293732,-7.425308,0.51135254,1.6485901,-0.37930298,2.0214386,4.3885603,0.16266489,-2.7460415
1570727101,6.713867E-4,-5.300461,1.1123047,1.5995789,-0.33029175,1.6166382,3.6354747,1.9861999,-2.6212232
1570727101,-1.4645691,-4.7222595,1.674942,1.3162231,-0.040542603,1.5356903,2.2320895,2.4309802,-2.7283301
1570727101,-2.579071,-4.324814,2.177719,1.2874603,-1.0163269,1.3545837,1.4443593,2.3450804,-1.8336334
1570727101,-0.38957214,-3.237854,0.9602661,0.9423065,-1.3476257,0.9849396,3.1604714,3.1031952,-3.69777
1570727101,1.3210754,-1.4481812,1.5468445,0.22538757,-1.1090088,0.2381897,5.0910773,4.690059,-3.69447
1570727101,-0.30818176,-0.6796417,1.9059753,-0.785553,-0.7606659,-0.48086548,3.2883875,5.6508956,-3.20057
1570727101,-1.3807831,-2.0431366,2.9953308,-1.8252411,0.4377594,-1.25531,2.0539553,4.6074533,-1.9600515
1570727101,-1.3807831,-2.0431366,2.9953308,-1.8252411,0.4377594,-1.25531,2.0539553,4.6074533,-1.9600515
1570727101,-1.3807831,-2.0431366,2.9953308,-1.8252411,0.4377594,-1.25531,2.0539553,4.6074533,-1.9600515
1570727101,-1.3807831,-2.0431366,2.9953308,-1.8252411,0.4377594,-1.25531,2.0539553,4.6074533,-1.9600515
1570727101,-1.3807831,-2.0431366,2.9953308,-1.8252411,0.4377594,-1.25531,2.0539553,4.6074533,-1.9600515
1570727101,-1.3807831,-2.0431366,2.9953308,-1.8252411,0.4377594,-1.25531,2.0539553,4.6074533,-1.9600515
1570727101,-1.3807831,-2.0431366,2.9953308,-1.8252411,0.4377594,-1.25531,2.0539553,4.6074533,-1.9600515
1570727101,-1.3807831,-2.0431366,2.9953308,-1.8252411,0.4377594,-1.25531,2.0539553,4.6074533,-1.9600515
1570727101,-1.3807831,-2.0431366,2.9953308,-1.8252411,0.4377594,-1.25531,2.0539553,4.6074533,-1.9600515
1570727101,-1.3807831,-2.0431366,2.9953308,-1.8252411,0.4377594,-1.25531,2.0539553,4.6074533,-1.9600515
1570727101,-1.3807831,-2.0431366,2.9953308,-1.8252411,0.4377594,-1.25531,2.0539553,4.6074533,-1.9600515
1570727101,-1.3807831,-2.0431366,2.9953308,-1.8252411,0.4377594,-1.25531,2.0539553,4.6074533,-1.9600515
1570727101,-1.3807831,-2.0431366,2.9953308,-1.8252411,0.4377594,-1.25531,2.0539553,4.6074533,-1.9600515
1570727101,-1.3807831,-2.0431366,2.9953308,-1.8252411,0.4377594,-1.25531,2.0539553,4.6074533,-1.9600515
1570727101,-1.3807831,-2.0431366,2.9953308,-1.8252411,0.4377594,-1.25531,2.0539553,4.6074533,-1.9600515
1570727101,-1.3807831,-2.0431366,2.9953308,-1.8252411,0.4377594,-1.25531,2.0539553,4.6074533,-1.9600515
1570727101,-1.3807831,-2.0431366,2.9953308,-1.8252411,0.4377594,-1.25531,2.0539553,4.6074533,-1.9600515
1570727101,-1.3807831,-2.0431366,2.9953308,-1.8252411,0.4377594,-1.25531,2.0539553,4.6074533,-1.9600515
1570727101,-1.1030579,-10.29715,2.6577606,-1.8252411,0.4377594,-1.25531,-2.502682,-0.6096535,-0.85950637
1570727102,-1.1617126,-8.991119,-0.20930481,-0.50538635,0.065979004,-0.47554016,-1.9798315,-0.04460144,0.32829195
1570727102,-0.12861633,-10.079285,-0.5133667,-0.5309448,-0.21098328,-0.6672821,-1.070759,-1.2317953,0.18184245
1570727102,0.38015747,-10.67543,-0.3828888,-0.4510498,-0.46878052,-0.7684784,-0.7046958,-1.8119192,0.44399852
1570727102,-0.12142944,-12.398071,-1.0460815,-0.30085754,-0.63282776,-0.72055054,-1.2299552,-3.605836,-0.12151247
1570727102,-0.51168823,-13.726852,0.076812744,-0.03453064,-0.21951294,-0.3093567,-2.0119247,-4.6643867,0.7982188
1570727102,3.1586304,-15.680511,1.8449249,0.6291199,0.13735962,0.027267456,1.7205895,-6.887972,2.626792
1570727102,1.2420654,-12.935562,3.888382,1.2832031,0.7541504,0.25097656,-0.0661602,-4.117113,4.3655605
1570727102,-0.5643616,-10.773605,5.0375977,2.0693665,1.4582825,0.7633667,-1.6921624,-1.8558025,5.085317
1570727102,-2.63414,-10.831055,1.829361,2.3239594,1.5392456,1.3183746,-3.5578346,-1.7831688,1.2817084
1570727102,-3.0184174,-11.330246,0.7016907,1.7263489,1.2942352,1.5910797,-3.7109654,-2.4772778,-0.36619973
1570727102,-0.47097778,-9.590866,1.1374359,1.8829346,1.3027496,1.8627167,-0.5059901,-0.7163658,-0.4848529
1570727102,2.0094147,-9.4496,-2.0540314,1.6847992,0.30566406,2.0214386,2.6505356,-0.6379404,-4.258563
1570727102,0.92962646,-8.173492,1.109909,1.2310028,0.3131256,1.7444763,2.1505835,0.45485306,-1.6515758
1570727102,-0.03164673,-8.039429,5.5164337,1.5452576,0.66360474,2.040619,1.6704757,0.42792416,2.5186095
1570727102,0.3538208,-7.634796,1.3026428,1.3268738,0.09794617,2.1982727,2.497847,0.5808964,-1.9415681
1570727102,0.8518219,-7.6874695,1.7491608,1.4397888,-0.27490234,2.0864258,3.5161974,0.24437904,-1.829591
1570727102,-0.054397583,-5.988785,1.3349609,1.603836,-0.06930542,1.725296,3.0975058,1.4947348,-2.5937283
1570727102,-1.0695343,-5.112503,2.0891266,1.1425781,0.06918335,1.6230316,2.4267278,2.1140585,-2.1414766
1570727102,-2.7670135,-4.8611145,2.4291077,1.1020966,-0.43469238,1.4589844,0.943712,2.077973,-1.9608159
1570727102,-1.5735168,-3.8735046,1.7024689,0.7825165,-0.92045593,1.1937408,2.258442,2.6890278,-2.966395
1570727102,0.072509766,-3.1025848,1.7204285,0.09542847,-0.9044647,0.61743164,3.954978,3.313326,-3.1206174
1570727102,-0.23036194,-2.2250977,2.7487335,-0.516037,-0.63282776,0.07839966,3.6100962,4.0380983,-2.2769856
1570727102,-0.24951172,-1.8049164,2.090332,-1.2095184,-0.31217957,-0.62893677,3.4153695,4.717474,-2.5980287
1570727102,-0.57392883,-2.6464844,9.604538,-1.5770416,0.7871704,-1.5290833,3.092011,4.2386394,4.063482
1570727102,-14.934357,-14.476227,-3.6988525,-1.8785095,1.7203369,-1.0529022,-11.221487,-6.6090984,-6.4258294
1570727102,-3.3392334,-19.438217,9.536301,-1.6217804,0.9810486,-0.8920593,-0.49274325,-11.473978,4.347815
1570727102,0.5238037,-9.823105,0.10913086,-1.2361603,-1.4445648,-0.8356018,3.884644,-2.9031324,-2.2164786
1570727102,-2.7454681,-3.7705536,0.41558838,-1.6686554,0.3120575,-1.0582275,-0.10767126,4.3692594,-2.6000826
1570727102,1.4515686,-10.880142,2.9570312,-1.8859711,0.82551575,-1.3874054,4.033085,-2.4584455,0.49045134
1570727102,0.9320221,-11.623535,2.8121796,-1.4705048,0.44308472,-1.939209,3.1945176,-3.2318563,0.88250065
1570727102,-1.0132751,-9.957184,1.7168274,-0.9219055,-0.59980774,-2.0798187,0.765509,-1.3321037,0.1292336
1570727102,-1.2359314,-9.838669,1.0596313,-0.8707733,-0.84588623,-1.9349518,-0.14441228,-1.0609798,-0.37765956
1570727102,-1.8153229,-8.745712,0.072021484,-0.9155121,-1.0259094,-1.683548,-1.2697747,0.014783859,-1.1467117
1570727103,-2.5599213,-7.867035,0.20249939,-1.0774231,-0.86079407,-1.347992,-2.4334118,1.0225353,-0.78781736
1570727103,-1.7159729,-7.183487,0.517334,-1.1360168,-0.46984863,-0.8675537,-1.9119585,1.7278261,-0.14461905
1570727103,-0.8049774,-7.5210724,0.9183655,-0.9517212,0.19914246,-0.49790955,-1.1261481,1.4571095,0.44654673
1570727103,-0.96658325,-8.609238,1.664154,-1.3064575,-0.068237305,-0.53092957,-1.499225,0.9001856,0.75310755
1570727103,-0.29380798,-7.377426,2.1082916,-1.041214,-0.72657776,-0.42333984,-0.7584038,1.3618937,2.4242878
1570727103,-2.3025513,-8.442841,-2.558014,-1.5493469,2.2071686,0.45976257,-3.2789886,0.6406698,-4.0404596
1570727103,3.8122406,-9.414886,5.3189087,-0.7503967,0.24708557,-0.11759949,3.2989347,-0.57878494,6.4751625
1570727103,-1.1090393,-8.207016,-2.0755768,-0.3914032,-0.018173218,-0.5330658,-1.5335314,0.7006159,-1.1898329
1570727103,-0.55836487,-8.482346,-1.2974701,-0.47662354,0.17144775,-0.3700714,-1.32901,0.43641472,-0.22915596
1570727103,1.1247559,-9.750076,-0.99580383,-0.47555542,0.0851593,-0.41801453,-0.10706961,-0.70511913,0.085014224
1570727103,1.7951355,-10.638321,-1.0065765,-0.30297852,0.11178589,-0.46914673,0.7838914,-1.8101358,0.20219672
1570727103,1.4312134,-10.233704,-1.1885376,-0.40205383,0.19700623,-0.6715393,0.46023095,-1.5412912,0.20326602
1570727103,-0.18008423,-12.120331,-2.1150818,-0.53201294,0.112854004,-0.8025665,-1.3333864,-2.9684467,-0.3490765
1570727103,-3.0351715,-13.289902,-0.28710938,-0.26249695,0.03616333,-0.72587585,-4.372244,-4.2827854,1.0584638
1570727103,0.6088104,-14.11232,0.05406189,0.2275238,-0.09060669,-0.16661072,-1.7117579,-5.4826736,1.5632588
1570727103,2.8114624,-12.372925,1.8114014,0.6046295,0.35360718,0.010223389,1.2102292,-3.9085178,3.2240264
1570727103,1.9531403,-9.903305,2.6972656,1.1148834,1.0428314,0.33512878,0.38191962,-1.1696272,3.7370634
1570727103,-0.8025818,-9.633957,3.750702,1.5953217,0.9661255,0.7580414,-1.9709947,-0.5522547,4.4379272
1570727103,-3.8061066,-10.403702,2.2591248,1.5314026,1.2803802,1.1244965,-4.703411,-1.5041838,2.7058418
1570727103,-2.8520203,-9.256866,-0.7372284,1.5782776,1.3560181,1.7221069,-4.2181544,-0.38311577,-0.5376743
1570727103,1.4659271,-8.0035095,-1.9630585,1.4291382,1.130188,2.0565948,0.5607428,1.0386314,-2.7948785
1570727103,1.4659271,-8.0035095,-1.9630585,1.4291382,1.130188,2.0565948,0.5607428,1.0386314,-2.7948785
1570727109,1.4659271,-8.0035095,-1.9630585,1.4291382,1.130188,2.0565948,0.5607428,1.0386314,-2.7948785
1570727109,1.4659271,-8.0035095,-1.9630585,1.4291382,1.130188,2.0565948,0.5607428,1.0386314,-2.7948785
1570727109,1.4659271,-8.0035095,-1.9630585,1.4291382,1.130188,2.0565948,0.5607428,1.0386314,-2.7948785
1570727109,1.4659271,-8.0035095,-1.9630585,1.4291382,1.130188,2.0565948,0.5607428,1.0386314,-2.7948785
1570727109,1.4659271,-8.0035095,-1.9630585,1.4291382,1.130188,2.0565948,0.5607428,1.0386314,-2.7948785
1570727109,1.4659271,-8.0035095,-1.9630585,1.4291382,1.130188,2.0565948,0.5607428,1.0386314,-2.7948785
1570727109,1.4659271,-8.0035095,-1.9630585,1.4291382,1.130188,2.0565948,0.5607428,1.0386314,-2.7948785
1570727109,1.4659271,-8.0035095,-1.9630585,1.4291382,1.130188,2.0565948,0.5607428,1.0386314,-2.7948785
1570727109,1.4659271,-8.0035095,-1.9630585,1.4291382,1.130188,2.0565948,0.5607428,1.0386314,-2.7948785
1570727109,1.4659271,-8.0035095,-1.9630585,1.4291382,1.130188,2.0565948,0.5607428,1.0386314,-2.7948785
1570727109,1.4659271,-8.0035095,-1.9630585,1.4291382,1.130188,2.0565948,0.5607428,1.0386314,-2.7948785
1570727109,1.4659271,-8.0035095,-1.9630585,1.4291382,1.130188,2.0565948,0.5607428,1.0386314,-2.7948785
1570727109,1.4659271,-8.0035095,-1.9630585,1.4291382,1.130188,2.0565948,0.5607428,1.0386314,-2.7948785
1570727109,1.4659271,-8.0035095,-1.9630585,1.4291382,1.130188,2.0565948,0.5607428,1.0386314,-2.7948785
1570727109,1.4659271,-8.0035095,-1.9630585,1.4291382,1.130188,2.0565948,0.5607428,1.0386314,-2.7948785
1570727109,1.4659271,-8.0035095,-1.9630585,1.4291382,1.130188,2.0565948,0.5607428,1.0386314,-2.7948785
1570727109,1.4659271,-8.0035095,-1.9630585,1.4291382,1.130188,2.0565948,0.5607428,1.0386314,-2.7948785
1570727109,1.4659271,-8.0035095,-1.9630585,1.4291382,1.130188,2.0565948,0.5607428,1.0386314,-2.7948785
1570727109,1.4659271,-8.0035095,-1.9630585,1.4291382,1.130188,2.0565948,0.5607428,1.0386314,-2.7948785
1570727109,1.4659271,-8.0035095,-1.9630585,1.4291382,1.130188,2.0565948,0.5607428,1.0386314,-2.7948785
1570727109,1.4659271,-8.0035095,-1.9630585,1.4291382,1.130188,2.0565948,0.5607428,1.0386314,-2.7948785
1570727109,1.4659271,-8.0035095,-1.9630585,1.4291382,1.130188,2.0565948,0.5607428,1.0386314,-2.7948785
1570727109,1.4659271,-8.0035095,-1.9630585,1.4291382,1.130188,2.0565948,0.5607428,1.0386314,-2.7948785
1570727109,1.4659271,-8.0035095,-1.9630585,1.4291382,1.130188,2.0565948,0.5607428,1.0386314,-2.7948785
1570727109,1.4659271,-8.0035095,-1.9630585,1.4291382,1.130188,2.0565948,0.5607428,1.0386314,-2.7948785
1570727109,1.4659271,-8.0035095,-1.9630585,1.4291382,1.130188,2.0565948,0.5607428,1.0386314,-2.7948785
1570727109,1.4659271,-8.0035095,-1.9630585,1.4291382,1.130188,2.0565948,0.5607428,1.0386314,-2.7948785
1570727109,1.4659271,-8.0035095,-1.9630585,1.4291382,1.130188,2.0565948,0.5607428,1.0386314,-2.7948785
1570727109,1.4659271,-8.0035095,-1.9630585,1.4291382,1.130188,2.0565948,0.5607428,1.0386314,-2.7948785
1570727109,1.4659271,-8.0035095,-1.9630585,1.4291382,1.130188,2.0565948,0.5607428,1.0386314,-2.7948785
1570727109,1.4659271,-8.0035095,-1.9630585,1.4291382,1.130188,2.0565948,0.5607428,1.0386314,-2.7948785
1570727109,1.4659271,-8.0035095,-1.9630585,1.4291382,1.130188,2.0565948,0.5607428,1.0386314,-2.7948785
1570727109,1.4659271,-8.0035095,-1.9630585,1.4291382,1.130188,2.0565948,0.5607428,1.0386314,-2.7948785
1570727109,1.4659271,-8.0035095,-1.9630585,1.4291382,1.130188,2.0565948,0.5607428,1.0386314,-2.7948785
1570727109,1.4659271,-8.0035095,-1.9630585,1.4291382,1.130188,2.0565948,0.5607428,1.0386314,-2.7948785
1570727109,1.4659271,-8.0035095,-1.9630585,1.4291382,1.130188,2.0565948,0.5607428,1.0386314,-2.7948785
1570727109,1.4659271,-8.0035095,-1.9630585,1.4291382,1.130188,2.0565948,0.5607428,1.0386314,-2.7948785
1570727109,1.4659271,-8.0035095,-1.9630585,1.4291382,1.130188,2.0565948,0.5607428,1.0386314,-2.7948785
1570727109,1.4659271,-8.0035095,-1.9630585,1.4291382,1.130188,2.0565948,0.5607428,1.0386314,-2.7948785
1570727109,1.4659271,-8.0035095,-1.9630585,1.4291382,1.130188,2.0565948,0.5607428,1.0386314,-2.7948785
1570727109,1.4659271,-8.0035095,-1.9630585,1.4291382,1.130188,2.0565948,0.5607428,1.0386314,-2.7948785
1570727109,1.4659271,-8.0035095,-1.9630585,1.4291382,1.130188,2.0565948,0.5607428,1.0386314,-2.7948785
1570727109,1.4659271,-8.0035095,-1.9630585,1.4291382,1.130188,2.0565948,0.5607428,1.0386314,-2.7948785
1570727109,1.4659271,-8.0035095,-1.9630585,1.4291382,1.130188,2.0565948,0.5607428,1.0386314,-2.7948785
1570727109,1.4659271,-8.0035095,-1.9630585,1.4291382,1.130188,2.0565948,0.5607428,1.0386314,-2.7948785
1570727109,1.4659271,-8.0035095,-1.9630585,1.4291382,1.130188,2.0565948,0.5607428,1.0386314,-2.7948785
1570727109,1.4659271,-8.0035095,-1.9630585,1.4291382,1.130188,2.0565948,0.5607428,1.0386314,-2.7948785
1570727109,1.4659271,-8.0035095,-1.9630585,1.4291382,1.130188,2.0565948,0.5607428,1.0386314,-2.7948785
1570727109,1.4659271,-8.0035095,-1.9630585,1.4291382,1.130188,2.0565948,0.5607428,1.0386314,-2.7948785
1570727109,1.4659271,-8.0035095,-1.9630585,1.4291382,1.130188,2.0565948,0.5607428,1.0386314,-2.7948785
1570727109,1.4659271,-8.0035095,-1.9630585,1.4291382,1.130188,2.0565948,0.5607428,1.0386314,-2.7948785
1570727109,1.4659271,-8.0035095,-1.9630585,1.4291382,1.130188,2.0565948,0.5607428,1.0386314,-2.7948785
1570727109,1.4659271,-8.0035095,-1.9630585,1.4291382,1.130188,2.0565948,0.5607428,1.0386314,-2.7948785
1570727109,1.4659271,-8.0035095,-1.9630585,1.4291382,1.130188,2.0565948,0.5607428,1.0386314,-2.7948785
1570727109,1.4659271,-8.0035095,-1.9630585,1.4291382,1.130188,2.0565948,0.5607428,1.0386314,-2.7948785
1570727109,1.4659271,-8.0035095,-1.9630585,1.4291382,1.130188,2.0565948,0.5607428,1.0386314,-2.7948785
1570727109,1.4659271,-8.0035095,-1.9630585,1.4291382,1.130188,2.0565948,0.5607428,1.0386314,-2.7948785
1570727109,1.4659271,-8.0035095,-1.9630585,1.4291382,1.130188,2.0565948,0.5607428,1.0386314,-2.7948785
1570727109,1.4659271,-8.0035095,-1.9630585,1.4291382,1.130188,2.0565948,0.5607428,1.0386314,-2.7948785
1570727109,1.4659271,-8.0035095,-1.9630585,1.4291382,1.130188,2.0565948,0.5607428,1.0386314,-2.7948785
1570727109,1.4659271,-8.0035095,-1.9630585,1.4291382,1.130188,2.0565948,0.5607428,1.0386314,-2.7948785
1570727109,1.4659271,-8.0035095,-1.9630585,1.4291382,1.130188,2.0565948,0.5607428,1.0386314,-2.7948785
1570727109,1.4659271,-8.0035095,-1.9630585,1.4291382,1.130188,2.0565948,0.5607428,1.0386314,-2.7948785
1570727109,1.4659271,-8.0035095,-1.9630585,1.4291382,1.130188,2.0565948,0.5607428,1.0386314,-2.7948785
1570727109,1.4659271,-8.0035095,-1.9630585,1.4291382,1.130188,2.0565948,0.5607428,1.0386314,-2.7948785
1570727109,1.4659271,-8.0035095,-1.9630585,1.4291382,1.130188,2.0565948,0.5607428,1.0386314,-2.7948785
1570727109,1.4659271,-8.0035095,-1.9630585,1.4291382,1.130188,2.0565948,0.5607428,1.0386314,-2.7948785
1570727109,1.4659271,-8.0035095,-1.9630585,1.4291382,1.130188,2.0565948,0.5607428,1.0386314,-2.7948785
1570727109,1.4659271,-8.0035095,-1.9630585,1.4291382,1.130188,2.0565948,0.5607428,1.0386314,-2.7948785
1570727109,1.4659271,-8.0035095,-1.9630585,1.4291382,1.130188,2.0565948,0.5607428,1.0386314,-2.7948785
1570727109,1.4659271,-8.0035095,-1.9630585,1.4291382,1.130188,2.0565948,0.5607428,1.0386314,-2.7948785
1570727109,1.4659271,-8.0035095,-1.9630585,1.4291382,1.130188,2.0565948,0.5607428,1.0386314,-2.7948785
1570727109,1.4659271,-8.0035095,-1.9630585,1.4291382,1.130188,2.0565948,0.5607428,1.0386314,-2.7948785
1570727109,1.4659271,-8.0035095,-1.9630585,1.4291382,1.130188,2.0565948,0.5607428,1.0386314,-2.7948785
1570727109,1.4659271,-8.0035095,-1.9630585,1.4291382,1.130188,2.0565948,0.5607428,1.0386314,-2.7948785
1570727109,1.4659271,-8.0035095,-1.9630585,1.4291382,1.130188,2.0565948,0.5607428,1.0386314,-2.7948785
1570727109,1.4659271,-8.0035095,-1.9630585,1.4291382,1.130188,2.0565948,0.5607428,1.0386314,-2.7948785
1570727109,1.4659271,-8.0035095,-1.9630585,1.4291382,1.130188,2.0565948,0.5607428,1.0386314,-2.7948785
1570727109,1.4659271,-8.0035095,-1.9630585,1.4291382,1.130188,2.0565948,0.5607428,1.0386314,-2.7948785
1570727109,1.4659271,-8.0035095,-1.9630585,1.4291382,1.130188,2.0565948,0.5607428,1.0386314,-2.7948785
1570727109,1.4659271,-8.0035095,-1.9630585,1.4291382,1.130188,2.0565948,0.5607428,1.0386314,-2.7948785
1570727109,1.4659271,-8.0035095,-1.9630585,1.4291382,1.130188,2.0565948,0.5607428,1.0386314,-2.7948785
1570727109,1.4659271,-8.0035095,-1.9630585,1.4291382,1.130188,2.0565948,0.5607428,1.0386314,-2.7948785
1570727109,1.4659271,-8.0035095,-1.9630585,1.4291382,1.130188,2.0565948,0.5607428,1.0386314,-2.7948785
1570727109,1.4659271,-8.0035095,-1.9630585,1.4291382,1.130188,2.0565948,0.5607428,1.0386314,-2.7948785
1570727109,1.4659271,-8.0035095,-1.9630585,1.4291382,1.130188,2.0565948,0.5607428,1.0386314,-2.7948785
1570727109,1.4659271,-8.0035095,-1.9630585,1.4291382,1.130188,2.0565948,0.5607428,1.0386314,-2.7948785
1570727109,1.4659271,-8.0035095,-1.9630585,1.4291382,1.130188,2.0565948,0.5607428,1.0386314,-2.7948785
1570727109,1.4659271,-8.0035095,-1.9630585,1.4291382,1.130188,2.0565948,0.5607428,1.0386314,-2.7948785
1570727109,1.4659271,-8.0035095,-1.9630585,1.4291382,1.130188,2.0565948,0.5607428,1.0386314,-2.7948785
1570727109,1.4659271,-8.0035095,-1.9630585,1.4291382,1.130188,2.0565948,0.5607428,1.0386314,-2.7948785
1570727109,1.4659271,-8.0035095,-1.9630585,1.4291382,1.130188,2.0565948,0.5607428,1.0386314,-2.7948785
1570727109,1.4659271,-8.0035095,-1.9630585,1.4291382,1.130188,2.0565948,0.5607428,1.0386314,-2.7948785
1570727109,1.4659271,-8.0035095,-1.9630585,1.4291382,1.130188,2.0565948,0.5607428,1.0386314,-2.7948785
1570727109,1.4659271,-8.0035095,-1.9630585,1.4291382,1.130188,2.0565948,0.5607428,1.0386314,-2.7948785
1570727109,1.4659271,-8.0035095,-1.9630585,1.4291382,1.130188,2.0565948,0.5607428,1.0386314,-2.7948785
1570727109,1.4659271,-8.0035095,-1.9630585,1.4291382,1.130188,2.0565948,0.5607428,1.0386314,-2.7948785
1570727109,1.4659271,-8.0035095,-1.9630585,1.4291382,1.130188,2.0565948,0.5607428,1.0386314,-2.7948785
1570727109,1.4659271,-8.0035095,-1.9630585,1.4291382,1.130188,2.0565948,0.5607428,1.0386314,-2.7948785
1570727109,1.4659271,-8.0035095,-1.9630585,1.4291382,1.130188,2.0565948,0.5607428,1.0386314,-2.7948785
1570727109,1.4659271,-8.0035095,-1.9630585,1.4291382,1.130188,2.0565948,0.5607428,1.0386314,-2.7948785
1570727109,1.4659271,-8.0035095,-1.9630585,1.4291382,1.130188,2.0565948,0.5607428,1.0386314,-2.7948785
1570727109,1.4659271,-8.0035095,-1.9630585,1.4291382,1.130188,2.0565948,0.5607428,1.0386314,-2.7948785
1570727109,1.4659271,-8.0035095,-1.9630585,1.4291382,1.130188,2.0565948,0.5607428,1.0386314,-2.7948785
1570727109,1.4659271,-8.0035095,-1.9630585,1.4291382,1.130188,2.0565948,0.5607428,1.0386314,-2.7948785
1570727109,1.4659271,-8.0035095,-1.9630585,1.4291382,1.130188,2.0565948,0.5607428,1.0386314,-2.7948785
1570727109,1.4659271,-8.0035095,-1.9630585,1.4291382,1.130188,2.0565948,0.5607428,1.0386314,-2.7948785
1570727109,1.4659271,-8.0035095,-1.9630585,1.4291382,1.130188,2.0565948,0.5607428,1.0386314,-2.7948785
1570727109,1.4659271,-8.0035095,-1.9630585,1.4291382,1.130188,2.0565948,0.5607428,1.0386314,-2.7948785
1570727109,1.4659271,-8.0035095,-1.9630585,1.4291382,1.130188,2.0565948,0.5607428,1.0386314,-2.7948785
1570727109,1.4659271,-8.0035095,-1.9630585,1.4291382,1.130188,2.0565948,0.5607428,1.0386314,-2.7948785
1570727109,1.4659271,-8.0035095,-1.9630585,1.4291382,1.130188,2.0565948,0.5607428,1.0386314,-2.7948785
1570727109,1.4659271,-8.0035095,-1.9630585,1.4291382,1.130188,2.0565948,0.5607428,1.0386314,-2.7948785
1570727109,1.4659271,-8.0035095,-1.9630585,1.4291382,1.130188,2.0565948,0.5607428,1.0386314,-2.7948785
1570727109,1.4659271,-8.0035095,-1.9630585,1.4291382,1.130188,2.0565948,0.5607428,1.0386314,-2.7948785
1570727109,1.4659271,-8.0035095,-1.9630585,1.4291382,1.130188,2.0565948,0.5607428,1.0386314,-2.7948785
1570727109,1.4659271,-8.0035095,-1.9630585,1.4291382,1.130188,2.0565948,0.5607428,1.0386314,-2.7948785
1570727109,1.4659271,-8.0035095,-1.9630585,1.4291382,1.130188,2.0565948,0.5607428,1.0386314,-2.7948785
1570727109,1.4659271,-8.0035095,-1.9630585,1.4291382,1.130188,2.0565948,0.5607428,1.0386314,-2.7948785
1570727109,1.4659271,-8.0035095,-1.9630585,1.4291382,1.130188,2.0565948,0.5607428,1.0386314,-2.7948785
1570727109,1.4659271,-8.0035095,-1.9630585,1.4291382,1.130188,2.0565948,0.5607428,1.0386314,-2.7948785
1570727109,1.4659271,-8.0035095,-1.9630585,1.4291382,1.130188,2.0565948,0.5607428,1.0386314,-2.7948785
1570727109,1.4659271,-8.0035095,-1.9630585,1.4291382,1.130188,2.0565948,0.5607428,1.0386314,-2.7948785
1570727109,1.4659271,-8.0035095,-1.9630585,1.4291382,1.130188,2.0565948,0.5607428,1.0386314,-2.7948785
1570727109,1.4659271,-8.0035095,-1.9630585,1.4291382,1.130188,2.0565948,0.5607428,1.0386314,-2.7948785
1570727109,1.4659271,-8.0035095,-1.9630585,1.4291382,1.130188,2.0565948,0.5607428,1.0386314,-2.7948785
1570727109,1.4659271,-8.0035095,-1.9630585,1.4291382,1.130188,2.0565948,0.5607428,1.0386314,-2.7948785
1570727109,1.4659271,-8.0035095,-1.9630585,1.4291382,1.130188,2.0565948,0.5607428,1.0386314,-2.7948785
1570727109,1.4659271,-8.0035095,-1.9630585,1.4291382,1.130188,2.0565948,0.5607428,1.0386314,-2.7948785
1570727109,1.4659271,-8.0035095,-1.9630585,1.4291382,1.130188,2.0565948,0.5607428,1.0386314,-2.7948785
1570727109,1.4659271,-8.0035095,-1.9630585,1.4291382,1.130188,2.0565948,0.5607428,1.0386314,-2.7948785
1570727109,1.4659271,-8.0035095,-1.9630585,1.4291382,1.130188,2.0565948,0.5607428,1.0386314,-2.7948785
1570727109,1.4659271,-8.0035095,-1.9630585,1.4291382,1.130188,2.0565948,0.5607428,1.0386314,-2.7948785
1570727109,1.4659271,-8.0035095,-1.9630585,1.4291382,1.130188,2.0565948,0.5607428,1.0386314,-2.7948785
1570727109,1.4659271,-8.0035095,-1.9630585,1.4291382,1.130188,2.0565948,0.5607428,1.0386314,-2.7948785
1570727109,1.4659271,-8.0035095,-1.9630585,1.4291382,1.130188,2.0565948,0.5607428,1.0386314,-2.7948785
1570727109,1.4659271,-8.0035095,-1.9630585,1.4291382,1.130188,2.0565948,0.5607428,1.0386314,-2.7948785
1570727109,1.4659271,-8.0035095,-1.9630585,1.4291382,1.130188,2.0565948,0.5607428,1.0386314,-2.7948785
1570727109,1.4659271,-8.0035095,-1.9630585,1.4291382,1.130188,2.0565948,0.5607428,1.0386314,-2.7948785
1570727109,1.4659271,-8.0035095,-1.9630585,1.4291382,1.130188,2.0565948,0.5607428,1.0386314,-2.7948785
1570727109,1.4659271,-8.0035095,-1.9630585,1.4291382,1.130188,2.0565948,0.5607428,1.0386314,-2.7948785
1570727109,1.4659271,-8.0035095,-1.9630585,1.4291382,1.130188,2.0565948,0.5607428,1.0386314,-2.7948785
1570727109,1.4659271,-8.0035095,-1.9630585,1.4291382,1.130188,2.0565948,0.5607428,1.0386314,-2.7948785
1570727109,1.4659271,-8.0035095,-1.9630585,1.4291382,1.130188,2.0565948,0.5607428,1.0386314,-2.7948785
1570727109,1.4659271,-8.0035095,-1.9630585,1.4291382,1.130188,2.0565948,0.5607428,1.0386314,-2.7948785
1570727109,1.4659271,-8.0035095,-1.9630585,1.4291382,1.130188,2.0565948,0.5607428,1.0386314,-2.7948785
1570727109,1.4659271,-8.0035095,-1.9630585,1.4291382,1.130188,2.0565948,0.5607428,1.0386314,-2.7948785
1570727109,1.4659271,-8.0035095,-1.9630585,1.4291382,1.130188,2.0565948,0.5607428,1.0386314,-2.7948785
1570727109,1.4659271,-8.0035095,-1.9630585,1.4291382,1.130188,2.0565948,0.5607428,1.0386314,-2.7948785
1570727109,1.4659271,-8.0035095,-1.9630585,1.4291382,1.130188,2.0565948,0.5607428,1.0386314,-2.7948785
1570727109,1.4659271,-8.0035095,-1.9630585,1.4291382,1.130188,2.0565948,0.5607428,1.0386314,-2.7948785
1570727109,1.4659271,-8.0035095,-1.9630585,1.4291382,1.130188,2.0565948,0.5607428,1.0386314,-2.7948785
1570727109,1.4659271,-8.0035095,-1.9630585,1.4291382,1.130188,2.0565948,0.5607428,1.0386314,-2.7948785
1570727109,1.4659271,-8.0035095,-1.9630585,1.4291382,1.130188,2.0565948,0.5607428,1.0386314,-2.7948785
1570727109,1.4659271,-8.0035095,-1.9630585,1.4291382,1.130188,2.0565948,0.5607428,1.0386314,-2.7948785
1570727109,1.4659271,-8.0035095,-1.9630585,1.4291382,1.130188,2.0565948,0.5607428,1.0386314,-2.7948785
1570727109,1.4659271,-8.0035095,-1.9630585,1.4291382,1.130188,2.0565948,0.5607428,1.0386314,-2.7948785
1570727109,1.4659271,-8.0035095,-1.9630585,1.4291382,1.130188,2.0565948,0.5607428,1.0386314,-2.7948785
1570727109,1.4659271,-8.0035095,-1.9630585,1.4291382,1.130188,2.0565948,0.5607428,1.0386314,-2.7948785
1570727109,1.4659271,-8.0035095,-1.9630585,1.4291382,1.130188,2.0565948,0.5607428,1.0386314,-2.7948785
1570727109,1.4659271,-8.0035095,-1.9630585,1.4291382,1.130188,2.0565948,0.5607428,1.0386314,-2.7948785
1570727109,1.4659271,-8.0035095,-1.9630585,1.4291382,1.130188,2.0565948,0.5607428,1.0386314,-2.7948785
1570727109,1.4659271,-8.0035095,-1.9630585,1.4291382,1.130188,2.0565948,0.5607428,1.0386314,-2.7948785
1570727109,1.4659271,-8.0035095,-1.9630585,1.4291382,1.130188,2.0565948,0.5607428,1.0386314,-2.7948785
1570727109,1.4659271,-8.0035095,-1.9630585,1.4291382,1.130188,2.0565948,0.5607428,1.0386314,-2.7948785
1570727109,1.4659271,-8.0035095,-1.9630585,1.4291382,1.130188,2.0565948,0.5607428,1.0386314,-2.7948785
1570727109,1.4659271,-8.0035095,-1.9630585,1.4291382,1.130188,2.0565948,0.5607428,1.0386314,-2.7948785
1570727109,1.4659271,-8.0035095,-1.9630585,1.4291382,1.130188,2.0565948,0.5607428,1.0386314,-2.7948785
1570727109,1.4659271,-8.0035095,-1.9630585,1.4291382,1.130188,2.0565948,0.5607428,1.0386314,-2.7948785
1570727109,1.4659271,-8.0035095,-1.9630585,1.4291382,1.130188,2.0565948,0.5607428,1.0386314,-2.7948785
1570727109,1.4659271,-8.0035095,-1.9630585,1.4291382,1.130188,2.0565948,0.5607428,1.0386314,-2.7948785
1570727109,1.4659271,-8.0035095,-1.9630585,1.4291382,1.130188,2.0565948,0.5607428,1.0386314,-2.7948785
1570727109,1.4659271,-8.0035095,-1.9630585,1.4291382,1.130188,2.0565948,0.5607428,1.0386314,-2.7948785
1570727109,1.4659271,-8.0035095,-1.9630585,1.4291382,1.130188,2.0565948,0.5607428,1.0386314,-2.7948785
1570727109,1.4659271,-8.0035095,-1.9630585,1.4291382,1.130188,2.0565948,0.5607428,1.0386314,-2.7948785
1570727109,1.4659271,-8.0035095,-1.9630585,1.4291382,1.130188,2.0565948,0.5607428,1.0386314,-2.7948785
1570727109,1.4659271,-8.0035095,-1.9630585,1.4291382,1.130188,2.0565948,0.5607428,1.0386314,-2.7948785
1570727109,1.4659271,-8.0035095,-1.9630585,1.4291382,1.130188,2.0565948,0.5607428,1.0386314,-2.7948785
1570727109,1.4659271,-8.0035095,-1.9630585,1.4291382,1.130188,2.0565948,0.5607428,1.0386314,-2.7948785
1570727109,1.4659271,-8.0035095,-1.9630585,1.4291382,1.130188,2.0565948,0.5607428,1.0386314,-2.7948785
1570727109,1.4659271,-8.0035095,-1.9630585,1.4291382,1.130188,2.0565948,0.5607428,1.0386314,-2.7948785
1570727109,1.4659271,-8.0035095,-1.9630585,1.4291382,1.130188,2.0565948,0.5607428,1.0386314,-2.7948785
1570727109,1.4659271,-8.0035095,-1.9630585,1.4291382,1.130188,2.0565948,0.5607428,1.0386314,-2.7948785
1570727109,1.4659271,-8.0035095,-1.9630585,1.4291382,1.130188,2.0565948,0.5607428,1.0386314,-2.7948785
1570727109,1.4659271,-8.0035095,-1.9630585,1.4291382,1.130188,2.0565948,0.5607428,1.0386314,-2.7948785
1570727109,1.4659271,-8.0035095,-1.9630585,1.4291382,1.130188,2.0565948,0.5607428,1.0386314,-2.7948785
1570727109,1.4659271,-8.0035095,-1.9630585,1.4291382,1.130188,2.0565948,0.5607428,1.0386314,-2.7948785
1570727109,1.4659271,-8.0035095,-1.9630585,1.4291382,1.130188,2.0565948,0.5607428,1.0386314,-2.7948785
1570727109,1.4659271,-8.0035095,-1.9630585,1.4291382,1.130188,2.0565948,0.5607428,1.0386314,-2.7948785
1570727109,1.4659271,-8.0035095,-1.9630585,1.4291382,1.130188,2.0565948,0.5607428,1.0386314,-2.7948785
1570727109,1.4659271,-8.0035095,-1.9630585,1.4291382,1.130188,2.0565948,0.5607428,1.0386314,-2.7948785
1570727109,1.4659271,-8.0035095,-1.9630585,1.4291382,1.130188,2.0565948,0.5607428,1.0386314,-2.7948785
1570727109,1.4659271,-8.0035095,-1.9630585,1.4291382,1.130188,2.0565948,0.5607428,1.0386314,-2.7948785
1570727109,1.4659271,-8.0035095,-1.9630585,1.4291382,1.130188,2.0565948,0.5607428,1.0386314,-2.7948785
1570727109,1.4659271,-8.0035095,-1.9630585,1.4291382,1.130188,2.0565948,0.5607428,1.0386314,-2.7948785
1570727109,1.4659271,-8.0035095,-1.9630585,1.4291382,1.130188,2.0565948,0.5607428,1.0386314,-2.7948785
1570727109,1.4659271,-8.0035095,-1.9630585,1.4291382,1.130188,2.0565948,0.5607428,1.0386314,-2.7948785
1570727109,1.4659271,-8.0035095,-1.9630585,1.4291382,1.130188,2.0565948,0.5607428,1.0386314,-2.7948785
1570727109,1.4659271,-8.0035095,-1.9630585,1.4291382,1.130188,2.0565948,0.5607428,1.0386314,-2.7948785
1570727109,1.4659271,-8.0035095,-1.9630585,1.4291382,1.130188,2.0565948,0.5607428,1.0386314,-2.7948785
1570727109,1.4659271,-8.0035095,-1.9630585,1.4291382,1.130188,2.0565948,0.5607428,1.0386314,-2.7948785
1570727109,1.4659271,-8.0035095,-1.9630585,1.4291382,1.130188,2.0565948,0.5607428,1.0386314,-2.7948785
1570727109,1.4659271,-8.0035095,-1.9630585,1.4291382,1.130188,2.0565948,0.5607428,1.0386314,-2.7948785
1570727109,1.4659271,-8.0035095,-1.9630585,1.4291382,1.130188,2.0565948,0.5607428,1.0386314,-2.7948785
1570727109,1.4659271,-8.0035095,-1.9630585,1.4291382,1.130188,2.0565948,0.5607428,1.0386314,-2.7948785
1570727109,1.4659271,-8.0035095,-1.9630585,1.4291382,1.130188,2.0565948,0.5607428,1.0386314,-2.7948785
1570727109,1.4659271,-8.0035095,-1.9630585,1.4291382,1.130188,2.0565948,0.5607428,1.0386314,-2.7948785
1570727109,1.4659271,-8.0035095,-1.9630585,1.4291382,1.130188,2.0565948,0.5607428,1.0386314,-2.7948785
1570727109,1.4659271,-8.0035095,-1.9630585,1.4291382,1.130188,2.0565948,0.5607428,1.0386314,-2.7948785
1570727109,1.4659271,-8.0035095,-1.9630585,1.4291382,1.130188,2.0565948,0.5607428,1.0386314,-2.7948785
1570727109,1.4659271,-8.0035095,-1.9630585,1.4291382,1.130188,2.0565948,0.5607428,1.0386314,-2.7948785
1570727109,1.4659271,-8.0035095,-1.9630585,1.4291382,1.130188,2.0565948,0.5607428,1.0386314,-2.7948785
1570727110,1.4659271,-8.0035095,-1.9630585,1.4291382,1.130188,2.0565948,0.5607428,1.0386314,-2.7948785
1570727110,1.4659271,-8.0035095,-1.9630585,1.4291382,1.130188,2.0565948,0.5607428,1.0386314,-2.7948785
1570727110,1.4659271,-8.0035095,-1.9630585,1.4291382,1.130188,2.0565948,0.5607428,1.0386314,-2.7948785
1570727110,1.4659271,-8.0035095,-1.9630585,1.4291382,1.130188,2.0565948,0.5607428,1.0386314,-2.7948785
1570727110,1.4659271,-8.0035095,-1.9630585,1.4291382,1.130188,2.0565948,0.5607428,1.0386314,-2.7948785
1570727110,1.4659271,-8.0035095,-1.9630585,1.4291382,1.130188,2.0565948,0.5607428,1.0386314,-2.7948785
1570727110,1.4659271,-8.0035095,-1.9630585,1.4291382,1.130188,2.0565948,0.5607428,1.0386314,-2.7948785
1570727110,1.4659271,-8.0035095,-1.9630585,1.4291382,1.130188,2.0565948,0.5607428,1.0386314,-2.7948785
1570727110,1.4659271,-8.0035095,-1.9630585,1.4291382,1.130188,2.0565948,0.5607428,1.0386314,-2.7948785
1570727110,1.4659271,-8.0035095,-1.9630585,1.4291382,1.130188,2.0565948,0.5607428,1.0386314,-2.7948785
1570727110,1.4659271,-8.0035095,-1.9630585,1.4291382,1.130188,2.0565948,0.5607428,1.0386314,-2.7948785
1570727110,1.4659271,-8.0035095,-1.9630585,1.4291382,1.130188,2.0565948,0.5607428,1.0386314,-2.7948785
1570727110,1.4659271,-8.0035095,-1.9630585,1.4291382,1.130188,2.0565948,0.5607428,1.0386314,-2.7948785
1570727110,1.4659271,-8.0035095,-1.9630585,1.4291382,1.130188,2.0565948,0.5607428,1.0386314,-2.7948785
1570727110,1.4659271,-8.0035095,-1.9630585,1.4291382,1.130188,2.0565948,0.5607428,1.0386314,-2.7948785
1570727110,1.4659271,-8.0035095,-1.9630585,1.4291382,1.130188,2.0565948,0.5607428,1.0386314,-2.7948785
1570727110,1.4659271,-8.0035095,-1.9630585,1.4291382,1.130188,2.0565948,0.5607428,1.0386314,-2.7948785
1570727110,1.4659271,-8.0035095,-1.9630585,1.4291382,1.130188,2.0565948,0.5607428,1.0386314,-2.7948785
1570727110,1.4659271,-8.0035095,-1.9630585,1.4291382,1.130188,2.0565948,0.5607428,1.0386314,-2.7948785
1570727110,1.4659271,-8.0035095,-1.9630585,1.4291382,1.130188,2.0565948,0.5607428,1.0386314,-2.7948785
1570727110,1.4659271,-8.0035095,-1.9630585,1.4291382,1.130188,2.0565948,0.5607428,1.0386314,-2.7948785
1570727110,1.4659271,-8.0035095,-1.9630585,1.4291382,1.130188,2.0565948,0.5607428,1.0386314,-2.7948785
1570727110,4.589157,-12.043716,2.0699768,1.4291382,1.130188,2.0565948,0.5607428,1.0386314,-2.7948785
1570727110,-1.0731201,-7.851471,1.106308,1.4291382,1.130188,2.0565948,-1.8161523,-7.347036,-2.0242956
1570727110,-1.0731201,-7.851471,1.106308,1.4291382,1.130188,2.0565948,-1.8161523,-7.347036,-2.0242956
1570727110,-1.5316162,-7.582123,1.2499695,1.4291382,1.130188,2.0565948,-0.78637445,0.75580215,-3.292366
1570727110,-1.5316162,-7.582123,1.2499695,1.4291382,1.130188,2.0565948,-0.78637445,0.75580215,-3.292366
1570727110,-1.5316162,-7.582123,1.2499695,1.4291382,1.130188,2.0565948,-0.78637445,0.75580215,-3.292366
1570727110,-0.24113464,-8.670288,-0.77194214,-1.3192444,0.9959564,-1.2201538,-0.78637445,0.75580215,-3.292366
1570727110,0.87576294,-12.049713,0.13067627,-0.50857544,-0.38249207,-0.58525085,-0.55387986,-3.0123644,1.1850526
1570727110,0.87576294,-12.049713,0.13067627,-0.50857544,-0.38249207,-0.58525085,-0.55387986,-3.0123644,1.1850526
1570727110,0.87576294,-12.049713,0.13067627,-0.50857544,-0.38249207,-0.58525085,-0.55387986,-3.0123644,1.1850526
1570727110,0.87576294,-12.049713,0.13067627,-0.50857544,-0.38249207,-0.58525085,-0.55387986,-3.0123644,1.1850526
1570727111,0.87576294,-12.049713,0.13067627,-0.50857544,-0.38249207,-0.58525085,-0.55387986,-3.0123644,1.1850526
1570727111,0.29037476,-7.816757,5.5008698,1.3758698,0.95121765,1.9958801,1.7707248,0.92657185,2.2812352
1570727111,-0.5691376,-8.5924835,1.5157166,1.5931854,0.044677734,2.214264,1.1560154,-0.07858181,-0.4663844
1570727111,-0.08911133,-8.410522,2.9462585,1.5484467,-0.38142395,2.2408905,2.3078294,-0.34923458,-0.15008712
1570727111,1.0014496,-7.602478,1.4079742,2.127945,-1.0014038,2.1098633,3.5841985,0.09269762,-1.7862673
1570727111,1.0565186,-5.6272583,1.5504303,1.633667,-0.15026855,1.8233032,4.2756395,1.7451577,-2.8617873
1570727111,-0.86961365,-5.494385,2.4291077,1.2746735,-0.12362671,1.6134491,3.0315428,1.5881171,-2.2382317
1570727111,-1.456192,-5.049057,1.7180328,1.125534,-0.77238464,1.3535309,2.2626977,1.5938349,-3.0188851
1570727111,0.3250885,-3.0427246,0.80703735,0.56414795,-1.00354,0.84432983,3.8890247,3.143508,-4.1435595
1570727111,0.8542023,-0.8651886,0.8381653,-0.2976532,-0.8064728,0.15829468,4.5286684,5.275321,-4.2631536
1570727111,1.6227417,-0.5826874,0.40960693,-1.4651794,-0.10658264,-0.7652893,5.103159,5.8273087,-4.56741
1570727111,0.113204956,-2.202362,20.075577,-1.8508148,1.1866455,-1.8071136,5.102047,5.46196,2.9673314
1570727111,-15.265945,-22.215485,-22.044418,-2.8873138,3.4812164,-0.966629,-14.680144,-12.79434,-24.930294
1570727111,-3.309311,-24.63124,16.526169,-0.9709015,1.1195374,-0.72906494,-0.7313478,-16.71867,12.584255
1570727111,-0.92349243,-4.480438,-0.5600586,-1.3448029,-1.5020905,-0.77168274,2.5441349,1.3169961,-3.8564382
1570727111,-0.9641876,-3.9285736,1.8963928,-1.4300385,0.24601746,-1.2435913,0.9044368,6.221177,-2.4852278
1570727111,1.2504425,-13.565247,2.7367706,-1.7016754,0.32803345,-2.1607819,3.963101,-5.318433,0.038519144
1570727111,-0.16452026,-11.433197,2.287857,-1.3288269,0.26945496,-2.689148,2.013997,-3.618617,0.25343347
1570727111,-2.6520996,-6.5083313,0.5987396,-1.1924744,-0.52630615,-2.0531921,-1.1925524,1.6801004,-1.2295412
1570727111,-1.6273804,-5.889435,0.07800293,-1.1860809,0.054260254,-1.0284119,-0.9510677,3.069169,-1.499166
1570727111,-1.135376,-9.005478,0.8190155,-1.40979,-0.40272522,-1.0443878,-0.62035877,0.25265312,-0.65096843
1570727111,-1.7111816,-10.573685,1.1326447,-1.1189728,-0.5561371,-1.0124359,-1.4843755,-1.4620905,0.36971927
1570727111,-0.109451294,-8.614029,0.8237915,-1.0209656,-0.20033264,-0.77700806,-0.590314,0.017086983,0.2037704
1570727111,0.57528687,-7.938858,1.5121307,-0.865448,-0.2440033,-0.68218994,0.10290198,1.5429811,1.123416
1570727111,0.16348267,-7.585724,1.3050385,-0.63427734,-0.54441833,-0.72055054,-0.30108425,1.3937254,1.1594517
1570727111,-0.1262207,-7.336731,0.5819855,-0.50645447,-0.5401459,-0.5330658,-0.7487946,1.6547184,0.56775653
1570727111,-0.72476196,-7.926895,1.1936951,-0.37008667,-0.95240784,-0.53411865,-1.4253769,0.93253803,1.3399308
1570727111,-0.6146393,-9.139557,-0.36372375,-0.28593445,-0.94389343,-0.31254578,-1.4980309,-0.15922451,-0.07417467
1570727111,-1.6213989,-9.005478,-1.5356903,-0.469162,-0.6850281,-0.08457947,-2.5434985,-0.16579342,-1.0883571
1570727111,-0.6876526,-8.205826,-1.4327393,-0.71310425,-0.13534546,0.1401825,-1.6807315,0.66073036,-0.89875066
1570727111,0.027008057,-7.262497,-0.25958252,-0.7067108,0.15226746,0.20516968,-0.8010506,1.6154947,0.523729
1570727111,1.1295471,-8.81395,-0.90242004,-0.68540955,0.026565552,0.1913147,0.31366718,0.09584141,0.01759404
1570727111,2.579239,-9.163498,-0.9060211,-0.7397461,-0.037353516,0.056030273,1.8288441,-0.33924198,0.1686424
1570727112,2.5229645,-8.564941,-0.5037842,-0.535202,0.26306152,-0.21134949,1.7559676,0.27757072,0.735289
1570727112,1.8202667,-9.135971,-0.27394104,-0.08459473,0.27264404,-0.5735321,0.9642716,-0.33942986,1.0527668
1570727112,0.8314667,-8.224976,-1.0975494,0.16893005,0.20339966,-0.84625244,-0.23888624,0.54316807,0.25878096
1570727112,0.2783966,-9.316727,-0.3074646,0.0016784668,-0.21418762,-0.7631531,-1.1026525,-0.432724,1.0114303
1570727112,0.20896912,-10.7341,-0.24641418,0.04748535,-1.6821136,-0.56715393,-1.2293023,-1.9466219,1.1470966
1570727112,-2.1972046,-11.341019,-2.4011993,-0.4702301,-2.451233,-0.9453125,-3.030685,-2.7662096,-0.72392976
1570727112,-4.2454376,-9.605225,-0.07762146,-1.3948822,-2.3202057,-0.59591675,-5.894892,-1.1348,1.6906606
1570727112,-1.2814178,-9.319122,4.128998,0.18171692,1.020462,0.5354004,-2.8856583,-0.65818596,6.1429777
1570727112,-0.7163849,-12.750015,2.5512085,1.6624298,0.089416504,0.29145813,-2.073101,-4.080515,4.215564
1570727112,-0.8444824,-11.072876,2.0256805,1.5686951,-1.3167267,0.4065094,-2.2250571,-2.3130035,3.278136
1570727112,0.30114746,-9.436432,-0.12789917,1.920227,-2.0975647,0.11569214,-0.8992158,-0.65103626,0.8635838
1570727112,0.9535675,-9.189835,-3.4977417,2.0022583,-1.0749207,-0.27420044,-0.18189621,-0.21853065,-2.5737646
1570727112,0.923645,-7.0398407,-5.670471,2.0235596,1.5594788,0.25416565,-0.2439903,1.8932772,-5.750892
1570727112,1.3270569,-11.074066,-2.032486,0.6248627,0.6795807,0.72927856,0.30258322,-2.2586355,-2.5019517
1570727112,2.1159515,-9.242508,-2.5340729,1.1585541,-0.46452332,0.74739075,1.256468,-0.29667282,-3.1362324
1570727112,3.4938202,-9.477142,-2.9590454,0.86668396,-0.5646515,0.8634949,2.9080634,-0.7161341,-3.9496212
1570727112,5.935898,-10.955566,-2.0791779,0.09329224,-0.45385742,0.8901367,5.448186,-2.0572586,-3.1764638
1570727112,5.789856,-10.123581,0.55085754,-0.27742004,-0.574234,0.8368683,5.3535657,-1.0136299,-0.7158531
1570727112,6.1394043,-10.146317,1.4450989,0.028320312,-0.3899536,0.7143707,6.080346,-1.2774105,0.46862388
1570727112,5.221237,-10.29715,1.0811768,0.7367096,-0.32496643,0.19026184,5.3318,-1.2980318,0.2136041
1570727112,3.600357,-11.060898,-0.2667694,1.089325,-0.2908783,-0.34983826,3.7470117,-2.062315,-1.4100965
1570727112,1.2983398,-10.717331,-2.2647247,0.9646759,0.49635315,-0.70137024,1.1990515,-1.8299112,-3.7401023
1570727112,-1.827301,-8.432068,-1.6589966,0.3095398,1.7565613,-0.30296326,-2.0815275,0.40857887,-3.457004
1570727112,-2.313324,-8.665512,2.153778,0.22964478,1.6202087,0.562027,-2.5649977,0.3731575,0.31162047
1570727112,0.43641663,-5.590149,3.4813538,-0.02494812,-0.009643555,-0.314682,1.1205375,1.6448116,1.9654449
1570727112,-1.3759918,-7.8047943,1.2188416,0.3297882,-0.67544556,0.17001343,-1.697064,1.3112211,-1.3009828
1570727112,-1.8943329,-8.048996,-0.71328735,-0.30723572,-0.018173218,-0.2635498,-1.9267957,0.71223927,-2.318071
1570727112,-0.46020508,-2.9996338,3.4789734,-0.9730377,0.4068756,-0.9889984,0.09582147,5.267063,1.5750633
1570727112,0.7069702,-7.9568176,1.837738,-0.6470642,-0.14706421,-0.8686218,0.076785,1.0444603,0.82231796
1570727112,-2.1660767,-4.613312,4.7131805,-0.71417236,0.12882996,-0.77168274,-2.7332625,3.8468847,3.0051942
1570727112,-2.1660767,-4.613312,4.7131805,-0.71417236,0.12882996,-0.77168274,-2.7332625,3.8468847,3.0051942
1570727113,-6.8898315,-12.331024,2.8468933,-0.71417236,0.12882996,-0.77168274,-3.086441,3.6492376,2.9583416
1570727113,-6.8898315,-12.331024,2.8468933,-0.71417236,0.12882996,-0.77168274,-3.086441,3.6492376,2.9583416
1570727113,-6.8898315,-12.331024,2.8468933,-0.71417236,0.12882996,-0.77168274,-3.086441,3.6492376,2.9583416
1570727113,-6.8898315,-12.331024,2.8468933,-0.71417236,0.12882996,-0.77168274,-3.086441,3.6492376,2.9583416
1570727113,-6.8898315,-12.331024,2.8468933,-0.71417236,0.12882996,-0.77168274,-3.086441,3.6492376,2.9583416
1570727113,-6.8898315,-12.331024,2.8468933,-0.71417236,0.12882996,-0.77168274,-3.086441,3.6492376,2.9583416
1570727113,-6.8898315,-12.331024,2.8468933,-0.71417236,0.12882996,-0.77168274,-3.086441,3.6492376,2.9583416
1570727113,-6.8898315,-12.331024,2.8468933,-0.71417236,0.12882996,-0.77168274,-3.086441,3.6492376,2.9583416
1570727113,-6.8898315,-12.331024,2.8468933,-0.71417236,0.12882996,-0.77168274,-3.086441,3.6492376,2.9583416
1570727113,-6.8898315,-12.331024,2.8468933,-0.71417236,0.12882996,-0.77168274,-3.086441,3.6492376,2.9583416
1570727113,-6.8898315,-12.331024,2.8468933,-0.71417236,0.12882996,-0.77168274,-3.086441,3.6492376,2.9583416
1570727113,-6.8898315,-12.331024,2.8468933,-0.71417236,0.12882996,-0.77168274,-3.086441,3.6492376,2.9583416
1570727113,-6.8898315,-12.331024,2.8468933,-0.71417236,0.12882996,-0.77168274,-3.086441,3.6492376,2.9583416
1570727113,-6.8898315,-12.331024,2.8468933,-0.71417236,0.12882996,-0.77168274,-3.086441,3.6492376,2.9583416
1570727113,2.9024506,-14.672562,0.58078,-0.22096252,1.4273987,0.5737457,-3.086441,3.6492376,2.9583416
1570727113,2.4978333,-16.215622,-11.966034,3.9974976,-3.3247528,-6.2940063,-7.3758264,2.0963879,-1.0052614
1570727113,-2.2774048,-6.031891,6.3077087,0.56414795,3.3842773,-4.730194,-1.2096932,-2.8185577,3.393018
1570727113,2.3529816,-9.3993225,7.213928,2.191864,1.4444427,1.5782928,-0.18095255,-1.8921695,3.2594905
1570727113,2.259613,-7.3343353,5.9030914,5.5730133,0.31419373,0.562027,0.6180264,-0.17063046,0.7751074
1570727113,0.9427948,-6.1252594,1.9670258,5.7796783,-1.0099335,-0.62786865,-0.7703253,-0.785367,-4.945997
1570727113,-0.8348999,-2.1915894,1.4822083,4.4779205,-0.62857056,-0.5405121,-2.828606,1.9790039,-6.2255545
1570727113,-1.6118164,0.51864624,1.2499695,2.969513,-1.1175232,0.24990845,-3.7531655,3.507033,-6.691075
1570727113,6.249542,-1.2518616,5.9342194,2.2930756,1.3964996,-0.6076355,4.1330085,1.9253314,-2.2269697
1570727113,4.0181427,-2.4381866,7.7813416,4.4278564,-1.9132843,-1.5961914,1.9315481,-0.77206194,1.0803776
1570727113,3.1658173,-0.20439148,6.5076294,5.629471,-0.04800415,-0.15489197,0.49909377,0.20607623,-1.3202438
1570727113,4.9064026,-0.19961548,3.6537476,3.7269135,3.5621796,1.1873474,2.9015245,-0.8458804,-5.236128
1570727113,2.4164276,-3.048706,8.322433,0.1572113,1.432724,-0.83132935,1.1309813,-4.0786314,-0.9942894
1570727113,2.5026245,-0.17686462,10.3263855,-1.3032684,0.87239075,-0.8377228,1.4048649,-1.2559755,1.4514961
1570727113,0.50346375,0.5605469,11.507919,-1.6548004,0.25027466,-0.52879333,-0.43265855,-0.013340175,2.6105556
1570727113,0.5238037,0.27204895,13.1766815,-0.49473572,0.6987457,-0.17726135,-0.20326734,0.058202773,4.17605
1570727113,1.7089386,-1.0914459,12.404556,1.1532288,-0.103393555,-0.36367798,0.91794115,-1.3812219,3.0894165
1570727113,1.409668,0.65393066,8.296097,1.2768097,0.065979004,-1.0326691,0.73225313,-0.22129387,-0.5714321
1570727113,0.6602783,2.2927551,9.460876,0.6131439,0.24601746,-1.0752716,-0.061698675,1.1562892,0.49241543
1570727113,1.0672913,2.1706543,9.436935,0.49490356,0.21511841,-0.7631531,0.35877848,1.208401,0.6404753
1570727113,1.5928192,1.6666718,9.689529,0.29356384,-0.060775757,-0.6449127,1.0314466,0.3311404,0.8252878
1570727113,1.5545197,1.2632446,9.1604,0.38304138,-0.112976074,-0.78019714,0.90547234,-0.33557057,0.2474432
1570727114,1.3665619,1.6152039,9.274124,0.4629364,-0.124694824,-0.7961731,0.7655969,0.023629785,0.35267162
1570727114,1.4324036,1.707367,9.311249,0.48532104,-0.13002014,-0.8164215,0.8400925,0.023041368,0.40853405
1570727114,1.4431763,2.1371307,8.9353485,0.3809204,-0.04800415,-0.7674103,0.93375427,0.3325752,0.13716507
1570727114,1.3162842,2.6782227,8.881485,0.35108948,-0.068237305,-0.570343,0.75051093,0.5858921,0.062155724
1570727114,1.3330536,2.311905,9.032318,0.35002136,-0.011779785,-0.55862427,0.77165705,0.33691096,0.17207336
1570727114,1.3007202,2.3131104,9.278915,0.34362793,-0.05758667,-0.5980377,0.75943744,0.13307953,0.5636177
1570727114,1.4611359,2.928421,9.650024,0.22859192,-0.07676697,-0.57992554,1.0773365,0.6902907,0.9488478
1570727114,1.4312134,2.9667206,9.798462,0.22006226,-0.13641357,-0.523468,0.9803554,0.6770594,1.2610035
1570727114,1.6502838,3.1031952,9.35553,0.12738037,-0.12362671,-0.47021484,1.1435632,0.7051182,0.60799026
1570727114,1.7628021,2.9571533,9.67276,-0.11123657,-0.01071167,-0.504303,1.2663803,0.542274,0.8770113
1570727114,1.5700684,2.809906,9.785294,-0.24333191,0.05532837,-0.64172363,1.2056165,0.5045495,0.9110756
1570727114,1.433609,2.8817291,10.449692,0.018722534,-0.025634766,-0.7652893,1.0037091,0.54401684,1.695548
1570727114,1.2324982,3.2935333,9.943314,0.35961914,-0.03414917,-0.7642212,0.89542043,0.87654376,1.1437855
1570727114,1.2013702,3.1953735,9.59375,0.41394043,0.0074005127,-0.7226715,0.91296107,0.6389146,0.90101814
1570727114,1.5509186,3.24086,9.73143,0.4043579,0.12564087,-0.6374512,0.93342125,0.67149234,0.70148945
1570727114,1.0792694,3.0146027,9.699097,0.72180176,0.21511841,-0.60549927,0.95503694,0.21783018,0.9381504
1570727114,0.8949127,3.5353394,9.4944,1.1234131,0.25880432,-0.50109863,0.84139824,0.40515304,0.9272194
1570727114,0.5992279,3.853775,8.768951,1.1020966,0.34828186,-0.47021484,0.6554132,0.49108386,0.38314915
1570727114,0.20059204,4.0345306,9.092178,0.8549652,0.4377594,-0.43717957,0.28003517,0.4391408,0.64173794
1570727114,0.3717804,4.257202,9.104141,1.1947784,0.5453491,-0.3743286,0.82151246,0.36015105,0.814476
1570727114,-0.5487976,5.308258,9.169983,1.2139587,0.47184753,-0.3881836,0.009688616,1.1125383,0.9789152
1570727114,-0.45541382,5.2759247,8.039917,1.2523041,0.57518005,-0.3370514,0.27295798,0.81357574,0.11517429
1570727114,-0.72236633,5.6697845,7.9297943,0.8411102,0.47824097,-0.30615234,0.17789924,0.9452119,0.040911674
1570727114,-0.827713,5.8637085,8.527145,0.49490356,0.4846344,-0.3381195,0.2404995,1.0902615,0.69192934
1570727114,-1.0683289,6.08757,9.338776,0.52153015,0.051071167,-0.443573,-0.05586624,1.0394258,2.122264
1570727114,-1.4382324,6.0612335,8.93895,0.6994324,0.09687805,-0.3881836,-0.28000104,1.0447593,1.4440479
1570727114,-1.1545258,6.147415,8.92099,0.7473755,0.22471619,-0.36367798,0.16916966,0.9265299,1.3338418
1570727114,-1.2036133,6.2779083,8.857544,0.7974396,0.26412964,-0.35090637,0.26321268,0.83046675,1.4424124
1570727114,-1.2634583,6.494583,8.384689,0.99983215,0.16079712,-0.314682,0.28806734,0.8858428,1.2660136
1570727114,-1.401123,6.688507,7.762192,0.9891815,0.1639862,-0.2635498,0.2428019,0.9417863,0.75489855
1570727114,-1.3472595,6.8010406,7.8400116,0.91249084,0.18423462,-0.24862671,0.4045627,0.8051815,0.8495312
