time,ax,ay,az,gx,gy,gz,la_x,la_y,la_z,fox,foy,foz
1570726847,5.783798,-0.64523315,10.035294,0.25706482,-0.48797607,0.0072631836,-1.8377519,0.8667953,2.511282
1570726847,4.452011,-3.9582214,6.2368927,-1.173584,0.9330902,0.52497864,-2.5076804,-1.6506133,-1.0670028
1570726847,5.98909,-3.4685974,6.9910736,-1.1810303,0.9512024,0.75720215,-1.6085663,-1.327817,-0.8403487
1570726847,6.4128723,-3.407547,6.8671722,-0.34480286,0.8063202,0.47598267,-0.02829218,-0.45387816,-0.09271526
1570726847,6.4128723,-3.407547,6.8671722,-0.34480286,0.8063202,0.47598267,-0.02829218,-0.45387816,-0.09271526
1570726847,6.4128723,-3.407547,6.8671722,-0.34480286,0.8063202,0.47598267,-0.02829218,-0.45387816,-0.09271526
1570726847,6.4128723,-3.407547,6.8671722,-0.34480286,0.8063202,0.47598267,-0.02829218,-0.45387816,-0.09271526
1570726847,6.4128723,-3.407547,6.8671722,-0.34480286,0.8063202,0.47598267,-0.02829218,-0.45387816,-0.09271526
1570726847,6.42305,-4.660919,4.7656555,-1.9789276,-0.24189758,0.72843933,0.11825037,-0.68351793,-2.814311
1570726847,5.4210663,-5.3899536,5.495285,-1.5325775,-0.3718567,-0.5456085,0.104743004,0.3349533,-1.2329535
1570726847,1.9398956,-7.7410583,4.617218,-1.2747803,-0.57533264,-0.20153809,-3.9802856,-2.6159492,-1.9591489
1570726847,1.9398956,-7.7410583,4.617218,-1.2747803,-0.57533264,-0.20153809,-3.9802856,-2.6159492,-1.9591489
1570726847,1.9398956,-7.7410583,4.617218,-1.2747803,-0.57533264,-0.20153809,-3.9802856,-2.6159492,-1.9591489
1570726847,1.9398956,-7.7410583,4.617218,-1.2747803,-0.57533264,-0.20153809,-3.9802856,-2.6159492,-1.9591489
1570726847,2.6390076,-8.0499115,3.7648773,-1.7136688,-0.6392517,0.7678528,-3.9802856,-2.6159492,-1.9591489
1570726847,2.6390076,-8.0499115,3.7648773,-1.7136688,-0.6392517,0.7678528,-3.9802856,-2.6159492,-1.9591489
1570726847,7.2945404,-10.878647,6.1848145,-0.13708496,-0.99824524,3.1338196,1.8615599,-2.2012272,3.3556406
1570726847,6.7731934,-12.376221,4.474762,-0.43962097,-0.7638855,3.1806793,2.7015266,-3.425928,2.1149504
1570726847,11.110291,-12.789825,4.730942,-1.0372314,-1.7556458,3.431015,6.2994194,-3.5851345,0.94670224
1570726847,11.30542,-12.615051,2.0506287,-0.96372986,-1.2123566,2.631012,9.152907,-2.7936583,-0.03385377
1570726847,10.008362,-13.471573,1.4915924,-1.1075287,-2.3745575,2.2805328,7.6726255,-3.3041258,-2.0669239
1570726847,10.69191,-12.142792,2.795227,-1.6657257,-2.2808228,1.5604095,8.750593,-2.16891,0.69161415
1570726847,11.830948,-10.362701,2.2978363,-2.0556183,-2.491745,-0.26651,9.963925,-0.11614227,0.91722524
1570726847,8.00441,-13.7786255,1.9291229,-2.3762665,-3.3247833,-1.0047455,6.5820565,-2.8551884,-0.30195373
1570726847,7.0503235,-11.9596405,-0.21188354,-2.5168762,-3.8030853,-0.697937,4.585979,-2.0849285,0.9694681
1570726847,3.384201,-9.34816,3.493744,-2.8897247,-3.7306366,-0.6084595,2.5480878,1.2983055,3.4915693
1570726847,4.0378265,-11.096527,9.009384,-2.4114227,-2.3724365,0.19793701,-0.9708314,-0.6724825,10.663596
1570726847,4.1437683,-7.786545,7.3986816,-0.3703766,-0.597702,-1.5107422,2.8326302,2.2223473,9.209152
1570726848,3.5488129,-8.627502,2.3355408,1.00914,1.2356262,-1.5426941,0.36786413,1.5798826,6.7120104
1570726848,3.8833923,-13.055588,-1.7842712,0.18569946,2.2092743,-1.4329834,-0.16291928,-3.462986,1.0128429
1570726848,7.2083435,-9.448715,0.45729065,0.26771545,2.1634674,-1.6130066,2.185207,-0.33485985,1.6270237
1570726848,15.8220825,-7.3268585,1.1953125,0.7918396,2.4851837,-2.6132965,9.715407,1.6636753,2.985589
1570726848,11.202469,-9.712082,-1.8878326,1.3596191,0.6252289,-2.8380585,3.7988858,-3.3523693,0.09629595
1570726848,13.209412,-6.7235107,-0.11312866,1.0730591,0.19485474,-3.848999,8.109835,2.0432882,-0.40409082
1570726848,2.0009613,-5.4503937,-1.905777,1.4437714,0.89793396,-3.6796265,-1.8110304,2.9235888,0.17346427
1570726848,-6.14592,-12.454636,-10.102936,0.79289246,0.4441223,-2.861496,-8.00561,0.07653332,-4.2927613
1570726848,0.9361267,-12.968201,-0.6715698,-0.4854126,2.9123535,-1.1176605,-9.336399,-6.3884325,-2.088007
1570726848,6.660675,-9.40802,6.3344574,1.0506897,0.3130951,-1.0643921,-2.4477615,-3.9445786,4.146839
1570726848,6.870758,-8.53653,5.787384,1.1976929,0.40045166,-1.0100708,-2.2964697,-3.5470815,4.5643253
1570726848,9.334991,-5.462372,3.3022003,1.6451111,1.1301575,-0.62976074,0.054984093,-0.27541876,1.9443698
1570726848,9.334991,-5.462372,3.3022003,1.6451111,1.1301575,-0.62976074,0.054984093,-0.27541876,1.9443698
1570726848,8.098984,-4.478958,1.1043243,2.3300781,0.3876648,-0.096069336,-1.679246,-0.14855385,-1.5041018
1570726848,5.175064,-2.8838196,6.297943,1.4246063,1.2100525,-0.15145874,-3.5053072,1.6182027,0.17166138
1570726848,5.59346,-2.5707703,5.842453,1.2285919,1.2856903,-0.17810059,-3.683217,1.2259188,2.1311164
1570726848,5.3929443,-2.8491058,5.0780945,0.63523865,0.7690277,-0.09925842,-3.3771534,1.2994785,0.38277054
1570726848,10.238205,-1.9231415,3.7457275,-0.33840942,-0.17160034,0.22990417,0.7285032,1.420044,-0.9448395
1570726848,10.238205,-1.9231415,3.7457275,-0.33840942,-0.17160034,0.22990417,0.7285032,1.420044,-0.9448395
1570726848,8.722076,-6.1046143,7.428009,-0.33096313,-3.530365,-2.3714752,0.8521795,-1.7705152,0.66615033
1570726848,8.722076,-6.1046143,7.428009,-0.33096313,-3.530365,-2.3714752,0.8521795,-1.7705152,0.66615033
1570726848,9.310455,-6.1255646,4.9565887,-1.6497498,-1.4946594,2.0035706,0.11818695,-2.6902163,3.0707095
1570726848,9.310455,-6.1255646,4.9565887,-1.6497498,-1.4946594,2.0035706,0.11818695,-2.6902163,3.0707095
1570726848,9.898834,-5.23732,3.198059,-0.15518188,-0.15028381,2.169754,0.24666119,-0.5074301,1.0296412
1570726848,9.898834,-5.23732,3.198059,-0.15518188,-0.15028381,2.169754,0.24666119,-0.5074301,1.0296412
1570726848,11.433517,-1.6346436,3.783432,0.69595337,-1.5915985,0.5100708,2.5317345,3.2285185,2.0026536
1570726848,11.433517,-1.6346436,3.783432,0.69595337,-1.5915985,0.5100708,2.5317345,3.2285185,2.0026536
1570726848,2.7168274,-3.2028503,2.8850098,-0.31604004,0.5368042,1.2855835,-5.7585745,3.4617548,0.9165114
1570726848,2.7168274,-3.2028503,2.8850098,-0.31604004,0.5368042,1.2855835,-5.7585745,3.4617548,0.9165114
1570726848,5.8598022,-8.63768,3.8019867,-0.5972748,2.0164642,4.4696503,-1.8515029,-1.4540019,3.0645313
1570726848,5.8598022,-8.63768,3.8019867,-0.5972748,2.0164642,4.4696503,-1.8515029,-1.4540019,3.0645313
1570726848,7.1700287,-9.858124,-0.32202148,-0.60899353,0.7328186,0.55799866,1.8421373,-1.6635561,-2.218708
1570726849,7.1700287,-9.858124,-0.32202148,-0.60899353,0.7328186,0.55799866,1.8421373,-1.6635561,-2.218708
1570726849,4.147354,-7.3358307,0.50038147,-0.3991394,0.10324097,0.22564697,-0.91260004,1.1320448,-1.0951083
1570726849,5.0355988,-7.27359,1.3257904,-1.319519,-2.3234253,1.4506989,-0.11322832,1.7990055,-1.1574208
1570726849,4.957794,-6.956955,3.7145996,-1.396225,-2.1348724,1.7702789,-0.15942669,2.177599,1.7933825
1570726849,4.715378,-10.211273,2.2331848,-0.9818268,-0.83206177,3.5269012,1.0055249,-0.12917042,2.831758
1570726849,4.715378,-10.211273,2.2331848,-0.9818268,-0.83206177,3.5269012,1.0055249,-0.12917042,2.831758
1570726849,6.9156494,-9.140457,3.6637268,-0.634552,-0.05015564,3.2829437,3.6863425,0.7913904,4.3998528
1570726849,5.577896,-11.968613,1.0702057,-0.2819519,-0.13323975,1.3356476,3.7543602,-1.3298397,1.2602006
1570726849,1.1959076,-12.035645,0.4920044,-0.9062042,-0.3164673,0.1105957,-0.8106097,-1.4959679,0.8230926
1570726849,1.2324219,-12.07515,0.64164734,-0.9797058,-0.21740723,0.17877197,-0.8106097,-1.4959679,0.8230926
1570726849,4.166504,-11.4939575,3.3590698,-0.45985413,1.3751678,0.8626709,2.9256053,-0.6973982,4.4561543
1570726849,2.740158,-12.139206,1.5975342,-0.23295593,1.807663,1.0512238,1.2925006,-1.8923826,3.2080069
1570726849,6.509842,-15.369583,4.766861,0.64375305,2.589569,0.08609009,6.6137223,-2.9753332,8.220139
1570726849,5.304947,-15.409088,-6.120178,0.47225952,2.2572021,0.24694824,3.7621489,-5.6468573,-4.0011573
1570726849,-1.9626465,-13.49791,1.3317719,0.6331024,0.55810547,1.1513519,-2.4550536,-2.9432106,1.1311903
1570726849,-1.9626465,-13.49791,1.3317719,0.6331024,0.55810547,1.1513519,-2.4550536,-2.9432106,1.1311903
1570726849,-3.3800201,-10.660782,1.3946228,0.87171936,1.7565308,2.0227356,-3.7638235,-0.37077808,1.4426886
1570726849,-2.2918549,-8.047516,1.7543488,0.7470856,2.1474915,2.3061066,-2.4294443,1.7058563,1.4175427
1570726849,-0.17358398,-4.2640686,-0.36631775,-0.3511963,3.1381836,2.726883,0.75162464,6.3613663,-0.52721715
1570726849,-0.5704193,-3.3040009,0.5315094,-1.112854,2.9230042,2.6651,1.287192,7.197545,0.8026068
1570726849,-1.3658905,-5.945999,1.7920532,-0.83270264,0.34825134,2.5969238,1.543318,5.125201,1.8791983
1570726849,-2.747345,-13.391968,0.8319855,1.3862457,-4.355957,2.9175568,1.7379138,-3.0680428,2.8498282
1570726849,-6.415268,-7.321472,-3.759491,0.8887787,0.27581787,-0.2899475,-2.7683291,2.21599,-5.15383
1570726849,-6.415268,-7.321472,-3.759491,0.8887787,0.27581787,-0.2899475,-2.7683291,2.21599,-5.15383
1570726849,-2.6072845,-6.7061615,-0.5057678,1.0102081,-1.9015808,-0.29740906,1.0940766,3.3642263,-2.8697221
1570726849,-0.8738861,-11.20546,5.5198364,1.7015686,-2.1977234,-0.7810364,2.5344605,-1.5254622,1.8885567
1570726849,-3.2710724,-13.127411,3.731369,2.0957184,-0.55189514,-0.54348755,-1.1453161,-4.960927,0.4485278
1570726849,-3.2710724,-13.127411,3.731369,2.0957184,-0.55189514,-0.54348755,-1.1453161,-4.960927,0.4485278
1570726849,-1.2216339,-9.792282,2.4678192,2.0499115,-0.646698,-0.99302673,1.6559117,-0.83736706,-2.0893207
1570726849,-2.3134003,-8.850174,4.569336,1.9380493,-0.10447693,-1.1879578,0.35784364,0.11531353,-0.7450762
1570726849,-1.7537537,-7.855377,3.3237457,1.9529724,0.57728577,-1.0526733,0.19097376,0.49412346,-2.374064
1570726849,-1.4215546,-6.965332,3.2094269,1.9252777,0.91711426,-0.9727783,0.5675969,1.1682453,-2.4687219
1570726849,-2.1793213,-3.941452,1.2904816,0.8429718,1.0044556,-0.49554443,-0.023502827,4.252475,-5.122929
1570726849,-2.2631226,-3.3195648,1.5292969,0.22724915,0.884079,-0.31445312,-0.3201208,4.540509,-5.134276
1570726850,-3.1489716,-2.0685883,0.70988464,-0.7240448,0.6081848,-0.26757812,-0.50250053,5.8144073,-5.6897035
1570726850,-2.324768,-5.8634033,5.5246277,-2.0684052,-0.424057,0.1659851,-0.32680178,3.976632,0.51148176
1570726850,-4.4615936,-15.816696,1.2425842,-2.785324,0.0126953125,0.11378479,-1.3842943,-5.1957006,1.8380947
1570726850,-4.743515,-16.990448,8.554489,-2.243103,-2.3468628,0.6911621,-2.4160542,-8.082144,3.359324
1570726850,-4.2987823,-14.3993225,7.0964203,-2.0321808,-1.5468445,0.60913086,-2.473219,-6.2802467,4.164007
1570726850,-2.1080933,-7.6710205,2.5210876,-2.1397705,-1.138855,0.52178955,0.17668009,1.8897686,-0.9060538
1570726850,-1.3569183,-9.955688,1.8519135,-2.3506927,-1.1260681,0.9660034,0.9232819,0.5027294,-1.217881
1570726850,-1.8483276,-13.029251,1.783081,-2.1759949,-0.88212585,1.1236572,0.7192297,-2.3849602,-0.80430365
1570726850,0.27114868,-12.781448,2.197281,-0.74320984,0.032943726,0.34707642,3.1288352,-2.9714088,0.7540338
1570726850,-0.011367798,-11.89978,1.233017,-0.72084045,0.92562866,0.15000916,2.9233928,-1.8309917,-0.2558788
1570726850,0.043701172,-11.063599,1.4209595,-1.0532074,1.5274963,0.13508606,3.0789857,-1.2919025,-0.08534396
1570726850,-0.50398254,-9.791092,1.829773,-1.1277771,1.7384186,0.05519104,2.654643,0.2622366,1.0630848
1570726850,-1.2084808,-10.0346985,1.751358,-0.8763733,1.6116638,-0.12908936,1.8548329,0.16865253,1.3084437
1570726850,-0.42616272,-9.674377,-0.38067627,-0.634552,1.6031342,-0.32296753,2.4334798,0.47694588,0.13556929
1570726850,1.051651,-10.138245,0.3214264,-2.293167,-1.2080994,-1.5043488,3.3259475,0.15307331,1.0557318
1570726850,1.051651,-10.138245,0.3214264,-2.293167,-1.2080994,-1.5043488,3.3259475,0.15307331,1.0557318
1570726850,-1.0708008,-10.91037,3.3973694,-2.2122192,-3.100006,-1.6140747,2.1699266,-0.16911125,2.3431034
1570726850,-8.052902,-11.076767,5.41568,-1.0436249,-2.448059,-0.585022,-6.175905,-0.89040375,6.8558364
1570726850,-0.26875305,-10.671555,-0.096969604,-0.76452637,0.5868683,0.4131317,0.5166098,-0.08852482,2.1495888
1570726850,1.3850403,-11.281479,0.77812195,-0.6526642,0.6103058,0.4120636,3.2008357,-0.81940174,2.3559783
1570726850,0.32022095,-11.961426,1.1929169,-0.10404968,0.011627197,0.5388336,2.3440742,-1.788023,3.6073177
1570726850,-1.1755524,-14.8237,1.8237762,-0.07635498,0.7306824,0.29701233,1.1981027,-4.066757,3.698275
1570726850,-1.1959076,-15.170258,2.0524292,-0.044403076,0.74560547,0.29701233,1.1981027,-4.066757,3.698275
1570726850,-0.9576874,-14.355637,2.221817,1.1252594,0.57728577,0.17344666,1.3217306,-4.396661,4.3208594
1570726850,-1.0211334,-14.038406,1.9841919,1.2211304,0.5740967,0.14042664,1.2937434,-4.0479774,4.060189
1570726850,-2.4139557,-11.671127,1.7872772,1.6003723,0.7892761,0.058395386,0.02403307,-1.6218491,2.6603994
1570726850,-4.537018,-12.703629,2.497757,2.2054443,0.9320221,0.45573425,-1.9851425,-1.8711433,2.4671624
1570726850,-4.537018,-12.703629,2.497757,2.2054443,0.9320221,0.45573425,-1.9851425,-1.8711433,2.4671624
1570726850,-3.640976,-12.546219,-0.44950867,2.7316742,-0.6882477,0.61872864,-1.6478076,-2.5979033,0.6414324
1570726850,-2.5049286,-11.783661,1.4024048,2.1745453,-1.9836121,0.015777588,-0.30356717,-1.8009691,-0.5154854
1570726850,0.98402405,-11.24736,0.4812317,2.1841278,-0.90023804,-0.15252686,2.3482392,-1.263339,-1.9621918
1570726850,4.154541,-11.197678,-0.588974,2.029663,-0.61154175,-0.5924835,5.975418,-0.99845314,-3.9524531
1570726850,0.76794434,-11.613083,3.964798,2.4451294,-0.35375977,-1.1847687,2.5277643,-1.4279499,-0.5050106
1570726851,-1.1258698,-9.089584,2.7425537,2.4003754,0.37701416,-1.5448303,-0.13399804,-0.16067028,-2.5594764
1570726851,-1.1258698,-9.089584,2.7425537,2.4003754,0.37701416,-1.5448303,-0.13399804,-0.16067028,-2.5594764
1570726851,-0.3423767,-7.8835144,2.3726501,2.0222168,0.9661102,-1.6545563,0.17846471,1.2049742,-3.755508
1570726851,-1.0007782,-6.406891,3.2698822,2.0605621,1.6148529,-1.3360443,-0.5688391,2.090107,-3.383255
1570726851,-1.6513977,-2.80661,0.33998108,0.9825134,2.0707855,-0.5168457,-0.5146159,5.185687,-6.5421934
1570726851,-1.6513977,-2.80661,0.33998108,0.9825134,2.0707855,-0.5168457,-0.5146159,5.185687,-6.5421934
1570726851,-4.4071198,-3.2830505,3.897766,-1.9490967,0.044662476,0.2629242,-3.1309361,5.2838087,-2.550696
1570726851,-4.4071198,-3.2830505,3.897766,-1.9490967,0.044662476,0.2629242,-3.1309361,5.2838087,-2.550696
1570726851,-6.2476654,-19.0764,-3.8684387,-2.6074219,-0.06187439,0.3896942,-3.031739,-10.526143,-1.7274704
1570726851,-3.0885162,-16.345215,-4.569336,-2.76828,-1.410492,0.9233856,-2.9167814,-8.213958,-12.0854
1570726851,-1.6190796,-9.351746,3.233368,-2.5040894,-2.288269,0.73376465,-1.0079107,0.09062481,-1.1548376
1570726851,-1.5646057,-9.492416,3.2740784,-2.528595,-2.2328796,0.73483276,-0.6310767,0.35291672,-0.7796426
1570726851,-1.4730377,-10.941498,1.3269806,-2.8396606,-1.7993164,1.0608063,-0.31998503,-0.85330296,-1.9843645
1570726851,0.1885376,-15.3582,5.8957214,-1.6018219,-0.70529175,1.5561523,1.1593595,-4.5716496,2.5168781
1570726851,0.1885376,-15.3582,5.8957214,-1.6018219,-0.70529175,1.5561523,1.1593595,-4.5716496,2.5168781
1570726851,-0.026931763,-13.515274,1.0875702,-0.61538696,0.9043274,0.7412262,1.9794757,-3.2294092,-0.5716715
1570726851,1.5191193,-9.2595825,1.9255371,-1.0031433,2.0185852,0.500473,4.1626015,0.48662853,1.5686315
1570726851,1.538269,-9.134476,1.9339142,-0.9967499,1.9600067,0.47491455,4.1914463,0.93302536,1.3057196
1570726851,0.31663513,-9.293091,1.6154938,-0.81352234,1.6979523,0.093551636,3.61442,1.2447128,1.5549164
1570726851,1.6280518,-8.981842,-2.4139557,-0.7314911,0.9277649,-0.59461975,4.399565,2.1799803,-1.1541551
1570726851,2.699463,-8.2677765,-4.0264435,-0.89341736,0.5975342,-0.6990051,4.6468215,1.2910156,-2.4906805
1570726851,-3.0735626,-10.017334,6.677429,-1.8947601,-2.4501953,-1.4681244,0.32287037,0.5786495,7.8318357
1570726851,-3.9073334,-10.072998,6.6660614,-1.7562866,-2.4001312,-1.4276428,0.32287037,0.5786495,7.8318357
1570726851,-1.1551971,-12.491745,0.7290344,-0.07423401,0.2619629,0.7412262,-1.056678,-1.1550274,3.3066788
1570726851,0.1478424,-11.283279,0.14724731,-0.087005615,0.37701416,0.7359009,-1.056678,-1.1550274,3.3066788
1570726851,0.4692688,-12.9717865,2.5677795,-0.044403076,0.39512634,0.3694458,2.3279767,-2.092266,4.2661905
1570726851,0.4692688,-12.9717865,2.5677795,-0.044403076,0.39512634,0.3694458,2.3279767,-2.092266,4.2661905
1570726851,-1.0654144,-16.561295,4.44783,0.9036865,0.3376007,0.17344666,1.2434903,-6.2981977,5.958077
1570726851,-1.3341675,-16.54274,4.5753174,0.9676056,0.34718323,0.1691742,1.2434903,-6.2981977,5.958077
1570726851,-2.8993835,-15.708359,5.7508698,1.7782745,1.2388153,0.22990417,-0.93966854,-5.3686504,6.8859015
1570726851,-3.2435455,-13.922882,3.572754,3.1204987,-0.65309143,0.500473,-0.86171865,-3.2520227,3.690907
1570726851,-3.2435455,-13.922882,3.572754,3.1204987,-0.65309143,0.500473,-0.86171865,-3.2520227,3.690907
1570726851,-1.7286072,-13.153152,-1.4538727,1.7953186,-2.09227,-0.19726562,0.3289771,-2.8680677,-4.0836086
1570726852,-1.6819305,-13.074738,-1.9554596,1.7558899,-2.0091705,-0.27290344,0.3289771,-2.8680677,-4.0836086
1570726852,2.3313599,-10.91217,-1.2749176,1.6003723,-1.6704254,-0.7650604,3.607238,-0.8652468,-4.826061
1570726852,-0.6889343,-12.309189,6.1375427,2.5399323,0.1096344,-1.5363007,0.96490663,-2.2300377,0.79663324
1570726852,-0.6889343,-12.309189,6.1375427,2.5399323,0.1096344,-1.5363007,0.96490663,-2.2300377,0.79663324
1570726852,-1.1043243,-7.7464447,-0.29089355,2.5921326,1.6745148,-1.3701324,-0.88989866,1.1946516,-4.3155856
1570726852,-1.1043243,-7.7464447,-0.29089355,2.5921326,1.6745148,-1.3701324,-0.88989866,1.1946516,-4.3155856
1570726852,-1.3461456,-6.534973,1.012146,2.1425934,1.3400116,-1.4564056,-0.83924496,2.1841707,-5.115776
1570726852,-1.4616547,-4.9278717,1.2743073,1.9082336,1.5860901,-1.203949,-1.3627452,3.3756847,-5.3696594
1570726852,-0.95947266,-4.3658295,1.4652557,1.7761383,2.0750427,-0.77890015,-0.61196226,3.8537884,-4.8969584
1570726852,-1.8495178,-3.8732147,0.9624634,0.9473572,1.8524017,-0.5307007,-1.1731403,3.9282022,-6.2745647
1570726852,-2.3253632,-3.2854462,2.5031433,-0.31071472,0.7977905,-0.27397156,-1.2387575,4.4736943,-5.0775623
1570726852,-2.2858582,-3.1711273,4.8644257,-1.1277771,0.2779541,-0.14187622,-1.4757466,4.7724323,-2.6794357
1570726852,-5.2427063,-14.887146,2.1086884,-2.5903778,-0.9353943,0.21925354,-3.2117674,-4.494603,-1.0029392
1570726852,-6.375763,-16.24646,-0.051467896,-2.7299347,-1.1804047,0.4663849,-4.181609,-5.8984356,-3.1046596
1570726852,-5.5838776,-19.07161,7.5004425,-2.9259338,-2.5130463,1.2418976,-5.2697434,-9.6391735,1.0502515
1570726852,-2.059021,-10.576981,1.5688019,-2.5307312,-2.5684357,0.78063965,-0.95133024,-0.9076834,-3.2727675
1570726852,-2.4373016,-12.196655,0.68833923,-2.73526,-2.0869446,1.7234039,-1.6429386,-1.5014162,-2.2603867
1570726852,-2.4373016,-12.196655,0.68833923,-2.73526,-2.0869446,1.7234039,-1.6429386,-1.5014162,-2.2603867
1570726852,0.7380066,-15.57428,2.5432434,-0.36717224,1.6468201,1.1428375,2.0981457,-5.2903957,0.6861744
1570726852,0.7380066,-15.57428,2.5432434,-0.36717224,1.6468201,1.1428375,2.0981457,-5.2903957,0.6861744
1570726852,3.8648376,-9.1332855,1.7842712,-0.5791626,2.5032806,0.98091125,5.7834206,0.17404461,0.63349247
1570726852,3.8648376,-9.1332855,1.7842712,-0.5791626,2.5032806,0.98091125,5.7834206,0.17404461,0.63349247
1570726852,1.6322479,-8.748413,0.45370483,-0.40979004,2.3243256,-0.07476807,4.2399263,1.2100134,0.5017567
1570726852,1.8052216,-8.723877,0.094573975,-0.41085815,2.2497559,-0.12590027,4.2399263,1.2100134,0.5017567
1570726852,4.62619,-8.996216,-1.1097107,-2.559494,-3.2352905,-2.2649536,8.045374,1.902092,-2.8992536
1570726852,4.62619,-8.996216,-1.1097107,-2.559494,-3.2352905,-2.2649536,8.045374,1.902092,-2.8992536
1570726852,-0.957077,-9.956894,0.5704193,-3.0772095,-3.4163818,-2.0913086,1.5931379,0.27888298,-0.3281408
1570726852,-10.050858,-11.289261,4.394562,-0.3980713,0.41537476,0.5910187,-11.131057,-1.0015974,6.8248396
1570726852,1.8620911,-11.133041,-0.0023956299,-0.3757019,1.3954163,0.7742462,2.4277406,-0.74753,2.3285036
1570726852,2.3750458,-11.391006,0.79307556,-0.41723633,0.39938354,0.55693054,3.9749968,-1.1160183,2.492868
1570726852,1.5963287,-11.612473,0.25737,-0.11897278,-0.484787,0.5239105,3.502915,-1.1541252,2.365172
1570726852,0.64164734,-13.608643,-1.3647003,-0.06890869,-0.40489197,0.3609314,2.5988984,-2.8900642,0.8593972
1570726852,0.3824768,-15.076889,0.1257019,-0.2265625,0.32588196,0.22457886,2.2729712,-4.2104263,1.3496538
1570726852,-2.5899353,-15.503052,6.3105164,0.51060486,1.0523987,0.19900513,-0.842147,-5.2504816,8.068448
1570726853,0.020950317,-13.724762,2.1960754,1.850708,1.5818329,0.21072388,1.417818,-3.3621597,3.995658
1570726853,-0.23164368,-13.107651,1.2072754,2.1500397,1.4295044,0.1382904,1.9078726,-2.5747385,2.4948158
1570726853,-3.4362793,-14.628571,0.21847534,2.3226166,0.03187561,0.4440155,-0.9212074,-3.7725382,-0.10764045
1570726853,-3.4362793,-14.628571,0.21847534,2.3226166,0.03187561,0.4440155,-0.9212074,-3.7725382,-0.10764045
1570726853,-5.086487,-12.514496,-0.048477173,2.0541687,-1.8685608,-0.04386902,-1.9309113,-2.5845995,-1.9340239
1570726853,-5.2744293,-12.140396,2.367859,2.119156,-2.4129028,-0.32403564,-4.082514,-1.749546,0.35992205
1570726853,-0.6584015,-11.486176,0.028137207,2.0797424,-1.5159607,-0.28781128,-0.7889942,-1.3954029,-0.80976534
1570726853,2.0847473,-12.235565,4.082718,2.7178345,-0.8054199,-1.2220612,3.6942463,-2.869381,0.28107095
1570726853,0.18914795,-9.456497,2.8119965,2.9255524,0.28753662,-1.3392334,1.0826924,0.19639492,-2.8206716
1570726853,0.055664062,-9.535507,2.8449097,2.9223633,0.36743164,-1.349884,0.82004267,0.148242,-2.2033625
1570726853,0.10952759,-8.6358795,0.64105225,2.617691,1.3229675,-1.506485,0.64598024,0.22458649,-4.3387113
1570726853,0.034713745,-7.2682037,1.4443054,2.457901,1.9205933,-1.5096741,0.54523766,1.3457355,-3.9434805
1570726853,-1.9075775,-3.2836456,0.07481384,2.0541687,2.7280579,-0.6926117,-1.1689553,4.2911606,-7.1084003
1570726853,-2.2786865,-2.6342163,0.33039856,1.7303314,2.5341797,-0.55307007,-1.4361577,4.9233465,-6.990571
1570726853,-3.0298615,-3.672699,4.347275,-0.91259766,0.3365326,-0.62976074,-1.8286157,4.103317,-3.26224
1570726853,-2.9335022,-3.7451324,4.849457,-0.97117615,0.216156,-0.62338257,-1.8286157,4.103317,-3.26224
1570726853,-3.5667572,-6.3147125,2.5234833,-2.227127,-0.6882477,-0.21005249,-2.4808822,2.110942,-2.87809
1570726853,-3.3339233,-8.434769,1.051651,-2.8460388,-1.3838654,-0.023635864,-2.5496814,1.0041227,-6.889415
1570726853,-6.274597,-19.612701,3.329132,-3.0559082,-2.8869476,1.3292542,-5.5748663,-10.505154,-0.6043
1570726853,-4.4544067,-16.421234,2.489975,-2.7629547,-3.1660461,1.6637421,-3.9393523,-9.0180855,-1.7781639
1570726853,-1.4526825,-9.653427,1.6531982,-2.6511078,-2.348999,1.4368439,-0.5866084,0.36933136,-1.7129915
1570726853,-1.742981,-10.557236,-0.01914978,-2.5712128,-2.2041168,1.6286011,-0.7210253,-0.23784637,-3.077659
1570726853,0.62368774,-15.49707,4.644745,-2.0055542,-0.644577,1.9385834,1.1150258,-3.7437162,0.4247644
1570726853,1.5652161,-17.343002,1.4706421,-0.7741089,1.4433441,0.9841156,3.1221075,-7.004445,-0.41390944
1570726853,4.8757935,-11.173737,3.320755,-1.2300415,2.6300507,0.9979553,7.1295195,-1.8798285,2.0668912
1570726853,4.8757935,-11.173737,3.320755,-1.2300415,2.6300507,0.9979553,7.1295195,-1.8798285,2.0668912
1570726853,1.8812408,-7.9361725,0.3657074,-0.728302,3.0731964,-0.4646454,4.587408,2.3101091,1.9772453
1570726853,1.8812408,-7.9361725,0.3657074,-0.728302,3.0731964,-0.4646454,4.587408,2.3101091,1.9772453
1570726853,4.1204224,-10.177155,-3.2722778,-2.2921143,-3.9554138,-2.367218,6.991155,1.7366028,-2.6803904
1570726853,4.1204224,-10.177155,-3.2722778,-2.2921143,-3.9554138,-2.367218,6.991155,1.7366028,-2.6803904
1570726853,-16.54274,-11.003754,11.870453,-0.56425476,0.9863434,-0.42311096,-15.849278,-0.86147594,17.3566
1570726853,-16.54274,-11.003754,11.870453,-0.56425476,0.9863434,-0.42311096,-15.849278,-0.86147594,17.3566
1570726853,4.7500916,-11.176132,-2.494751,-0.2808838,0.9661102,0.7934265,4.6778126,-0.8646374,-0.20623696
1570726853,3.7175903,-10.449493,-1.4628601,-0.4822235,-0.33244324,0.42803955,5.2366567,-0.2643051,0.4242767
1570726854,0.32382202,-12.650955,-1.3623047,-0.4300232,-0.5433655,0.5548096,2.2654152,-1.4538212,0.4134959
1570726854,1.8034363,-14.556747,-0.72065735,-0.67077637,1.36026,0.3193817,2.863481,-4.5716715,1.1088345
1570726854,-2.2900543,-13.952805,2.8149872,-0.49501038,1.297409,0.20539856,0.2961234,-3.3268309,3.8401527
1570726854,-1.201294,-15.4192505,2.276291,1.118866,1.9291077,0.73483276,0.31500793,-5.5119247,4.185654
1570726854,-1.201294,-15.4192505,2.276291,1.118866,1.9291077,0.73483276,0.31500793,-5.5119247,4.185654
1570726854,0.3034668,-13.454819,3.8408966,1.8443146,2.0324402,0.86906433,1.7928641,-3.0775785,5.250469
1570726854,2.1296387,-13.906723,2.3499146,2.9223633,3.1594849,0.90101624,4.156015,-3.3723593,4.0714545
1570726854,1.359314,-13.873795,-3.564972,2.8296814,1.7192535,0.50154114,3.9172132,-3.5767994,-1.7695395
1570726854,0.51594543,-13.730148,-1.8513184,2.4046478,-0.13005066,0.28103638,3.3437612,-3.365861,-2.5734177
1570726854,-1.0648193,-9.239227,-1.1109161,2.2064972,-1.2070312,-0.039611816,1.2719269,0.66377354,-2.704599
1570726854,-1.1988983,-8.870514,-1.2467804,2.1969147,-1.0877228,-0.10671997,1.2400851,1.0504313,-2.9745615
1570726854,0.4519043,-7.3705444,-3.103485,1.5471039,0.94374084,-0.12802124,2.4351006,2.7716808,-4.986687
1570726854,2.6312256,-6.724716,-1.3413544,0.41792297,2.1826477,-0.34854126,4.640858,3.3286505,-4.0327387
1570726854,2.2643127,-8.850769,5.0936584,1.1092834,0.565567,-0.88223267,4.4017534,1.4018192,1.9395931
1570726854,-0.7697296,-8.826828,4.332901,2.0072937,1.7394867,-0.87797546,3.0998101,1.3020201,-0.48428154
1570726854,-0.5105591,-6.2530518,-1.960846,2.4919891,2.4521484,-0.758667,1.3384652,3.3565054,-5.3953595
1570726854,-1.5071564,-6.174652,-3.5984802,1.3628082,1.8705139,-1.1538696,0.5091778,3.5014305,-8.110928
1570726854,-3.831314,-8.861542,0.3818817,-0.010314941,1.5040741,-0.9141998,-2.172966,0.39232826,-3.8975286
1570726854,-3.831314,-8.861542,0.3818817,-0.010314941,1.5040741,-0.9141998,-2.172966,0.39232826,-3.8975286
1570726854,-2.2433624,-6.5798645,3.210022,-1.2108612,0.8638458,-0.4380188,-0.8754302,3.271514,-0.7274101
1570726854,-2.2433624,-6.5798645,3.210022,-1.2108612,0.8638458,-0.4380188,-0.8754302,3.271514,-0.7274101
1570726854,0.8265991,-15.156494,12.63121,-1.2651978,1.6042023,0.8115387,1.114895,-4.321822,9.618362
1570726854,0.8265991,-15.156494,12.63121,-1.2651978,1.6042023,0.8115387,1.114895,-4.321822,9.618362
1570726854,3.916916,-14.865601,7.086838,-0.058242798,1.7948914,0.31298828,6.1660023,-5.2884855,5.387828
1570726854,-1.5478516,-9.422379,2.3983917,0.20167542,1.6872864,-0.40286255,1.0022013,0.36837578,-0.15713501
1570726854,-5.727524,-7.5800476,-2.7132263,0.09408569,0.323761,-0.52430725,-3.0969558,2.9789972,-4.391905
1570726854,-9.715668,-18.52034,-3.6230316,0.06851196,-1.1612244,-0.22816467,-5.680635,-3.5704603,-5.932102
1570726854,-9.002792,-13.514664,4.060562,-0.8316345,0.7466583,-0.41246033,-8.222773,-7.9511757,5.5783806
1570726854,-0.9223633,-5.4138947,0.56443787,0.96865845,-1.5521698,-0.0342865,0.5824648,4.4785624,-2.4912755
1570726854,1.8040314,-12.567169,-3.6571503,1.770813,-0.75961304,0.12550354,2.5921726,-1.434988,-8.204421
1570726854,1.8040314,-12.567169,-3.6571503,1.770813,-0.75961304,0.12550354,2.5921726,-1.434988,-8.204421
1570726854,4.4813538,-9.667191,-1.783081,-1.9032898,4.4782867,-0.2707672,6.1009054,-1.2532654,-5.5516663
1570726854,4.4813538,-9.667191,-1.783081,-1.9032898,4.4782867,-0.2707672,6.1009054,-1.2532654,-5.5516663
1570726855,2.9598389,-8.825623,-1.4167633,-3.3584442,4.3472595,-1.2220612,5.80939,1.4244804,-3.3236938
1570726855,-2.7072449,-13.20282,4.513077,-2.9525757,-1.8962555,-1.0079346,-1.3019061,-2.985567,1.7647108
1570726855,-2.692276,-11.791443,11.669342,-2.3283234,-1.7396698,-0.77464294,-1.1584792,-2.053568,8.441306
1570726855,1.1486206,-11.941086,-0.7272339,1.0219269,3.0795898,0.3343048,1.112275,-1.2346449,2.3401737
1570726855,2.644989,-11.444885,-2.7276,0.71939087,3.0273895,0.21072388,3.2973704,-1.3033276,-2.0792038
1570726855,-4.683655,-10.83017,4.845871,-1.6540222,0.47608948,-1.0665283,-2.2937517,-0.6440449,1.2641058
1570726855,-4.683655,-10.83017,4.845871,-1.6540222,0.47608948,-1.0665283,-2.2937517,-0.6440449,1.2641058
1570726855,-2.2475586,-9.837173,1.2000885,-0.26278687,1.4944763,-0.22390747,-2.3188295,0.6963854,2.1204114
1570726855,-0.885849,-10.026321,0.58358765,-0.25958252,1.2867584,-0.16743469,-0.85752434,0.53877926,1.782548
1570726855,0.95648193,-10.47583,-2.158371,-0.6271057,0.7381439,0.12657166,1.1450349,-0.043338776,-1.0058849
1570726855,0.95648193,-10.47583,-2.158371,-0.6271057,0.7381439,0.12657166,1.1450349,-0.043338776,-1.0058849
1570726855,2.7413635,-9.915588,-1.3730774,-0.92004395,0.55384827,0.08076477,3.2676473,0.5701599,-0.16550219
1570726855,1.8285675,-11.301834,-2.339737,-1.2545471,0.65504456,0.12124634,2.412614,-0.4774723,-0.3598702
1570726855,1.6029205,-11.390411,-2.3289642,-1.2545471,0.6443939,0.13082886,2.1963522,-0.8528042,-0.2622254
1570726855,-0.0035858154,-12.409149,-0.9283447,-1.0904846,1.137619,0.41738892,0.4029955,-2.1235867,1.2343273
1570726855,1.6555939,-13.08371,0.68055725,-0.41937256,1.1493378,0.7465515,1.872042,-2.4359846,3.7657013
1570726855,1.7932587,-13.320145,0.7445984,-0.35972595,1.0896759,0.7635956,2.0775454,-2.8216496,3.702873
1570726855,1.822586,-14.059952,-0.0059814453,0.33909607,1.2345581,0.11804199,3.505471,-3.83068,2.2289696
1570726855,1.3862457,-14.154526,0.2783203,0.37850952,1.280365,0.12124634,2.5426726,-3.8206234,2.7829754
1570726855,1.8177948,-11.526886,1.3940277,1.7985077,2.58638,0.73483276,2.3527777,-1.4265299,3.2867863
1570726855,1.8441315,-11.421539,1.5634155,1.8517761,2.588501,0.7476196,2.2970245,-1.1323309,3.5217233
1570726855,3.3961792,-13.673889,-0.40641785,2.8318176,1.0257568,0.7891693,3.924397,-2.6193266,0.88148916
1570726855,3.3961792,-13.673889,-0.40641785,2.8318176,1.0257568,0.7891693,3.924397,-2.6193266,0.88148916
1570726855,4.490921,-13.067551,-1.3976135,2.857376,-0.5742645,0.41845703,5.372961,-2.426796,-1.5208501
1570726855,2.3307495,-13.475159,-2.182312,2.5431213,-0.00541687,0.079696655,3.5980914,-2.9366808,-3.35479
1570726855,1.9099731,-12.45224,-1.7166443,2.3971863,0.34931946,0.050933838,2.8812404,-2.0053768,-3.294791
1570726855,3.344696,-11.394012,-1.4634552,1.710083,1.0044556,-0.049194336,3.9848938,-1.0653801,-3.7163234
1570726855,5.723343,-11.550827,-0.16459656,1.3447113,0.49313354,-0.280365,5.9270735,-1.210495,-3.4481094
1570726855,6.8252716,-11.910553,0.3818817,1.1369781,-1.2059631,-0.9440155,6.7652717,-1.9779978,-2.5932424
1570726855,5.8789673,-14.984711,3.3800201,-0.091278076,-1.5361938,-3.0031738,7.3976803,-4.279896,-2.7091577
1570726855,-0.51116943,-14.319122,5.06015,1.1316528,2.7408447,-2.4843903,-1.7495197,-4.6090364,1.670495
1570726855,0.042495728,-12.573746,-0.23822021,2.4973145,3.6740112,-2.2692108,-1.3292339,-2.9152308,-5.0250087
1570726855,0.58358765,-11.569977,-0.40940857,2.4131622,3.6516418,-2.191452,-1.24561,-2.1798487,-4.9225364
1570726856,0.8643036,-8.751999,1.9117737,1.4917145,2.74617,-1.8409729,-1.2334765,0.04882431,-4.1095996
1570726856,0.8643036,-8.751999,1.9117737,1.4917145,2.74617,-1.8409729,-1.2334765,0.04882431,-4.1095996
1570726856,0.45968628,-6.5948334,0.5997467,1.4309845,3.7890625,-1.4361725,-0.8537042,1.4174128,-6.199654
1570726856,-1.2240295,-5.194824,0.7487793,0.8184662,3.4428558,-1.0729218,-2.1149287,2.5641317,-6.1676183
1570726856,-1.3341675,-5.2798157,2.4857788,0.497818,3.1648102,-0.9951477,-2.030421,2.6598964,-5.064139
1570726856,-1.3874359,-5.1888275,2.8329468,0.07810974,2.5267181,-0.78315735,-1.6803455,2.420555,-4.4380307
1570726856,-0.66259766,-4.8686066,3.4536285,-0.39167786,1.2707672,-0.88009644,-0.9247041,2.9449534,-4.0441585
1570726856,-0.6434479,-5.764633,3.5823212,-0.84121704,0.92030334,-0.8619995,-0.5557906,2.2098904,-3.5344458
1570726856,-2.5683746,-10.424347,2.526474,-2.239914,-0.39422607,-0.40179443,-2.115368,-0.4630947,-4.5405054
1570726856,-2.5683746,-10.424347,2.526474,-2.239914,-0.39422607,-0.40179443,-2.115368,-0.4630947,-4.5405054
1570726856,-4.034836,-15.7903595,6.772003,-2.2249908,-2.331955,0.37051392,-4.0130587,-7.1598387,1.274199
1570726856,-2.0835571,-8.828613,-0.2861023,-2.2793274,-2.110382,0.7401581,-2.8695507,1.0858679,-3.849577
1570726856,-2.0835571,-8.828613,-0.2861023,-2.2793274,-2.110382,0.7401581,-2.8695507,1.0858679,-3.849577
1570726856,-1.3132172,-12.770676,3.5559845,-2.1664124,-0.7585602,1.8874512,-1.739502,-2.4257364,0.8880856
1570726856,-1.3132172,-12.770676,3.5559845,-2.1664124,-0.7585602,1.8874512,-1.739502,-2.4257364,0.8880856
1570726856,1.4299316,-13.579315,2.5785522,0.28157043,2.732315,1.2056885,1.9230965,-3.2920885,0.66187763
1570726856,1.719635,-13.510483,2.482193,0.21020508,2.8686676,1.1907654,1.9230965,-3.2920885,0.66187763
1570726856,2.2182312,-9.80426,1.6711578,-0.6207123,2.7174072,0.5622711,4.158501,0.25912952,-0.10311818
1570726856,1.7399902,-9.584595,2.2858582,-0.5930176,2.5277863,0.4823761,3.6121125,0.733201,0.34073603
1570726856,0.71047974,-9.628876,2.4241333,-0.2776947,2.3925018,0.20965576,2.6111274,0.93605995,1.1160855
1570726856,2.8491058,-9.964066,-3.9043427,-0.71765137,1.3847504,-0.838562,4.320086,0.4676466,-4.7284155
1570726856,2.8491058,-9.964066,-3.9043427,-0.71765137,1.3847504,-0.838562,4.320086,0.4676466,-4.7284155
1570726856,-1.0588379,-8.876495,2.0105286,-1.8244629,-1.4754791,-1.5927734,0.9622984,1.178505,3.0991585
1570726856,-1.0588379,-8.876495,2.0105286,-1.8244629,-1.4754791,-1.5927734,0.9622984,1.178505,3.0991585
1570726856,-2.9077606,-10.770309,2.5941162,-0.8039398,0.17887878,0.40460205,-3.458358,-0.16778183,3.732294
1570726856,-2.9077606,-10.770309,2.5941162,-0.8039398,0.17887878,0.40460205,-3.458358,-0.16778183,3.732294
1570726856,0.39624023,-11.487381,1.3209991,-0.51312256,-0.20780945,0.44189453,1.1928653,-0.91977596,2.445158
1570726856,0.36032104,-11.56041,1.3341675,-0.48008728,-0.23231506,0.44934082,1.1853278,-0.95109177,2.527151
1570726856,0.50338745,-14.681839,1.1091156,-0.29899597,0.5293579,0.5622711,1.2817805,-3.3301592,2.3417985
1570726856,0.50338745,-14.681839,1.1091156,-0.29899597,0.5293579,0.5622711,1.2817805,-3.3301592,2.3417985
1570726856,1.0522461,-17.981659,2.2625275,0.26133728,0.61990356,0.3108673,2.5742264,-7.2787905,3.6259518
1570726856,0.18675232,-14.139557,1.806427,0.83976746,0.6305542,-0.13334656,1.6413382,-4.2619934,3.1899447
1570726857,-3.431488,-11.764511,5.628174,1.1092834,1.3645172,0.13082886,-2.4750705,-1.016077,6.1584005
1570726857,-3.431488,-11.764511,5.628174,1.1092834,1.3645172,0.13082886,-2.4750705,-1.016077,6.1584005
1570726857,-2.1410217,-12.026077,3.8923798,1.8901215,1.2952728,0.5867615,-1.1607485,-1.243536,4.4131474
1570726857,-1.7615356,-12.835907,-0.020355225,2.3812103,-1.2102203,0.2874298,-0.46704018,-2.2665405,-1.1647193
1570726857,-0.888855,-12.072159,0.7739258,2.2384644,-1.2933197,0.18196106,-0.035455108,-1.9213448,-0.48011172
1570726857,-1.3784637,-10.373474,1.5490417,1.7558899,-1.8280792,-0.10992432,-0.2846024,0.18413353,-1.1460321
1570726857,-1.1797485,-10.29686,1.454483,1.7580261,-1.8174286,-0.105651855,-0.24792469,0.0061273575,-0.91687083
1570726857,4.182663,-10.696701,3.5835266,1.7825317,-1.3188782,-0.49980164,3.6023257,-0.45367908,0.8136146
1570726857,-0.16699219,-10.831375,2.7102356,2.68161,0.26942444,-1.1858368,-0.011607766,-1.0722284,-1.729361
1570726857,-0.16699219,-10.831375,2.7102356,2.68161,0.26942444,-1.1858368,-0.011607766,-1.0722284,-1.729361
1570726857,-1.0426788,-8.30249,3.040039,1.960434,0.52615356,-1.379715,-1.2746748,0.84334373,-2.7871952
1570726857,-0.8607178,-7.818268,2.5923157,2.0467072,1.0960693,-1.3594666,-1.477103,1.1233654,-2.5639086
1570726857,-0.19392395,-4.8255157,0.9391327,2.0147552,2.220993,-0.72032166,-0.4223546,3.1771793,-5.528236
1570726857,-0.19392395,-4.8255157,0.9391327,2.0147552,2.220993,-0.72032166,-0.4223546,3.1771793,-5.528236
1570726857,-1.6705475,-2.6731262,1.7453766,-0.030548096,0.881958,-0.16743469,-1.4714749,5.3647385,-5.6749926
1570726857,-1.6897125,-3.605072,3.502121,-0.69847107,0.37382507,-0.17170715,-1.5801927,4.652829,-4.3804946
1570726857,-1.3012543,-9.441528,10.525513,-1.5986176,-0.6957092,0.12870789,-2.0523934,0.37438583,2.901239
1570726857,-1.3012543,-9.441528,10.525513,-1.5986176,-0.6957092,0.12870789,-2.0523934,0.37438583,2.901239
1570726857,-2.091339,-15.277405,8.24324,-1.797821,-1.8248901,0.95321655,-1.529466,-6.6381617,1.1627636
1570726857,-2.7802734,-14.123398,7.241867,-1.7211304,-1.7332764,1.006485,-2.0408604,-6.2721653,2.6823769
1570726857,-1.7693176,-7.399872,2.3738556,-2.2036896,-1.7673645,0.85946655,-1.8261195,2.0893202,-2.1426578
1570726857,-0.3537445,-13.882187,2.1440125,-2.7107544,-2.4725647,1.1929016,-0.20805977,-2.841566,-1.6722138
1570726857,-0.3537445,-13.882187,2.1440125,-2.7107544,-2.4725647,1.1929016,-0.20805977,-2.841566,-1.6722138
1570726857,-0.9439087,-13.81514,1.7627258,-2.418869,-1.9228821,1.7479095,-0.83090895,-3.7846613,-0.82496405
1570726857,0.32740784,-12.400772,1.459259,-0.3991394,1.6990051,1.055481,1.3691721,-1.9379663,-0.035070896
1570726857,0.32740784,-12.400772,1.459259,-0.3991394,1.6990051,1.055481,1.3691721,-1.9379663,-0.035070896
1570726857,1.9147644,-9.899429,1.3694763,-1.1799774,2.348816,0.54522705,3.6363027,0.3655615,0.04521966
1570726857,1.9147644,-9.899429,1.3694763,-1.1799774,2.348816,0.54522705,3.6363027,0.3655615,0.04521966
1570726857,1.225235,-8.914215,1.1689758,-1.0191193,1.4124603,-0.22923279,3.1631007,1.4632053,0.6384366
1570726857,0.81881714,-8.938156,2.671936,-0.88916016,1.1248322,-0.36984253,2.8537655,1.6807137,1.2766277
1570726857,2.4606476,-8.504211,-1.5430603,-0.59407043,0.5740967,-0.4880829,3.7909951,2.1377306,-0.9828924
1570726857,3.1567535,-10.79306,1.7998352,-1.8479004,-2.57164,-1.6673279,4.4554367,-0.20519352,1.8032904
1570726857,3.1567535,-10.79306,1.7998352,-1.8479004,-2.57164,-1.6673279,4.4554367,-0.20519352,1.8032904
1570726857,-10.661377,-11.9518585,7.2035522,-1.1203156,-1.5255432,-0.96958923,-9.134968,-1.9268684,8.114453
1570726858,1.5095367,-9.576813,-2.451065,-0.53974915,-0.2387085,0.37051392,0.8489537,0.8403187,-0.5674548
1570726858,1.5095367,-9.576813,-2.451065,-0.53974915,-0.2387085,0.37051392,0.8489537,0.8403187,-0.5674548
1570726858,1.1719666,-11.333557,0.29388428,-0.6356201,0.19911194,0.38755798,2.10044,-0.7950859,1.9137242
1570726858,1.0767975,-11.373657,0.23283386,-0.64627075,0.30351257,0.40885925,2.10044,-0.7950859,1.9137242
1570726858,0.72843933,-13.555969,-0.7763214,-0.7528076,0.26516724,0.26611328,1.4817585,-2.9580498,1.3688099
1570726858,0.72843933,-13.555969,-0.7763214,-0.7528076,0.26516724,0.26611328,1.4817585,-2.9580498,1.3688099
1570726858,0.40821838,-14.96077,3.8043823,-0.19673157,0.64227295,0.05307007,1.400702,-4.012353,5.6045723
1570726858,-0.12689209,-16.625336,3.4458618,0.7300415,1.5093994,-0.014038086,0.6670937,-5.922968,5.9214554
1570726858,-0.14544678,-14.121002,3.7684784,1.7644196,0.9607849,0.2874298,0.35718638,-3.7291145,5.3506536
1570726858,-0.14544678,-14.121002,3.7684784,1.7644196,0.9607849,0.2874298,0.35718638,-3.7291145,5.3506536
1570726858,-2.4893646,-14.871582,2.261322,2.9607086,0.18206787,-0.1088562,-1.1684763,-3.9430876,2.1173327
1570726858,-2.9430695,-15.071503,1.8842316,2.9553833,0.15330505,-0.11097717,-1.1684763,-3.9430876,2.1173327
1570726858,-4.440048,-11.831543,-1.1994934,2.2725525,-1.5468445,-0.060913086,-3.7967367,-1.4266443,-3.327135
1570726858,-4.440048,-11.831543,-1.1994934,2.2725525,-1.5468445,-0.060913086,-3.7967367,-1.4266443,-3.327135
1570726858,3.0723572,-10.96843,-2.554016,1.4959717,-0.8938446,-0.8918152,2.3390703,-0.452219,-4.7766247
1570726858,4.2167816,-12.606064,1.0366821,1.4064941,-1.1750793,-1.4063416,4.0219955,-1.8865747,-3.8642426
1570726858,2.323578,-10.643417,2.5354614,2.8605804,-0.3952942,-1.0207214,2.1256306,-0.8599968,-1.9747548
1570726858,0.6799469,-8.160629,1.6663666,2.391861,1.3389587,-1.0100708,0.11677712,1.0169258,-2.2637115
1570726858,0.9038086,-8.138489,1.2790985,2.36203,1.4220428,-1.0026093,0.11677712,1.0169258,-2.2637115
1570726858,-2.2008667,-4.873993,0.8523407,2.4813385,2.58638,-0.77996826,-1.8440275,2.8499403,-5.6038737
1570726858,-2.2008667,-4.873993,0.8523407,2.4813385,2.58638,-0.77996826,-2.4102528,3.1277752,-5.9348106
1570726858,-3.8714294,-2.7587128,1.6813354,1.9519043,2.4042206,-0.57650757,-3.9888065,4.6538324,-5.6923223
1570726858,-1.5478516,-3.2740784,3.5877075,-0.044403076,0.03187561,-0.3314972,-0.99079794,3.9501128,-4.833413
1570726858,-1.5478516,-3.2740784,3.5877075,-0.044403076,0.03187561,-0.3314972,-0.99079794,3.9501128,-4.833413
1570726858,-0.6248932,-3.6661224,3.91333,-2.097168,-0.3132782,-0.4337616,-1.4955167,4.6851764,-3.3667746
1570726858,-0.6248932,-3.6661224,3.91333,-2.097168,-0.3132782,-0.4337616,-1.4955167,4.6851764,-3.3667746
1570726858,-3.6403809,-19.612701,7.8164673,-2.5680084,-2.8880157,1.2227325,-2.2127938,-10.811973,2.9595041
1570726858,-3.6403809,-19.612701,7.8164673,-2.5680084,-2.8880157,1.2227325,-2.2127938,-10.811973,2.9595041
1570726858,-0.63327026,-7.3699493,1.1139069,-2.1536255,-1.9463196,0.8935547,-1.3176433,2.3242683,-3.0042753
1570726858,-0.63327026,-7.3699493,1.1139069,-2.1536255,-1.9463196,0.8935547,-1.3176433,2.3242683,-3.0042753
1570726858,-0.30526733,-14.464569,-1.4855957,-3.357376,-2.6770935,1.6818542,0.04495105,-3.143158,-4.600829
1570726858,-0.30526733,-14.464569,-1.4855957,-3.357376,-2.6770935,1.6818542,0.04495105,-3.143158,-4.600829
1570726858,0.77212524,-14.163498,2.094925,-0.48329163,1.1781006,1.2866364,0.98381644,-4.3674726,0.6133487
1570726858,0.912796,-13.787018,2.0225067,-0.5322876,1.3549347,1.2770538,1.3181791,-3.7926273,0.4074173
1570726859,2.6425934,-8.525757,0.383667,-1.4047394,2.4936981,0.6634674,3.7879639,1.8250189,-0.65727526
1570726859,2.6425934,-8.525757,0.383667,-1.4047394,2.4936981,0.6634674,3.7879639,1.8250189,-0.65727526
1570726859,1.8399506,-9.262573,0.873291,-0.40446472,1.1930084,-0.32617188,4.0813813,2.548027,1.5027788
1570726859,1.8399506,-9.262573,0.873291,-0.40446472,1.1930084,-0.32617188,4.0813813,2.548027,1.5027788
1570726859,3.3626556,-10.08078,-0.15802002,-2.293167,-3.2949524,-1.8494873,4.478454,0.18619156,-0.9092072
1570726859,3.3626556,-10.08078,-0.15802002,-2.293167,-3.2949524,-1.8494873,4.478454,0.18619156,-0.9092072
1570726859,-5.4420166,-12.770676,6.775589,-2.515808,-4.0757904,-1.5299225,-2.9847035,-0.77377605,5.0734
1570726859,0.07182312,-10.115509,0.67456055,-0.109375,1.184494,0.76252747,0.43525982,0.4398203,3.5272655
1570726859,0.07182312,-10.115509,0.67456055,-0.109375,1.184494,0.76252747,0.43525982,0.4398203,3.5272655
1570726859,4.292801,-11.118668,-0.44651794,-0.49075317,-0.19929504,0.3896942,5.1505337,0.09336281,0.9536842
1570726859,-0.13825989,-12.322357,-0.07122803,-0.4502716,-0.09915161,0.17131042,0.47798753,-1.76297,1.4335678
1570726859,-0.13825989,-12.322357,-0.07122803,-0.4502716,-0.09915161,0.17131042,0.47798753,-1.76297,1.4335678
1570726859,2.5785522,-17.028763,1.7310028,0.5319061,1.1621246,0.21818542,2.579733,-6.3609657,4.7753744
1570726859,2.5785522,-17.028763,1.7310028,0.5319061,1.1621246,0.21818542,2.579733,-6.3609657,4.7753744
1570726859,-1.0552368,-13.870804,3.612854,1.1199341,1.2420197,-0.10671997,-0.9216232,-3.5227766,5.353901
1570726859,-0.97384644,-13.712784,3.4967346,1.1998291,1.247345,-0.07476807,-0.9216232,-3.5227766,5.353901
1570726859,-0.8738861,-12.74913,2.308014,2.39505,0.62309265,0.34388733,-0.38159475,-1.76408,2.9619777
1570726859,-0.9062042,-12.88739,2.3026276,2.4302063,0.6103058,0.338562,-0.38159475,-1.76408,2.9619777
1570726859,-1.2312164,-15.273804,2.4223328,3.4049225,0.4068451,0.2874298,-0.8650672,-5.0162907,3.9868565
1570726859,-0.5524597,-11.239578,-1.8596954,2.1468506,-2.5130463,-0.5626526,-0.24257118,-1.1574411,-6.144908
1570726859,-0.5524597,-11.239578,-1.8596954,2.1468506,-2.5130463,-0.5626526,-0.24257118,-1.1574411,-6.144908
1570726859,-0.25976562,-10.517731,2.561203,2.3673553,-2.3127747,-0.90460205,-0.16879956,0.26595974,-2.174955
1570726859,3.5763397,-11.270111,0.5213318,3.2376862,1.1994019,-1.1996765,3.2824085,-2.4236822,-2.9708438
1570726859,3.5763397,-11.270111,0.5213318,3.2376862,1.1994019,-1.1996765,3.2824085,-2.4236822,-2.9708438
1570726859,1.0738068,-8.372528,1.7914581,2.4195557,2.7003632,-1.1134033,0.35742354,0.45878506,-5.2450123
1570726859,1.0738068,-8.372528,1.7914581,2.4195557,2.7003632,-1.1134033,0.35742354,0.45878506,-5.2450123
1570726859,-0.37887573,-6.380554,1.154007,2.4163666,2.7546844,-0.62231445,-0.39630577,1.3876152,-6.3944564
1570726859,-1.6334381,-3.668518,-0.12808228,2.1734772,2.9911804,-0.41246033,-1.2028573,3.6612043,-7.489508
1570726859,-2.4702148,-2.1098938,1.3353729,1.4448395,2.4936981,-0.43162537,-1.9521911,4.736314,-6.5061517
1570726859,-0.81222534,-2.4612427,2.7904358,0.17610168,1.16745,-0.6926117,-0.03479588,4.6415563,-5.2532396
1570726859,-0.43754578,-2.4624329,3.9157104,-0.2531891,0.48780823,-0.9216461,0.67916644,4.685751,-4.4433875
1570726859,-0.96725464,-7.1957703,9.531311,-1.9011536,-0.3367157,-0.9355011,-1.0282257,1.8600059,1.9627466
1570726859,-0.8086395,-7.807495,9.192535,-1.923523,-0.32392883,-0.90992737,-0.6079417,0.7870579,2.5797367
1570726859,-1.6370392,-14.614212,8.198349,-2.019394,-0.38038635,-0.50193787,-1.026373,-5.159463,1.5790691
1570726860,-5.207382,-19.612701,8.184586,-1.6273804,-0.5550842,1.0640106,-6.1309533,-11.000955,3.202754
1570726860,-1.7663269,-6.442795,1.9500732,-1.6241913,-1.1154175,0.55055237,-1.4275185,0.7406235,-3.9250436
1570726860,-1.3742676,-11.182724,1.0821838,-2.4614868,-2.1274261,1.2024841,-1.2749293,0.06812,-3.2110233
1570726860,-1.2336121,-12.010513,0.980423,-2.5009003,-2.1167603,1.248291,-1.1113473,-1.2997055,-3.4529815
1570726860,1.3527222,-13.40155,3.075348,-2.0417786,-0.83525085,1.9247437,1.7623045,-3.5216484,-0.3283236
1570726860,2.3295593,-12.824539,2.3301544,-1.8692017,-0.4933014,1.9375153,1.7623045,-3.5216484,-0.3283236
1570726860,2.0572205,-11.22821,1.9351196,-1.54216,1.7778473,0.47598267,4.051935,-0.9728584,-0.6107304
1570726860,2.0572205,-11.22821,1.9351196,-1.54216,1.7778473,0.47598267,4.051935,-0.9728584,-0.6107304
1570726860,1.2976532,-9.831787,4.2006226,-1.2129974,2.3381653,0.25227356,3.608044,0.54710484,2.5118163
1570726860,1.2976532,-9.831787,4.2006226,-1.2129974,2.3381653,0.25227356,3.608044,0.54710484,2.5118163
1570726860,3.1381989,-8.692749,-0.4590912,-0.997818,1.4934082,-0.7948761,4.785415,1.596817,-0.20735073
1570726860,3.115448,-9.650421,-1.8926239,-1.9341736,-4.313339,-1.7940979,5.497199,0.9058981,-5.2044234
1570726860,3.115448,-9.650421,-1.8926239,-1.9341736,-4.313339,-1.7940979,5.497199,0.9058981,-5.2044234
1570726860,-12.252335,-11.625641,4.490326,-0.8785095,-0.00541687,-0.13015747,-12.512536,0.16097927,5.7718916
1570726860,-12.252335,-11.625641,4.490326,-0.8785095,-0.00541687,-0.13015747,-12.512536,0.16097927,5.7718916
1570726860,-1.9231415,-11.668747,2.731781,-0.49394226,1.184494,0.7604065,-3.4758751,-0.9195833,5.2307944
1570726860,1.6980896,-11.028885,0.43873596,-0.65159607,-0.95562744,0.40673828,2.704157,-0.48820305,1.7041903
1570726860,1.0630188,-13.16272,0.3501587,-0.19673157,0.3322754,0.547348,2.1552873,-2.3156624,1.8430097
1570726860,1.3132172,-13.16272,0.3501587,-0.19673157,0.3322754,0.547348,2.1552873,-2.3156624,1.8430097
1570726860,5.3306885,-16.410461,0.41539,-0.25106812,1.0555878,0.45040894,4.2939577,-4.101613,1.9073746
1570726860,2.182907,-17.261597,6.75943,0.06639099,0.83187866,-0.09713745,5.737397,-5.985302,5.6365013
1570726860,-4.066559,-14.094666,4.115631,1.4171448,1.9386902,-0.26971436,-2.929216,-3.5271454,4.789128
1570726860,-4.066559,-14.094666,4.115631,1.4171448,1.9386902,-0.26971436,-2.929216,-3.5271454,4.789128
1570726860,-4.3412933,-13.873199,3.277069,2.730606,1.3964691,0.6847687,-3.32047,-2.8592482,3.9735098
1570726860,-4.8644257,-14.672867,-1.5861511,3.4187775,-0.12579346,1.1577454,-3.6577377,-3.7313395,-1.1171806
1570726860,-1.7800903,-13.875595,-2.221222,2.7189026,-2.5471344,0.42697144,-0.1196686,-3.3313684,-4.267174
1570726860,1.5675964,-10.722427,0.5680237,1.7175446,-1.3604279,-0.04600525,2.2300038,-0.47128582,-3.0899575
1570726860,1.5675964,-10.722427,0.5680237,1.7175446,-1.3604279,-0.04600525,2.2300038,-0.47128582,-3.0899575
1570726860,8.750809,-10.1609955,1.0085602,1.1305847,-1.9154358,-1.349884,8.597407,0.35997868,-3.9092205
1570726860,1.146225,-10.315414,8.100784,2.1660156,-0.2930298,-1.4510803,2.620229,-0.39480782,2.9240336
1570726860,0.23522949,-9.595963,0.8648987,2.7156982,1.2068634,-1.6779938,0.52199584,0.14355373,-3.7326412
1570726860,-0.7068939,-7.41066,1.1049194,2.0914612,1.5168457,-1.6641388,-1.0930907,1.7147694,-5.0158052
1570726861,-1.0905609,-5.6790466,0.85113525,1.7356567,1.9078064,-1.4105988,-1.5925736,2.723919,-5.8661165
1570726861,-1.0905609,-5.6790466,0.85113525,1.7356567,1.9078064,-1.4105988,-1.5925736,2.723919,-5.8661165
1570726861,-1.7298126,-3.5476074,-0.6428375,1.1625366,2.1666565,-0.85240173,-1.9998448,4.2456827,-7.9372034
1570726861,-3.0208893,-2.700653,1.7268219,-1.0063324,0.74453735,-0.4060669,-2.842335,5.4397287,-6.2707086
1570726861,-3.2220001,-3.3548737,2.7814636,-1.5219269,0.26516724,-0.22283936,-3.228961,5.22526,-4.801699
1570726861,-2.9819794,-11.1180725,4.9009247,-2.2303162,-1.029129,-0.17170715,-2.5836186,-0.6515236,-1.9317341
1570726861,-4.266464,-17.538727,-1.8812408,-2.9781342,-1.3529663,0.73057556,-4.868482,-7.735469,-6.457
1570726861,-2.2750854,-19.612701,7.8362274,-2.5722656,-2.7261047,1.1151428,-2.6524189,-9.545665,-0.082187176
1570726861,-0.31962585,-10.8732605,2.8802185,-1.8233948,-1.4499054,0.89782715,-0.76014376,-1.9764233,-0.6396637
1570726861,0.029327393,-9.17099,1.2300262,-2.0886383,-1.4978485,0.99263,-0.29596165,0.89767265,-2.2215557
1570726861,-1.0995331,-11.3311615,0.26515198,-2.4252625,-1.5106354,1.5614777,-1.1002226,-0.73089695,-2.5125012
1570726861,-0.24780273,-14.080307,3.8271332,-2.0396423,-1.1207428,1.6807861,-0.68050253,-2.4198532,-0.6199653
1570726861,2.0284882,-12.427109,2.3930054,-0.79966736,2.3892975,0.93084717,3.0523787,-2.6659994,0.93686855
1570726861,2.2343903,-10.204681,1.9883881,-0.8763733,2.1059418,0.63256836,3.6780128,-0.055768013,0.24845254
1570726861,1.6101074,-9.25119,1.8177948,-0.81352234,1.7544098,0.4131317,3.397882,0.9224243,0.6238637
1570726861,0.85173035,-9.534317,2.119461,-0.46411133,1.7416229,-0.054519653,1.9963872,0.8919468,1.9197594
1570726861,1.0067596,-9.546875,1.8309631,-0.43215942,1.7725067,-0.049194336,2.351142,1.0268402,1.6002456
1570726861,5.1002502,-7.954132,-6.865967,-1.3621368,-1.1963806,-0.9141998,5.6897707,2.4763737,-6.4800053
1570726861,5.1002502,-7.954132,-6.865967,-1.3621368,-1.1963806,-0.9141998,5.6897707,2.4763737,-6.4800053
1570726861,-10.5728,-12.567764,9.695923,-1.4473572,-1.3231506,-1.0398865,-9.158663,-1.7854376,10.365381
1570726861,-10.5728,-12.567764,9.695923,-1.4473572,-1.3231506,-1.0398865,-9.158663,-1.7854376,10.365381
1570726861,1.0109558,-10.322006,-1.6513977,-0.4353485,0.14904785,0.53456116,0.22240311,0.22733498,0.9129592
1570726861,1.324585,-11.007935,-0.5386963,-0.63882446,0.03187561,0.47598267,2.0331717,-0.3503723,0.2833631
1570726861,-0.49021912,-13.914505,-0.9505005,-0.5280304,-0.27705383,0.53456116,0.47773212,-2.5828543,0.29541492
1570726861,-0.49021912,-13.914505,-0.9505005,-0.5280304,-0.27705383,0.53456116,0.47773212,-2.5828543,0.29541492
1570726861,0.5464783,-15.557526,3.0957031,-0.3522644,0.49632263,0.026443481,2.7040496,-5.2299166,3.816476
1570726861,0.5464783,-15.557526,3.0957031,-0.3522644,0.49632263,0.026443481,2.7040496,-5.2299166,3.816476
1570726861,-0.36332703,-13.966568,1.6268616,1.0144653,1.3634491,0.41845703,0.49164057,-3.5756092,3.9576488
1570726861,-0.83018494,-11.468826,1.6549988,1.1763916,1.3836975,0.44615173,0.46680093,-0.83809185,2.8367043
1570726861,-0.83018494,-11.468826,1.6549988,1.1763916,1.3836975,0.44615173,0.46680093,-0.83809185,2.8367043
1570726861,-0.53330994,-12.557587,3.218399,1.7558899,1.1333618,0.44721985,0.5349146,-1.7283192,3.6675754
1570726861,1.8118134,-12.012909,2.747345,2.2128906,1.0854187,0.4152527,2.5604892,-1.7144098,3.3185275
1570726861,2.7545319,-11.307816,-0.80145264,2.170288,0.24066162,0.2160492,4.117487,-0.9859562,-1.0655997
1570726862,-0.23703003,-9.340378,-0.1945343,1.899704,0.46969604,0.20327759,1.539181,1.059969,-1.9226353
1570726862,-0.23703003,-9.340378,-0.1945343,1.899704,0.46969604,0.20327759,1.539181,1.059969,-1.9226353
1570726862,-0.76075745,-8.995621,-1.2485809,1.5545654,1.0673065,0.10420227,1.002919,1.2644844,-3.283625
1570726862,-0.03591919,-7.213135,-3.0777435,1.0176697,0.57621765,8.69751E-4,1.6753813,2.9414444,-5.6458073
1570726862,2.6318207,-8.966278,2.3684692,-0.3373413,1.582901,-0.44866943,4.0819654,1.4844837,-0.9708681
1570726862,2.6318207,-8.966278,2.3684692,-0.3373413,1.582901,-0.44866943,4.0819654,1.4844837,-0.9708681
1570726862,3.4674072,-10.151413,3.071167,0.047210693,0.3322754,-1.0910339,5.093506,0.24104118,0.2839861
1570726862,-1.1426392,-9.873688,1.3461456,0.86001587,1.2249756,-1.0366974,0.14784443,0.31572723,-1.2035012
1570726862,-1.2503662,-8.812454,-0.24899292,0.5713196,1.522171,-0.8694458,-0.30939722,1.4338989,-3.5468864
1570726862,-1.4449005,-8.812454,-0.24899292,0.5713196,1.522171,-0.8694458,-0.30939722,1.4338989,-3.5468864
1570726862,-3.0903168,-8.289322,1.5879517,0.15161133,1.3836975,-0.6894226,-2.1493716,1.7962036,-1.6228755
1570726862,-3.0903168,-8.289322,1.5879517,0.15161133,1.3836975,-0.6894226,-2.1493716,1.7962036,-1.6228755
1570726862,-1.3090363,-7.744644,1.7405853,-0.51312256,1.615921,-0.43162537,-0.8978833,2.5312614,-1.0911226
1570726862,-1.1091156,-7.7967224,1.7992401,-0.5472107,1.5637207,-0.42736816,-0.8978833,2.5312614,-1.0911226
1570726862,2.810196,-14.274231,9.266754,-0.2808838,1.8907623,0.27145386,2.6294541,-4.00504,6.543969
1570726862,2.810196,-14.274231,9.266754,-0.2808838,1.8907623,0.27145386,2.6294541,-4.00504,6.543969
1570726862,0.21368408,-9.772537,2.9400787,0.19848633,1.3591919,-0.24414062,1.7686343,0.25461578,0.90521264
1570726862,0.21368408,-9.772537,2.9400787,0.19848633,1.3591919,-0.24414062,1.7686343,0.25461578,0.90521264
1570726862,-6.143524,-13.89595,-2.3612823,-0.67396545,0.31204224,0.55055237,-4.787894,-2.9892597,-3.8438604
1570726862,-6.143524,-13.89595,-2.3612823,-0.67396545,0.31204224,0.55055237,-4.787894,-2.9892597,-3.8438604
1570726862,-3.0119019,-14.3280945,4.689041,-0.35438538,-1.2720184,1.1705322,-3.0370803,-6.341304,0.43711615
1570726862,-2.4911652,-6.305725,-0.2747345,-0.0017852783,-0.15242004,0.17770386,-0.7458484,3.771037,-1.6921746
1570726862,-2.537262,-6.296753,-0.38786316,0.045074463,-0.25682068,0.20965576,-0.74674606,3.9862032,-2.1559815
1570726862,-2.6228485,-8.32225,-0.2855072,0.5670624,-1.1569672,0.55374146,-0.8537749,2.3356676,-2.5054193
1570726862,-0.9032135,-11.808197,0.8230133,0.98677063,0.054244995,0.56759644,1.0551536,-1.5464811,-1.8289025
1570726862,1.7423859,-10.2842865,-0.93434143,-0.4768982,3.8796082,0.05307007,4.1603036,-0.23896122,-2.7415226
1570726862,1.7423859,-10.2842865,-0.93434143,-0.4768982,3.8796082,0.05307007,4.1603036,-0.23896122,-2.7415226
1570726862,1.5400696,-11.098923,-0.8816681,-1.4409637,3.6324615,-0.44441223,4.3091407,-0.92656136,-2.5409248
1570726862,0.92715454,-10.4105835,1.4706421,-1.9437714,0.5623779,-0.5871582,3.4314609,0.09432316,0.912701
1570726862,0.9002228,-10.439911,1.6591797,-1.8457642,0.42175293,-0.57650757,3.4314609,0.09432316,0.912701
1570726862,0.6434479,-9.5564575,2.1703491,-1.0425568,-0.26533508,-0.87797546,3.1859562,0.58919144,2.7030132
1570726862,-0.54289246,-9.7222595,1.7322083,-0.9466858,-0.42832947,-1.0196533,1.8391733,0.7858763,2.190565
1570726862,-1.7507629,-10.785873,2.000351,-0.8582611,-0.09275818,-0.79382324,0.16956437,-0.09839249,2.73137
1570726862,-1.2234344,-10.010162,1.4796143,-0.2073822,0.39831543,-0.26332092,0.17135644,0.3055334,2.5077844
1570726863,-0.87867737,-10.433929,0.4046173,0.26345825,0.48780823,-0.07369995,0.48475564,0.19106293,1.7160001
1570726863,-1.7776947,-10.756546,-2.4797974,0.022705078,0.040390015,-0.07902527,-0.2238599,-0.31015205,-1.4242687
1570726863,-1.9381104,-10.934326,-1.6783295,-0.6761017,-0.76493835,-0.028961182,-0.5069804,-0.40692902,-0.8946464
1570726863,-1.6226654,-11.103104,0.18435669,-0.96266174,-0.8874512,-0.011917114,-0.2568562,-0.6653948,1.0215197
1570726863,-0.46148682,-10.923538,2.309204,-0.6271057,0.112838745,0.058395386,0.8980833,-0.39202213,3.4897356
1570726863,0.5823822,-11.247955,2.1481934,-0.45132446,2.315796,0.2160492,1.8566799,-0.8905611,4.0855365
1570726863,0.66319275,-11.997345,0.19812012,-0.43215942,3.4343262,0.34068298,1.8994141,-1.731678,2.077142
1570726863,2.6198578,-15.992065,4.371216,-0.54400635,3.0071564,1.0299225,3.2997727,-5.6983995,5.8432455
1570726863,6.70018,-14.895523,5.027817,2.6560516,1.629776,0.7167206,8.300322,-4.6382933,7.647519
1570726863,6.70018,-14.895523,5.027817,2.6560516,1.629776,0.7167206,8.300322,-4.6382933,7.647519
1570726863,3.447052,-11.000763,-0.16340637,3.412384,2.4329834,0.27464294,5.103078,-0.62157536,0.22691418
1570726863,2.9897614,-10.137054,-1.1887207,3.2760315,2.4990234,0.19688416,4.6659603,0.20801163,-0.8409138
1570726863,-2.6336212,-14.533997,-7.408264,1.9913177,-0.033111572,0.65493774,-1.1634487,-3.7753801,-8.783483
1570726863,2.4714203,-14.5334015,3.6026764,1.6152802,0.56663513,0.1063385,3.4354823,-3.7186775,-0.046123266
1570726863,6.025009,-14.835678,5.676651,2.012619,4.2226257,0.07862854,7.359763,-4.508809,4.081083
1570726863,11.968613,-12.173325,-5.7335205,1.7473755,1.6244354,-1.0185852,14.133664,-2.0203028,-8.867956
1570726863,10.151413,-12.238556,-3.502121,1.3947754,0.8808899,-1.5096741,12.500834,-2.0262175,-7.1599216
1570726863,2.592926,-15.917252,4.4885254,1.9433899,2.0047455,-2.0220642,4.272442,-5.147236,-0.53816867
1570726863,-0.07122803,-14.080902,-1.5406647,3.4081268,4.910782,-1.7429657,0.77435815,-4.3310375,-5.548358
1570726863,-0.7003021,-13.337494,-1.7633362,2.7881317,3.8742828,-1.8537598,0.48637104,-3.8271685,-6.623338
1570726863,-1.7339935,-12.841293,0.95648193,2.1585693,2.5757294,-1.9474945,-0.6171173,-3.6835928,-4.7714148
1570726863,-1.9518738,-11.595718,2.7168274,2.1074371,2.622589,-1.9144745,-1.1105754,-2.81349,-3.2599635
1570726863,-0.47105408,-8.910019,1.2342072,2.2267456,3.513153,-1.6801147,0.36192346,-0.56393623,-5.045753
1570726863,-1.5358734,-5.269043,2.443283,1.7090302,3.1168823,-1.429779,0.28550088,2.2489357,-5.334263
1570726863,-1.5358734,-5.269043,2.443283,1.7090302,3.1168823,-1.429779,0.28550088,2.2489357,-5.334263
1570726863,-0.9917908,-3.7050323,3.3429108,0.96440125,2.8771973,-1.2976837,0.7768115,4.1045065,-3.9196396
1570726863,0.5817871,-4.201828,4.0150757,0.23576355,2.3925018,-1.363739,2.377805,3.6495762,-3.0402222
1570726863,-4.5597534,-3.0328522,-0.43693542,-1.3866272,0.42070007,-1.1506805,-1.9327152,5.1163073,-7.519286
1570726863,-3.4189148,-6.4044952,6.1572876,-1.5070038,-0.6328583,-1.0153961,-2.5137005,2.8138008,-1.4533911
1570726863,-5.1726685,-14.416092,2.3277588,-2.5946503,-1.5244751,-0.9866333,-3.2553463,-3.1901665,-5.4399
1570726863,-3.7984009,-9.283524,4.489731,-1.9043579,-2.2286224,0.6112671,-3.7036479,-0.9726505,1.4266562
1570726863,-3.601471,-8.987228,3.7451324,-1.8777161,-2.2094421,0.6134033,-3.7036479,-0.9726505,1.4266562
1570726863,-3.6619263,-9.380478,0.11192322,-2.0769196,-2.650467,1.451767,-3.2189891,0.5224428,-4.070485
1570726864,-1.8195953,-10.8684845,0.2741394,-2.1195374,-0.8416443,1.7649536,-1.2754472,-0.6884041,-2.5666502
1570726864,-1.8195953,-10.8684845,0.2741394,-2.1195374,-0.8416443,1.7649536,-1.2754472,-0.6884041,-2.5666502
1570726864,8.627502,-16.241074,8.960297,-0.71232605,0.39193726,0.8679962,9.977978,-7.6085987,6.208694
1570726864,8.627502,-16.241074,8.960297,-0.71232605,0.39193726,0.8679962,9.977978,-7.6085987,6.208694
1570726864,3.667923,-10.035889,4.292801,-0.41618347,1.8960876,0.6134033,5.852307,-0.23675442,3.331268
1570726864,1.5688019,-8.091797,1.1959076,-0.34906006,2.3584137,-0.026824951,3.6674724,2.2448168,-0.843431
1570726864,2.6336212,-9.7348175,-1.3802643,-0.5472107,2.3285828,-0.4348297,4.421424,0.5459204,-1.681198
1570726864,2.857483,-9.874878,-2.8353271,-0.7826233,1.5871582,-0.7884979,4.9909244,0.6476917,-3.0314696
1570726864,0.8625183,-12.203842,-2.323578,-1.7626648,-2.1007843,-1.379715,3.1481025,-0.9277296,-3.8627546
1570726864,-2.3989868,-11.787247,8.866928,-2.2963715,-1.2560272,-1.0409546,-0.9106506,-1.9795599,6.554431
1570726864,-1.1564026,-9.2200775,-0.5027771,-0.9615936,-0.30262756,0.09780884,-1.9464207,1.278058,-0.7026212
1570726864,-1.1564026,-9.2200775,-0.5027771,-0.9615936,-0.30262756,0.09780884,-1.9464207,1.278058,-0.7026212
1570726864,0.6201019,-11.209656,0.12150574,-1.0691833,0.7072449,0.09994507,1.775211,-0.25319862,1.0624453
1570726864,0.1592102,-10.975616,1.0253143,-0.7037964,-0.016067505,0.3428192,0.8212763,-0.71032333,2.269205
1570726864,0.42138672,-10.639832,0.1951294,-0.45559692,-0.009674072,0.5430908,1.384829,-0.051362038,1.6268517
1570726864,0.9283447,-12.210434,-0.3040619,-0.34906006,0.57728577,0.4940796,1.8517988,-1.4430847,1.4817965
1570726864,2.1529846,-12.998123,-1.8177948,-0.4534607,0.8116455,0.33216858,3.0806456,-2.3822308,-0.019881606
1570726864,-2.1703491,-17.709915,4.5172577,0.8972931,1.8918304,0.14147949,-1.3606077,-7.428158,6.886795
1570726864,-2.1703491,-17.709915,4.5172577,0.8972931,1.8918304,0.14147949,-1.3606077,-7.428158,6.886795
1570726864,-1.7956543,-13.514664,5.5802917,1.8571014,2.5416412,0.37051392,-0.8872832,-2.9936152,6.2043104
1570726864,-1.7956543,-13.514664,5.5802917,1.8571014,2.5416412,0.37051392,-0.8872832,-2.9936152,6.2043104
1570726864,-4.2784424,-14.639938,-1.2689209,4.0068054,-0.9119568,1.2770538,-2.9169564,-4.833315,1.1502128
1570726864,-0.9067993,-12.861649,-0.2059021,2.1415253,-2.999878,-0.26437378,1.1019639,-2.2368536,-2.4925795
1570726864,-0.9067993,-12.861649,-0.2059021,2.1415253,-2.999878,-0.26437378,1.1019639,-2.2368536,-2.4925795
1570726864,6.1722565,-9.798264,-2.3983917,1.6600189,-0.49223328,-0.97384644,7.442584,0.73466015,-6.990327
1570726864,6.1722565,-9.798264,-2.3983917,1.6600189,-0.49223328,-0.97384644,7.442584,0.73466015,-6.990327
1570726864,3.2842407,-11.138428,3.3961792,2.4238129,0.9426727,-1.8590851,4.3504057,-0.86250305,-1.4839973
1570726864,0.010772705,-8.192352,1.2264252,2.4792175,2.1762543,-1.5799866,0.018855065,0.7606392,-4.0241055
1570726864,0.010772705,-8.192352,1.2264252,2.4792175,2.1762543,-1.5799866,0.018855065,0.7606392,-4.0241055
1570726864,-1.5424652,-6.937805,1.3658905,1.8006439,1.8939514,-1.252945,-1.250537,1.4970627,-5.4830894
1570726864,-1.5424652,-6.937805,1.3658905,1.8006439,1.8939514,-1.252945,-1.250537,1.4970627,-5.4830894
1570726864,-1.8543091,-6.412277,2.771881,1.7026367,2.0058136,-1.2177887,-1.9756583,1.6733761,-4.3221917
1570726864,-2.1685486,-5.0589447,2.059021,1.2221985,1.6915588,-1.0739746,-1.7961617,2.8336549,-4.8580403
1570726864,-2.1296387,-5.341461,2.64859,0.16012573,0.8904724,-0.9440155,-1.9144008,2.255414,-4.9783435
1570726865,-2.0338745,-5.0828857,2.6773224,-0.4310913,0.49420166,-0.90353394,-1.8273455,2.5025196,-4.802571
1570726865,-1.6771393,-4.786606,4.048004,-1.2438812,-0.13963318,-0.69688416,-1.7127609,3.1530156,-3.7993608
1570726865,1.0031738,-15.0828705,19.19072,-1.1480103,-0.820343,0.114852905,-0.009101257,-5.5420284,13.039954
1570726865,1.2515717,-15.677826,6.909073,-1.333374,-0.29623413,0.07757568,1.7851706,-7.397952,5.1892366
1570726865,-4.340683,-12.214615,4.776428,-1.8042145,-1.4030457,0.93084717,-4.7148757,-4.178096,0.40495348
1570726865,-2.3265686,-7.1598663,2.637207,-2.213272,-1.6224823,0.80940247,-2.5431392,2.0944252,-2.295918
1570726865,-0.8571167,-9.6510315,1.367096,-2.8684235,-2.272293,0.61872864,-1.0766,0.6986475,-2.285812
1570726865,-0.4159851,-12.015305,0.3250122,-2.9813385,-2.92424,0.67837524,-0.68120885,-0.90287685,-3.3396301
1570726865,-1.4532776,-14.462173,2.545044,-2.8353882,-2.4225006,1.2834473,-1.5371256,-4.571946,0.21570563
1570726865,-0.5458832,-10.722427,3.075348,-1.5197906,-1.09198,1.7127533,-0.40811425,0.48757744,0.6028547
1570726865,-0.5458832,-10.722427,3.075348,-1.5197906,-1.09198,1.7127533,-0.40811425,0.48757744,0.6028547
1570726865,2.5462341,-12.0961,3.925293,-0.79115295,3.0902405,1.088501,3.62747,-2.0607796,2.7093532
1570726865,2.5462341,-12.0961,3.925293,-0.79115295,3.0902405,1.088501,3.62747,-2.0607796,2.7093532
1570726865,3.9282837,-9.048294,1.4311371,-0.5237732,2.2028809,0.12657166,5.9374876,1.4578018,1.0066112
1570726865,3.9282837,-9.048294,1.4311371,-0.5237732,2.2028809,0.12657166,5.9374876,1.4578018,1.0066112
1570726865,5.747284,-8.526947,-2.6222534,-1.9363098,-2.749527,-1.6151428,7.6736355,2.2973118,-3.6332622
1570726865,5.095459,-8.753204,-1.4437103,-2.0311127,-2.8699036,-1.6790466,7.2683115,2.147359,-2.5464392
1570726865,-8.863342,-14.513046,4.8715973,-1.4984894,-1.8824158,-1.20607,-7.0925407,-3.6470537,5.2108
1570726865,-9.46608,-14.513046,4.8715973,-1.4984894,-1.8824158,-1.20607,-7.0925407,-3.6470537,5.2108
1570726865,1.0965424,-10.494385,-0.4920044,-0.34268188,0.25238037,0.47491455,-1.2955796,-0.537694,3.0170245
1570726865,1.0965424,-10.494385,-0.4920044,-0.34268188,0.25238037,0.47491455,-1.2955796,-0.537694,3.0170245
1570726865,0.4189911,-12.266693,0.07720947,-0.49713135,-0.58810425,0.3417511,1.4695586,-1.3923092,1.259311
1570726865,0.5123596,-14.19342,1.869873,0.07383728,0.7136383,0.5335083,0.83864534,-3.3784466,3.3133316
1570726865,0.6500244,-14.29039,1.9865875,0.09941101,0.7541199,0.52072144,1.3245736,-3.6346035,3.6926062
1570726865,-0.18614197,-14.838058,2.8706512,1.2637482,0.92562866,-0.06517029,0.9051781,-4.4662485,4.5707707
1570726865,-0.32859802,-14.708771,2.739563,1.2903748,0.92562866,-0.08860779,0.9051781,-4.4662485,4.5707707
1570726865,-3.5919037,-13.482941,5.659897,2.2342072,0.73921204,0.305542,-2.7800717,-2.6311007,5.6553617
1570726865,-3.5919037,-13.482941,5.659897,2.2342072,0.73921204,0.305542,-2.7800717,-2.6311007,5.6553617
1570726865,-4.027054,-15.063721,3.5128937,3.3687134,-0.28131104,0.6251221,-2.988419,-4.191822,4.027294
1570726865,-1.4610596,-11.343124,-0.6093292,2.3854675,-2.190277,0.19581604,-0.96066344,-1.6427641,-1.4404685
1570726865,-0.8708954,-11.225815,-0.3722992,2.2512512,-1.4967804,0.039215088,-0.020908237,-0.7311897,-2.7514703
1570726865,4.933258,-10.634445,1.6747437,1.9785309,-1.8621674,-0.88116455,6.496808,0.06154728,-2.476757
1570726866,1.5544281,-11.200668,5.1846466,2.29599,0.112838745,-1.2582703,1.8817226,-1.4494915,0.11851835
1570726866,1.5544281,-11.200668,5.1846466,2.29599,0.112838745,-1.2582703,1.8817226,-1.4494915,0.11851835
1570726866,0.6404419,-8.194153,0.7912903,2.1873322,1.4358978,-1.5533447,0.3041479,0.64585686,-2.9276638
1570726866,0.6404419,-8.194153,0.7912903,2.1873322,1.4358978,-1.5533447,0.3041479,0.64585686,-2.9276638
1570726866,-2.5552063,-5.2552795,1.8351593,1.787857,1.9450836,-0.9844971,-3.0582628,2.7959738,-5.263405
1570726866,-2.5552063,-5.2552795,1.8351593,1.787857,1.9450836,-0.9844971,-3.0582628,2.7959738,-5.263405
1570726866,-2.127243,-2.5468292,0.0861969,0.30393982,1.3634491,-0.29101562,-2.0467577,5.092887,-6.9494247
1570726866,-2.1212616,-2.4456787,-0.06703186,0.20700073,1.3038025,-0.29101562,-1.9350368,5.2110505,-7.1512337
1570726866,-2.5480347,-4.577118,8.051697,-2.080124,-0.68078613,-0.18661499,-3.156434,4.5430202,-1.5002179
1570726866,-1.6807251,-6.8671722,10.135254,-2.0875702,-0.8970337,-0.16105652,-2.5266035,3.8341389,0.8496065
1570726866,-1.7926636,-15.604813,2.7844543,-2.9706879,-1.7386017,0.5931549,-2.0069351,-6.1847095,-5.290574
1570726866,-1.7926636,-15.604813,2.7844543,-2.9706879,-1.7386017,0.5931549,-2.0069351,-6.1847095,-5.290574
1570726866,-1.956665,-11.673523,4.020462,-2.0524292,-2.09227,0.9276428,-2.1171649,-2.249277,-0.4607563
1570726866,-2.0494385,-11.440689,4.3574524,-2.0428314,-2.093338,0.9414978,-2.1171649,-2.249277,-0.4607563
1570726866,-2.6898804,-10.882843,0.23703003,-2.16214,-2.413971,2.0003662,-2.6300824,-0.8362446,-2.0966763
1570726866,-2.6898804,-10.882843,0.23703003,-2.16214,-2.413971,2.0003662,-2.6300824,-0.8362446,-2.0966763
1570726866,-0.022750854,-15.889725,3.7858276,-0.37356567,0.7040558,1.1076813,2.2161813,-5.5573673,5.120525
1570726866,1.1558075,-15.428833,1.1420288,-0.73043823,2.536316,1.0959625,1.7228594,-5.251871,-0.47557926
1570726866,3.3315277,-11.337738,2.2086487,-1.3450928,1.7309723,0.7050171,5.0429616,-1.0537872,0.5622311
1570726866,3.3315277,-11.337738,2.2086487,-1.3450928,1.7309723,0.7050171,5.0429616,-1.0537872,0.5622311
1570726866,2.5599976,-9.744995,-0.7003021,-0.761322,0.81910706,-0.615921,4.086505,0.5450945,-0.1842359
1570726866,2.5599976,-9.744995,-0.7003021,-0.761322,0.81910706,-0.615921,4.086505,0.5450945,-0.1842359
1570726866,2.818573,-8.746017,-3.265091,-0.99568176,-0.79904175,-1.2848969,4.41101,1.890377,-2.737766
1570726866,-7.102997,-11.581955,6.703766,-1.9107513,-3.0179749,-1.6769257,-5.2175093,-0.7692623,7.6167107
1570726866,-7.102997,-11.581955,6.703766,-1.9107513,-3.0179749,-1.6769257,-5.2175093,-0.7692623,7.6167107
1570726866,1.4532776,-10.975021,0.063446045,-0.4864807,0.8915405,0.58569336,1.3031892,-0.4119444,1.9811556
1570726866,1.8465271,-10.945694,0.046081543,-0.52589417,0.95332336,0.57185364,1.3031892,-0.4119444,1.9811556
1570726866,2.8532867,-11.631027,1.8728638,-0.41085815,0.15969849,0.5335083,3.3536067,-1.0519028,3.5456424
1570726866,1.3114166,-13.907318,1.0815735,-0.18289185,0.0393219,0.32258606,2.3097546,-3.0957766,3.0299568
1570726866,1.8453369,-15.975311,3.8947601,0.51911926,0.8169708,0.24694824,2.7995715,-5.6286306,5.92814
1570726866,1.8453369,-15.975311,3.8947601,0.51911926,0.8169708,0.24694824,2.7995715,-5.6286306,5.92814
1570726866,0.3818817,-13.234543,1.5640106,1.0975647,0.47288513,-0.3549347,1.8863215,-3.6294365,3.5313272
1570726866,-2.6473846,-12.415726,1.1629791,1.2562866,0.2587738,-0.49661255,-1.1054443,-1.8453312,2.4600208
1570726866,-4.4370575,-12.819153,2.4576416,1.8357849,1.2984772,0.17877197,-3.563985,-2.0313053,3.5540485
1570726866,-4.2389374,-13.200424,3.5823212,2.3673553,1.2239075,0.5420227,-3.6516945,-2.011549,3.0955367
1570726867,1.1025238,-12.853867,-0.8158264,2.2224884,-1.9228821,0.08395386,1.2184004,-2.594386,-3.7572212
1570726867,1.1025238,-12.853867,-0.8158264,2.2224884,-1.9228821,0.08395386,1.2184004,-2.594386,-3.7572212
1570726867,3.0879211,-11.486176,0.7691345,2.1756134,-0.6253967,-0.744812,4.532983,-0.70354176,-3.2457666
1570726867,3.0879211,-11.486176,0.7691345,2.1756134,-0.6253967,-0.744812,4.532983,-0.70354176,-3.2457666
1570726867,1.2826996,-11.138428,3.8678284,2.616623,-0.34204102,-0.81726074,2.0533435,-1.4664488,-0.03321266
1570726867,0.57580566,-9.970657,1.8944092,2.821167,0.9330902,-1.0643921,0.75075924,-0.4455719,-2.5448952
1570726867,-0.11431885,-8.907623,2.4534607,2.120224,1.1312256,-1.4894409,-0.38512853,0.0915041,-3.9783487
1570726867,-0.11431885,-8.907623,2.4534607,2.120224,1.1312256,-1.4894409,-0.38512853,0.0915041,-3.9783487
1570726867,-0.80384827,-6.2392883,1.8124084,1.8911896,1.3975372,-1.303009,-1.3916268,1.5495167,-4.8690667
1570726867,-0.91218567,-3.9270935,0.27653503,1.6344604,2.2167358,-0.70539856,-1.3196193,3.8995876,-6.210086
1570726867,-1.3634949,-2.7192078,0.1885376,0.81100464,1.7139282,-0.37197876,-1.3261286,5.0408435,-7.2245374
1570726867,-3.925293,-3.7810364,4.5759125,-2.0598755,-0.37612915,0.005126953,-3.2931805,4.9505854,-4.060168
1570726867,-3.9905396,-4.1449585,5.5282135,-2.1110077,-0.4901123,0.046676636,-3.5854464,4.5482388,-2.5548606
1570726867,-0.95588684,-16.448166,18.63826,-1.269455,-0.81181335,-0.093933105,-2.350679,-5.651227,13.307638
1570726867,-2.767105,-15.051147,4.339493,-2.0460358,-2.0879974,0.93084717,-2.4994686,-7.3672085,-0.69423676
1570726867,-2.767105,-15.051147,4.339493,-2.0460358,-2.0879974,0.93084717,-2.4994686,-7.3672085,-0.69423676
1570726867,-0.79248047,-7.059906,0.37409973,-2.1653442,-2.2169037,0.7976837,-0.836129,2.1009836,-3.9806757
1570726867,-1.4682465,-9.937729,1.9764099,-2.781067,-2.7655182,1.0576172,-1.462376,0.59209824,-1.6262274
1570726867,-0.27653503,-14.387955,2.443283,-2.4273987,-2.0038452,1.550827,-0.33331403,-3.473731,-0.46772933
1570726867,-0.27653503,-14.387955,2.443283,-2.4273987,-2.0038452,1.550827,-0.33331403,-3.473731,-0.46772933
1570726867,1.7142487,-14.329895,4.1293945,-0.6633148,0.7306824,1.1556091,1.5502689,-4.750744,1.8287945
1570726867,3.3267365,-11.0863495,4.099472,-0.9413605,1.904602,1.0341797,4.38007,-0.9137802,2.7208877
1570726867,2.6318207,-9.613922,2.7509308,-0.9083252,2.347763,0.7604065,4.3454924,0.8805227,1.830456
1570726867,1.9051819,-8.945343,2.178131,-0.74534607,1.9056702,0.28849792,3.811935,1.7139635,1.4652652
1570726867,3.1723175,-9.598953,-0.7158661,-0.69421387,0.7040558,-0.47850037,4.54576,0.916872,-0.9202413
1570726867,3.1723175,-9.598953,-0.7158661,-0.69421387,0.7040558,-0.47850037,4.54576,0.916872,-0.9202413
1570726867,3.5164795,-9.271545,-3.3746338,-1.0180511,-0.87786865,-0.82577515,4.6958714,1.0740385,-2.6776314
1570726867,-7.0886383,-13.493118,6.3631897,-1.8777161,-1.9644318,-1.4468231,-4.433147,-2.5471745,7.2381587
1570726867,-7.0886383,-13.493118,6.3631897,-1.8777161,-1.9644318,-1.4468231,-4.433147,-2.5471745,7.2381587
1570726867,0.23703003,-10.601532,-2.6336212,-0.33096313,0.8404083,0.5825043,0.10685289,0.3011093,-0.3781296
1570726867,0.7404022,-10.743973,-2.810196,-0.33096313,0.8404083,0.5825043,0.10685289,0.3011093,-0.3781296
1570726867,1.0343018,-12.661743,0.59495544,-0.64201355,1.2356262,0.55055237,1.5623014,-1.8236408,1.5321242
1570726867,2.225418,-13.136383,1.5448608,-0.21377563,1.1024628,0.60913086,2.3025484,-2.682125,3.5288715
1570726868,0.34596252,-15.467743,7.349594,0.40194702,0.881958,0.100997925,1.0631061,-5.327324,8.34192
1570726868,0.34596252,-15.467743,7.349594,0.40194702,0.881958,0.100997925,1.0631061,-5.327324,8.34192
1570726868,-3.1950684,-12.495346,0.79248047,2.3556366,-0.1449585,-0.053451538,-2.3577008,-1.877059,1.3380172
1570726868,-3.2938232,-12.425308,0.8421631,2.3226166,-0.15242004,-0.04386902,-2.3577008,-1.877059,1.3380172
1570726868,-0.86190796,-12.929291,3.6457672,2.4845428,1.48703,0.49621582,-0.85105366,-2.1121473,3.9459298
1570726868,-0.86190796,-12.929291,3.6457672,2.4845428,1.48703,0.49621582,-0.85105366,-2.1121473,3.9459298
1570726868,0.1478424,-11.832138,-3.8989563,2.1979828,-1.8632355,0.049865723,1.3847914,-1.4477167,-6.156703
1570726868,3.683487,-9.843765,1.7800903,1.6983795,-0.42619324,-0.42204285,3.2058,0.71326923,-2.2067568
1570726868,3.683487,-9.843765,1.7800903,1.6983795,-0.42619324,-0.42204285,3.2058,0.71326923,-2.2067568
1570726868,0.40582275,-10.329788,-1.8465271,3.2898712,1.6042023,-0.6691742,0.535815,-0.8132553,-6.2952724
1570726868,0.40582275,-10.329788,-1.8465271,3.2898712,1.6042023,-0.6691742,0.535815,-0.8132553,-6.2952724
1570726868,-1.1456299,-8.02417,2.9035645,2.3034363,0.92881775,-1.3530884,-1.6189833,0.8296108,-3.486125
1570726868,-1.1456299,-8.02417,2.9035645,2.3034363,0.92881775,-1.3530884,-1.6189833,0.8296108,-3.486125
1570726868,-0.5303192,-5.841858,1.4796143,2.183075,2.5299225,-0.7022095,-0.44271547,1.5602894,-5.588763
1570726868,-0.5303192,-5.841858,1.4796143,2.183075,2.5299225,-0.7022095,-0.44271547,1.5602894,-5.588763
1570726868,-2.1140747,-2.2541351,0.29447937,0.40940857,1.7128601,-0.26971436,-1.3407918,5.065579,-7.234669
1570726868,-2.1140747,-2.2541351,0.29447937,0.40940857,1.7128601,-0.26971436,-1.3407918,5.065579,-7.234669
1570726868,-2.9113464,-6.8055115,6.289566,-1.9746552,-0.23124695,-0.18981934,-2.2327442,2.19624,-2.246099
1570726868,-2.9113464,-6.8055115,6.289566,-1.9746552,-0.23124695,-0.18981934,-2.2327442,2.19624,-2.246099
1570726868,-4.641754,-15.367783,-0.9283447,-1.7243195,-0.1726532,0.24801636,-4.657669,-8.235373,-6.6253867
1570726868,-4.0264435,-14.768631,-0.05267334,-1.7200623,-0.40701294,0.29701233,-4.1558285,-7.149699,-7.4906816
1570726868,-1.6370392,-7.676407,1.6478119,-2.7874603,-3.3034668,0.547348,-0.89139265,2.3326159,-3.8712697
1570726868,-1.6370392,-7.676407,1.6478119,-2.7874603,-3.3034668,0.547348,-0.89139265,2.3326159,-3.8712697
1570726868,-0.36212158,-16.94017,2.600708,-2.543518,-1.7140961,1.1875763,-0.186531,-7.241826,-0.54311967
1570726868,-0.36212158,-16.94017,2.600708,-2.543518,-1.7140961,1.1875763,-0.186531,-7.241826,-0.54311967
1570726868,1.7220306,-13.102264,2.4139557,-0.808197,-0.13005066,0.74443054,2.3696487,-2.6969461,-0.13987136
1570726868,1.8112183,-13.132202,2.4522552,-0.7975464,-0.020324707,0.73057556,2.3696487,-2.6969461,-0.13987136
1570726868,2.692276,-10.051453,4.226959,-0.904068,2.2476196,0.5601349,4.0256987,0.31743622,2.6401815
1570726868,2.6192627,-10.035889,4.124008,-0.8678436,2.3221893,0.5335083,4.0256987,0.31743622,2.6401815
1570726868,2.1685486,-9.608536,2.8227692,-0.67396545,2.7046204,0.22457886,3.6273787,0.8120556,1.4845434
1570726868,2.2547455,-8.006805,1.036087,-0.5141754,2.0835724,-0.4145813,3.783722,2.5254717,0.17538941
1570726868,2.059616,-10.508743,-0.841568,-0.79008484,-0.73191833,-1.0239105,3.0817056,0.36018848,-1.4581277
1570726868,2.091339,-10.711655,-0.9151764,-0.8039398,-0.92367554,-1.0153961,3.0817056,0.36018848,-1.4581277
1570726869,-1.4520874,-12.302002,7.2915344,-2.1877136,-2.4991913,-1.2614746,0.19431072,-1.6216135,6.9294496
1570726869,-1.8010406,-12.0907135,7.691971,-2.1653442,-2.1636353,-1.223114,-0.9095553,-1.7118616,6.9294496
1570726869,-6.9114685,-11.171341,2.6060944,-0.519516,0.20231628,-0.1131134,-8.116916,-0.6696291,4.0049644
1570726869,-0.12210083,-10.188522,0.6536102,-0.53868103,0.7466583,0.38755798,-1.8386242,0.36707497,1.9401112
1570726869,0.9618683,-10.724228,1.3712769,-0.5344238,-0.2387085,0.22351074,1.0640033,0.006573677,2.5860934
1570726869,0.9618683,-10.724228,1.3712769,-0.5344238,-0.2387085,0.22351074,1.0640033,0.006573677,2.5860934
1570726869,-0.16758728,-10.763733,-0.09277344,-0.5418854,0.22468567,0.35134888,0.10085496,-0.14829731,0.9295776
1570726869,-0.16758728,-10.763733,-0.09277344,-0.5418854,0.22468567,0.35134888,0.10085496,-0.14829731,0.9295776
1570726869,-0.44532776,-12.17511,0.6793518,-0.56318665,0.8627777,0.40885925,-0.14491192,-0.9720526,2.0714626
1570726869,0.1951294,-14.955978,0.9361267,0.12496948,1.2089844,0.114852905,1.157751,-4.608305,3.055597
1570726869,0.10354614,-14.799759,0.6979065,0.16651917,1.3080597,0.1382904,1.157751,-4.608305,3.055597
1570726869,-0.3154297,-14.139557,-1.0007782,0.16972351,1.7480164,0.20007324,0.312689,-3.4275923,0.7750131
1570726869,-1.2880859,-12.694656,1.2354126,0.78756714,0.92137146,0.45466614,-0.7843093,-2.0816727,2.731272
1570726869,-1.2880859,-12.694656,1.2354126,0.78756714,0.92137146,0.45466614,-0.7843093,-2.0816727,2.731272
1570726869,-2.4067688,-11.932709,1.4335327,1.0570831,-0.13856506,0.39076233,-1.5745213,-1.3218079,1.9230722
1570726869,-0.6356659,-10.883438,4.8045654,2.0605621,0.21722412,0.7561493,0.045560837,-0.12445927,5.048744
1570726869,-0.6356659,-10.883438,4.8045654,2.0605621,0.21722412,0.7561493,0.045560837,-0.12445927,5.048744
1570726869,2.2882538,-10.459671,1.0001831,2.3364716,0.6092529,0.7188568,2.9350357,0.55175877,1.9715748
1570726869,1.913559,-7.5728607,-0.7978668,1.5076904,0.14904785,0.561203,3.3282986,2.5786362,-2.8666034
1570726869,1.913559,-7.5728607,-0.7978668,1.5076904,0.14904785,0.561203,3.3282986,2.5786362,-2.8666034
1570726869,2.2816772,-6.36499,-1.051651,1.0453644,2.7823792,0.641098,4.1750183,3.8673506,-2.9887133
1570726869,2.858078,-8.798691,-0.7080841,0.17504883,1.7128601,0.10206604,5.3649025,1.5554867,-2.9995928
1570726869,2.723999,-8.846573,-0.49620056,0.12496948,1.5253754,0.036026,5.3649025,1.5554867,-2.9995928
1570726869,-0.37948608,-9.724045,0.12928772,0.591568,-0.4464264,-0.6595917,1.783783,0.58072376,-1.670079
1570726869,-0.37948608,-9.724045,0.12928772,0.591568,-0.4464264,-0.6595917,1.783783,0.58072376,-1.670079
1570726869,-1.4838104,-11.773483,2.395996,0.012054443,0.4025879,-0.6755676,0.20410144,-1.3492966,0.122779846
1570726869,-1.5472565,-11.744156,2.3989868,0.015258789,0.4771576,-0.68089294,0.1619432,-1.4638653,0.1727531
1570726869,-2.8467102,-9.747391,1.6262665,0.44454956,1.2185822,-0.57650757,-1.4779023,0.46561623,-0.7304938
1570726869,-2.8467102,-9.747391,1.6262665,0.44454956,1.2185822,-0.57650757,-1.4779023,0.46561623,-0.7304938
1570726869,-2.5594025,-9.130295,2.2876587,0.27304077,1.0342865,-0.51898193,-1.2984961,1.0673704,-0.17542839
1570726869,-2.0817566,-8.57782,2.4091644,0.26239014,0.97569275,-0.3368225,-0.94102407,1.6299534,-0.0144844055
1570726869,-0.18675232,-9.028534,3.344696,0.33483887,1.3730469,-0.33468628,0.9216747,1.5098877,0.7327304
1570726869,-0.18675232,-9.028534,3.344696,0.33483887,1.3730469,-0.33468628,0.9216747,1.5098877,0.7327304
1570726870,1.7357941,-11.404175,5.079895,0.6150055,1.3378906,-0.7821045,2.9632833,-0.9294872,2.0717385
1570726870,1.7357941,-11.404175,5.079895,0.6150055,1.3378906,-0.7821045,2.9632833,-0.9294872,2.0717385
1570726870,1.0067596,-10.420166,4.5597534,0.38276672,1.2111206,-0.82896423,1.9535785,-0.41519356,1.7051096
1570726870,0.4519043,-9.790497,4.54718,0.2709198,1.024704,-0.7810364,1.4102283,0.36167717,1.5744591
1570726870,0.21427917,-9.466675,2.7922363,0.18676758,1.7022095,-0.5072632,0.8870459,0.69764805,0.15458322
1570726870,0.21427917,-9.466675,2.7922363,0.18676758,1.7022095,-0.5072632,0.8870459,0.69764805,0.15458322
1570726870,-0.72843933,-8.57782,2.9598389,-0.5184479,1.4358978,-0.26757812,-0.03224969,1.3495846,0.2334392
1570726870,-0.78289795,-8.474869,2.7898407,-0.5567932,1.3943481,-0.27397156,0.01966083,1.5733824,0.13272119
1570726870,-7.5273743,-19.612701,8.857941,-0.98609924,-1.7119598,1.2568207,-7.4718885,-9.215618,-0.21887422
1570726870,-7.5273743,-19.612701,8.857941,-0.98609924,-1.7119598,1.2568207,-7.4718885,-9.215618,-0.21887422
1570726870,-0.41539,-8.731049,3.7145996,0.5159302,-0.37399292,-0.014038086,0.9338025,0.4304514,3.448745
1570726870,-4.140167,-6.040573,-3.964203,0.65867615,-1.8121033,0.44082642,-3.5754056,4.264946,-6.4228005
1570726870,-2.7012634,-7.245453,-2.2266083,0.54255676,-2.4714966,0.8200531,-2.0183992,3.2378273,-5.3295345
1570726870,0.27174377,-14.296371,1.458664,1.5353851,2.5661316,-0.17489624,1.3266345,-3.998455,-1.5420272
1570726870,0.51535034,-14.442429,1.194107,1.4746704,3.0039673,-0.16531372,1.3266345,-3.998455,-1.5420272
1570726870,3.672699,-13.312958,-0.09277344,0.7960968,5.9376984,-0.06517029,4.6339736,-3.8092203,-3.1085258
1570726870,4.96019,-9.694717,-6.2482605,-3.053772,4.2322083,-0.75546265,8.460793,0.16336346,-10.589892
1570726870,1.7549438,-9.424774,-0.10115051,-3.8143768,0.7796936,-0.9365692,3.8546782,0.87556267,-1.7987869
1570726870,0.6290741,-10.00058,4.0785217,-2.8247375,-1.1537628,-0.89715576,2.3445437,0.59508705,3.071946
1570726870,-3.7205963,-12.114059,9.28891,0.12924194,1.2846222,-0.41990662,-2.9721842,-2.0274096,10.8503475
1570726870,3.1394043,-10.438126,0.73921204,0.9036865,2.875061,-0.04812622,2.8268013,-0.13043022,1.99594
1570726870,2.5007477,-10.994171,-2.56958,-0.44174194,0.99380493,-0.85240173,3.4316335,-0.5217514,-3.2906218
1570726870,2.5007477,-10.994171,-2.56958,-0.44174194,0.99380493,-0.85240173,3.4316335,-0.5217514,-3.2906218
1570726870,-3.4320831,-9.484024,1.9704285,-0.7805023,1.6446838,-0.6574707,-3.1737988,1.2173262,3.08141
1570726870,-3.438675,-9.580994,1.6178894,-0.7655792,1.6979523,-0.62976074,-3.1737988,1.2173262,3.08141
1570726870,-0.7146759,-10.65181,-1.2270355,-0.950943,1.0534668,0.116989136,-0.667146,0.14102745,0.32221866
1570726870,-0.7146759,-10.65181,-1.2270355,-0.950943,1.0534668,0.116989136,-0.667146,0.14102745,0.32221866
1570726870,0.40641785,-11.722015,-0.917572,-0.94773865,0.6763611,0.14042664,0.5206178,-1.0496864,0.69996953
1570726870,0.40641785,-11.722015,-0.917572,-0.94773865,0.6763611,0.14042664,0.5206178,-1.0496864,0.69996953
1570726870,2.0727844,-12.889786,0.94869995,-0.8987427,0.5623779,0.25759888,1.7532631,-2.4014168,3.0163584
1570726870,2.0727844,-12.889786,0.94869995,-0.8987427,0.5623779,0.25759888,1.7532631,-2.4014168,3.0163584
1570726870,2.8484955,-13.845673,-0.87028503,-0.016708374,0.82762146,0.37904358,3.3586597,-3.0080795,1.0225003
1570726870,2.8484955,-13.845673,-0.87028503,-0.016708374,0.82762146,0.37904358,3.3586597,-3.0080795,1.0225003
1570726871,1.406601,-12.240356,2.6731262,1.2594757,1.7970123,0.34388733,1.5606563,-1.9130812,4.732926
1570726871,1.406601,-12.240356,2.6731262,1.2594757,1.7970123,0.34388733,1.5606563,-1.9130812,4.732926
1570726871,2.1853027,-12.729965,0.12449646,2.4493866,2.1389618,0.53030396,2.5724604,-1.6726418,1.7635227
1570726871,2.1853027,-12.729965,0.12449646,2.4493866,2.1389618,0.53030396,2.5724604,-1.6726418,1.7635227
1570726871,2.6725311,-12.837112,-1.8094177,2.5399323,0.1799469,0.57292175,2.7363515,-2.085124,-1.2461767
1570726871,4.1647186,-14.040192,0.058654785,2.1329956,-0.5902405,0.3662567,4.492082,-3.2809782,-0.88951725
1570726871,5.8711853,-13.518265,-0.029922485,2.278946,0.4579773,0.16812134,6.3973794,-2.9655666,-1.2457277
1570726871,9.744995,-9.906006,-2.7066498,2.297058,1.2366791,-0.51898193,9.427353,-0.08623028,-3.876695
1570726871,10.211868,-9.678558,-3.2519226,2.2086334,1.1930084,-0.7128601,10.059657,0.47603035,-5.0736184
1570726871,8.5203705,-11.474808,-4.201233,0.9015503,-0.26426697,-1.9858551,8.533646,-0.79238987,-8.3665085
1570726871,3.2860413,-15.515625,6.6385193,0.5031433,0.22468567,-3.242859,2.405567,-4.8923254,3.0741577
1570726871,0.62368774,-15.799942,0.5997467,1.8592224,4.176819,-2.910492,-1.6939623,-6.6097317,-1.0399468
1570726871,0.89123535,-10.662582,-2.0967255,2.0147552,3.5195465,-2.223404,-1.3724675,-1.9386797,-7.399052
1570726871,0.80384827,-10.498581,-1.727417,1.9401855,3.4226074,-2.210617,-1.5386496,-1.5291319,-7.376843
1570726871,0.20469666,-6.9719086,1.5550385,1.4182129,3.1243286,-1.5799866,-2.390909,1.2874146,-4.9072347
1570726871,0.2747345,-6.870163,1.8585052,1.4001007,3.1808014,-1.555481,-2.1827545,1.3614616,-4.9561167
1570726871,-1.3814545,-5.5599365,3.3536835,0.63630676,2.649231,-0.8982086,-3.133114,2.2477794,-4.2270103
1570726871,-1.3814545,-5.5599365,3.3536835,0.63630676,2.649231,-0.8982086,-3.133114,2.2477794,-4.2270103
1570726871,-0.111328125,-4.78302,2.9706116,0.31565857,2.5469666,-0.72351074,-1.6941599,2.615974,-4.4362597
1570726871,0.02633667,-4.4460297,3.2668915,-0.16796875,2.1283112,-0.5733032,-0.76065403,3.0448637,-4.1396227
1570726871,-0.2561798,-5.182251,3.039444,-0.90193176,1.1631775,-0.4646454,-0.8752183,2.8127747,-4.1832676
1570726871,-1.249176,-6.7253113,5.2983704,-1.462265,0.20977783,-0.27716064,-1.6546375,1.7216282,-2.8360577
1570726871,-2.0099335,-13.311768,1.6657715,-2.1749268,-0.5348511,-0.4614563,-1.9509356,-4.1434345,-5.042563
1570726871,-2.4558563,-12.167328,2.7425537,-2.3634796,-2.3159637,0.70606995,-3.5465045,-3.9852085,-3.3148632
1570726871,-2.4792023,-12.167328,2.7425537,-2.3634796,-2.3159637,0.70606995,-3.5465045,-3.9852085,-3.3148632
1570726871,-1.7872772,-9.436752,2.6425934,-2.4668121,-1.8802795,0.7167206,-3.2413263,0.16937542,-1.1100321
1570726871,-1.4167633,-12.416931,2.051834,-2.067337,-1.2294006,2.1367188,-2.0887418,-2.4070644,-0.60005856
1570726871,-1.4167633,-12.416931,2.051834,-2.067337,-1.2294006,2.1367188,-2.0887418,-2.4070644,-0.60005856
1570726871,0.40881348,-14.192825,7.4531555,-0.8071289,-0.13644409,2.2038422,-1.0015311,-2.5818443,1.8709769
1570726871,2.217636,-13.782227,4.790802,0.13136292,3.034851,1.5827942,2.347435,-3.9317675,3.593436
1570726871,1.0977478,-10.154404,2.1799164,-0.76452637,2.6470947,0.5665283,3.54313,0.39142227,-0.51066244
1570726871,2.0326843,-9.88327,1.8602905,-0.50779724,2.5831757,0.09034729,3.7993236,0.73062897,0.4397751
1570726871,1.798645,-10.152008,1.9686279,-0.50245667,2.5810547,0.049865723,3.7993236,0.73062897,0.4397751
1570726872,4.170105,-9.964066,-3.8492737,-1.5006104,-1.8515167,-1.3594666,5.5270143,0.9601717,-5.4900165
1570726872,4.170105,-9.964066,-3.8492737,-1.5006104,-1.8515167,-1.3594666,5.5270143,0.9601717,-5.4900165
1570726872,-7.705139,-12.630615,7.4537506,-1.9139404,-1.314621,-1.3935547,-5.4510584,-1.2635012,6.294481
1570726872,-7.705139,-12.630615,7.4537506,-1.9139404,-1.314621,-1.3935547,-5.4510584,-1.2635012,6.294481
1570726872,-3.877411,-11.028885,3.902542,-0.41618347,-0.08103943,0.50686646,-5.7670965,-0.9837551,5.78231
1570726872,0.49739075,-12.264893,1.529892,-0.43641663,0.18634033,0.58569336,1.1399148,-1.2749052,2.1047392
1570726872,0.5566559,-12.264893,1.529892,-0.43641663,0.18634033,0.58569336,1.1399148,-1.2749052,2.1047392
1570726872,0.40821838,-14.958374,2.3295593,-0.19993591,1.2292328,0.60380554,1.2909985,-3.418209,3.174791
1570726872,0.40821838,-14.958374,2.3295593,-0.19993591,1.2292328,0.60380554,1.2909985,-3.418209,3.174791
1570726872,2.7575226,-13.210602,1.782486,1.1636047,1.681961,-0.24627686,4.3557186,-3.1545124,3.2816405
1570726872,2.2194214,-12.915527,1.4317322,1.1710663,1.5392151,-0.31018066,4.3557186,-3.1545124,3.2816405
1570726872,-2.7904358,-12.1176605,3.438675,1.0251312,0.68807983,-0.29847717,-1.3650554,-1.4102755,3.1150892
1570726872,-5.136154,-12.025482,7.012619,1.9828033,1.2792969,0.52072144,-4.3185754,-1.1327963,6.1795993
1570726872,-3.3494873,-12.820953,5.072708,2.9521942,1.2132568,0.82751465,-2.8000875,-1.8610992,6.3541245
1570726872,2.537857,-12.914917,-0.2849121,2.218216,-1.1740112,-0.020431519,2.6727626,-2.836275,-2.50446
1570726872,1.407196,-11.747742,-1.474823,2.137268,-0.7159424,-0.04600525,2.3741395,-1.7642975,-3.3630996
1570726872,4.100662,-9.242218,-1.0522461,1.6568298,-1.2688141,-0.44334412,4.9157557,1.0841513,-4.1294174
1570726872,5.4958954,-11.019913,4.1413727,1.053894,-1.2741394,-1.4201965,7.31979,-0.2926588,-0.3408537
1570726872,0.6296692,-10.626068,0.10594177,2.5292816,1.8183136,-1.605545,0.35179025,-1.2392054,-4.3395386
1570726872,0.6296692,-10.626068,0.10594177,2.5292816,1.8183136,-1.605545,0.35179025,-1.2392054,-4.3395386
1570726872,-0.541687,-8.720886,2.0919342,1.7942505,1.5274963,-1.968811,-1.5757494,0.17615986,-3.568685
1570726872,-0.541687,-8.720886,2.0919342,1.7942505,1.5274963,-1.968811,-1.5757494,0.17615986,-3.568685
1570726872,-0.22206116,-5.319916,1.1318665,1.4086151,2.1283112,-1.1378937,-1.1417079,2.8135147,-5.345216
1570726872,-0.22206116,-5.319916,1.1318665,1.4086151,2.1283112,-1.1378937,-1.1417079,2.8135147,-5.345216
1570726872,-2.937088,-3.0609894,0.6177063,-0.20419312,1.3282928,-0.59355164,-3.2337155,5.111952,-6.5542464
1570726872,-2.8059998,-6.2368927,5.4168854,-2.0630798,-0.63072205,0.17344666,-3.5083904,3.2429209,-1.6267099
1570726872,-2.8059998,-6.2368927,5.4168854,-2.0630798,-0.63072205,0.17344666,-3.5083904,3.2429209,-1.6267099
1570726872,-1.7836761,-13.497314,7.4531555,-2.2825165,-1.4424591,0.21498108,-2.2661285,-3.2889261,0.6579385
1570726872,0.12808228,-19.612701,5.187042,-2.3240662,-3.1394196,1.1385651,-0.41398174,-10.056781,-0.90362024
1570726872,-0.051467896,-10.765533,4.5519714,-1.7211304,-2.2808228,0.97984314,-0.9551229,-2.0838547,1.0202096
1570726872,-2.1362305,-9.950897,0.72483826,-2.080124,-2.3223572,1.3952942,-2.7061942,0.6773548,-2.0271225
1570726872,-2.2798767,-9.950897,0.72483826,-2.080124,-2.3223572,1.3952942,-2.7061942,0.6773548,-2.0271225
1570726872,-1.2419891,-14.036011,2.37146,-1.8670654,-2.8049316,2.727951,-1.9106976,-2.9314966,-0.6423073
1570726872,2.4157562,-14.018646,1.8758545,-1.286499,3.413025,1.1982269,2.8914437,-4.1246862,0.34578717
1570726872,2.4157562,-14.018646,1.8758545,-1.286499,3.413025,1.1982269,2.8914437,-4.1246862,0.34578717
1570726873,3.6912537,-11.368866,1.4401093,-1.4164581,2.8239288,1.0160675,4.806271,-1.0967703,0.15739512
1570726873,5.3977203,-9.150635,2.4366913,-1.0180511,1.3389587,0.8211212,6.8671737,1.11977,1.6469066
1570726873,3.7379456,-9.0147705,1.4048004,-0.75813293,0.9501343,-0.30059814,5.641263,1.5358553,1.2568494
1570726873,3.4698029,-8.784332,-0.23103333,-0.3288269,0.00630188,-0.64042664,4.633689,1.0481539,0.6997495
1570726873,3.7110138,-7.2993164,-4.3376923,-0.71658325,-1.7343292,-1.2795715,4.752233,2.9072886,-2.7429929
1570726873,-8.101379,-13.26149,12.194275,-2.5989075,-2.9189148,-1.7024841,-4.5274553,-1.9288902,9.174141
1570726873,-8.101379,-13.26149,12.194275,-2.5989075,-2.9189148,-1.7024841,-4.5274553,-1.9288902,9.174141
1570726873,-12.168533,-11.988373,6.4835052,-0.58555603,0.8585205,0.12338257,-13.285476,-1.5196791,10.558305
1570726873,2.740158,-10.515335,1.3222046,0.26026917,0.7381439,1.1268616,0.9316956,0.21179962,4.110278
1570726873,4.086899,-11.520294,0.97624207,0.18676758,0.38661194,0.43336487,4.715078,-0.76617146,2.6395168
1570726873,3.0172882,-12.480377,0.6027374,0.15905762,0.49739075,0.27464294,3.9552631,-1.6243143,2.2024012
1570726873,1.7310028,-16.768387,1.5544281,-0.011383057,0.5549164,-0.002319336,2.7452264,-5.0130615,2.5096464
1570726873,0.28730774,-18.902817,3.3895874,0.24641418,0.8798218,-0.22283936,0.99408835,-8.256299,4.3660746
1570726873,-1.280304,-14.3280945,4.4687805,1.0155334,1.0161743,-0.33894348,-0.9091257,-3.9033337,5.5905757
1570726873,-2.1912994,-12.723389,3.4656067,1.5247345,0.84680176,-0.04067993,-1.8365599,-1.9531593,4.1059422
1570726873,-0.7374115,-12.558792,3.6272125,2.0690765,1.024704,0.40992737,-0.8502239,-1.7883596,3.7258232
1570726873,-0.0909729,-13.286026,-2.4648285,2.0307312,0.45158386,0.08076477,0.43107724,-2.6602163,-2.8475862
1570726873,-0.41958618,-13.0112915,-2.3097992,2.1489716,-0.40382385,-0.002319336,0.31822234,-2.4259243,-3.59978
1570726873,0.71347046,-10.57399,-1.0600281,2.0967865,-1.0333862,-0.24732971,0.8787221,-0.32036304,-2.4219952
1570726873,0.44172668,-9.811432,-0.08380127,1.9412537,-0.8192749,-0.3687744,0.4016798,0.87873554,-3.485015
1570726873,3.016693,-11.975204,7.555496,2.4813385,-0.030975342,-0.8332367,3.0051153,-0.967041,2.442749
1570726873,0.6566162,-8.819046,0.3902588,2.2246094,0.40470886,-1.0409546,0.29864267,0.733799,-4.6932077
1570726873,0.6566162,-8.819046,0.3902588,2.2246094,0.40470886,-1.0409546,0.29864267,0.733799,-4.6932077
1570726873,0.6769562,-9.628281,2.7293854,2.0360565,1.5754395,-1.3552094,-0.03767538,-1.0558596,-3.8133159
1570726873,0.7667389,-9.496002,2.794632,2.0349884,1.7086029,-1.3381653,-0.12724948,-0.8995695,-3.568111
1570726873,-1.7220306,-3.2082367,0.36212158,1.4427032,2.3509521,-0.4625244,-1.6281106,4.3136597,-6.7700787
1570726873,-1.7130585,-2.7916412,0.108932495,1.2743988,2.240158,-0.3911438,-1.9199947,4.7356396,-6.7451944
1570726873,-2.9730072,-1.7519531,-0.25079346,-0.70700073,0.6348114,-0.28781128,-2.4434788,6.394148,-7.494143
1570726873,-3.368042,-2.2481537,-5.950928E-4,-1.046814,0.2907257,-0.2654419,-3.0383348,5.931977,-7.198348
1570726873,-1.1049194,-16.705536,18.948914,-1.3120728,-1.7407227,0.35879517,-2.7954123,-5.5940475,12.590269
1570726873,-1.1049194,-16.705536,18.948914,-1.3120728,-1.7407227,0.35879517,-2.7954123,-5.5940475,12.590269
1570726873,0.22744751,-10.560226,0.87568665,-2.2473602,-2.3766937,1.0576172,-0.15583113,-1.9218512,-3.1235862
1570726873,0.1083374,-10.095749,0.2819214,-2.2825165,-2.427826,1.0544128,-0.15583113,-1.9218512,-3.1235862
1570726874,-0.39505005,-12.61026,3.126236,-2.9163513,-2.9029388,1.4496307,-0.8445426,-1.8617458,0.094040155
1570726874,-0.2238617,-12.975372,2.9089508,-2.909958,-2.8198395,1.4911804,-0.8445426,-1.8617458,0.094040155
1570726874,0.4740448,-15.877747,0.84036255,-2.799179,-2.288269,1.7383118,-0.0097001195,-5.138136,-1.4342811
1570726874,1.5526428,-12.419327,3.8199463,-0.99354553,-1.6001129,1.3590851,1.4960421,-2.4348745,2.2213144
1570726874,2.1493988,-11.393402,2.2643127,-0.84654236,1.4689178,1.0331116,2.8160634,-1.0168247,0.96696746
1570726874,2.1493988,-11.393402,2.2643127,-0.84654236,1.4689178,1.0331116,2.8160634,-1.0168247,0.96696746
1570726874,3.078949,-10.383057,2.4558563,-1.0063324,2.7195282,0.65600586,4.2201524,0.041451454,1.6388654
1570726874,2.3038177,-9.594162,1.4425049,-1.1064758,2.190094,0.4078064,3.768547,0.95124054,0.68316877
1570726874,1.7531586,-9.219467,0.86190796,-0.46517944,1.0310974,-0.26651,3.3335242,1.4683676,0.82418734
1570726874,2.0667877,-9.290695,-2.4624329,-0.728302,-0.70422363,-0.7948761,2.7406998,1.2758856,-1.2580833
1570726874,2.0667877,-9.290695,-2.4624329,-0.728302,-0.70422363,-0.7948761,2.7406998,1.2758856,-1.2580833
1570726874,-6.036377,-13.820526,9.185959,-2.289978,-3.146881,-1.4691925,-4.1999407,-3.2675343,8.436626
1570726874,-6.036377,-13.820526,9.185959,-2.289978,-3.146881,-1.4691925,-4.1999407,-3.2675343,8.436626
1570726874,-9.6241,-12.559387,9.80426,-0.79008484,0.13626099,-0.25053406,-10.165709,-2.0808449,13.444799
1570726874,2.7090454,-10.570404,-0.86550903,-0.27449036,0.57621765,0.6336365,1.020105,-0.11419392,0.92618334
1570726874,3.0699615,-11.519104,1.419754,-0.22016907,-0.11512756,0.3609314,3.7212124,-0.7276058,2.7509363
1570726874,0.77812195,-16.084244,3.8259277,-0.067840576,0.7509308,0.11804199,1.2414348,-4.985656,4.962633
1570726874,0.77812195,-16.084244,3.8259277,-0.067840576,0.7509308,0.11804199,1.2414348,-4.985656,4.962633
1570726874,0.7948761,-14.535797,4.54718,1.8879852,0.8489227,-0.23562622,1.2017707,-3.8757696,5.759972
1570726874,0.7948761,-14.535797,4.54718,1.8879852,0.8489227,-0.23562622,1.2017707,-3.8757696,5.759972
1570726874,-0.9349365,-13.742722,2.2786865,2.4802704,0.5890045,-0.3911438,-0.19519027,-3.013136,3.009144
1570726874,-3.3847961,-13.703217,3.229782,2.68161,0.74028015,-0.12057495,-2.7149022,-2.4720907,2.1134863
1570726874,-4.6112366,-15.532379,-0.21427917,3.0715027,0.36210632,0.42378235,-4.6637807,-5.1741533,0.11843014
1570726874,4.9787445,-13.198639,-0.60453796,2.1638947,-2.366043,-0.6851654,4.373601,-2.468871,-5.156322
1570726874,6.4894867,-12.978973,1.5011597,2.07547,-1.4073029,-1.1560059,5.4547997,-2.6545353,-1.7159007
1570726874,2.2822723,-10.393829,2.3050232,2.504776,1.170639,-1.3370972,0.65381527,-1.0538254,-1.2074304
1570726874,2.1302338,-10.219055,1.7944489,2.5069122,1.2952728,-1.3349762,0.65381527,-1.0538254,-1.2074304
1570726874,1.2042847,-9.539093,1.9859924,2.313034,1.7906189,-1.7078094,0.043406367,-0.15943623,-3.714872
1570726874,-0.78590393,-7.926605,0.50816345,1.9923859,2.29982,-1.699295,-2.0487401,0.5548544,-5.9835005
1570726874,-1.3539276,-3.6325989,0.041900635,1.5918427,2.1091309,-1.0026093,-2.724103,3.9693708,-6.912405
1570726874,-1.3539276,-3.6325989,0.041900635,1.5918427,2.1091309,-1.0026093,-2.724103,3.9693708,-6.912405
1570726874,-2.2667084,-2.3385315,0.29148865,-0.13601685,1.3325653,-0.36026,-3.0832982,5.37987,-7.137059
1570726874,-2.2667084,-2.3385315,0.29148865,-0.13601685,1.3325653,-0.36026,-3.0832982,5.37987,-7.137059
1570726875,-2.466629,-2.5127106,0.5746155,-1.3365631,0.17248535,-0.27397156,-3.081074,5.322653,-7.0078363
1570726875,-0.8319855,-14.434647,11.062408,-2.4742737,-1.9921265,0.37690735,-2.472275,-4.2031555,4.1350384
1570726875,-0.8319855,-14.434647,11.062408,-2.4742737,-1.9921265,0.37690735,-2.472275,-4.2031555,4.1350384
1570726875,0.99957275,-19.612701,4.9039307,-1.589035,-2.079483,0.9660034,0.3318938,-10.188598,1.4532557
1570726875,0.74220276,-19.041092,3.6876678,-1.556015,-1.9612427,0.99583435,0.3318938,-10.188598,1.4532557
1570726875,-1.2186432,-6.289566,-0.22744751,-2.081192,-2.4352875,1.4464264,-2.1011634,4.5058613,-2.5515084
1570726875,-1.2186432,-6.289566,-0.22744751,-2.081192,-2.4352875,1.4464264,-2.1011634,4.5058613,-2.5515084
1570726875,4.170105,-19.612701,7.3867035,-2.2218018,-1.7993164,2.438202,0.5438943,-7.0487957,-0.8254838
1570726875,4.170105,-19.612701,7.3867035,-2.2218018,-1.7993164,2.438202,0.5438943,-7.0487957,-0.8254838
1570726875,4.1174316,-10.63504,2.478592,-0.728302,0.9735718,0.6538696,4.414369,-0.93491554,1.7102289
1570726875,4.1174316,-10.63504,2.478592,-0.728302,0.9735718,0.6538696,4.414369,-0.93491554,1.7102289
1570726875,2.8078003,-8.22229,2.7419586,-0.74534607,0.8915405,0.2671814,3.6672864,2.3826866,2.0095
1570726875,2.8078003,-8.22229,2.7419586,-0.74534607,0.8915405,0.2671814,3.6672864,2.3826866,2.0095
1570726875,2.1841125,-9.352356,0.01914978,-0.3096466,0.6017914,-0.18981934,2.6212833,0.9867525,-0.4340129
1570726875,2.1841125,-9.352356,0.01914978,-0.3096466,0.6017914,-0.18981934,2.6212833,0.9867525,-0.4340129
1570726875,2.8592682,-8.910614,-0.59317017,-0.8124542,0.016952515,-0.70114136,3.032958,1.7605591,-0.26377493
1570726875,-0.833786,-10.636841,1.3610992,-0.9136505,-2.970047,-1.1932983,1.3343891,0.8001118,1.6940064
1570726875,-0.833786,-10.636841,1.3610992,-0.9136505,-2.970047,-1.1932983,1.3343891,0.8001118,1.6940064
1570726875,-6.3943176,-11.420944,4.497513,-0.91152954,-2.2786865,-0.7213745,-5.8394413,-0.95468616,3.7575357
1570726875,-0.32800293,-10.617691,0.12509155,-0.61325073,1.4785004,0.5079346,-1.2838726,0.026311874,1.5261128
1570726875,1.2898712,-11.043259,-0.5782013,-0.7048645,1.1301575,0.49195862,0.82520866,-0.3545761,0.29001868
1570726875,1.6591797,-11.50235,-0.17956543,-0.48008728,-0.5305939,0.5984802,1.7689173,-0.879199,1.3122869
1570726875,0.39564514,-12.773071,-0.0023956299,-0.7805023,0.6795502,0.52604675,0.5229205,-2.126649,1.5647072
1570726875,0.39564514,-12.773071,-0.0023956299,-0.7805023,0.6795502,0.52604675,0.5229205,-2.126649,1.5647072
1570726875,3.770874,-16.477493,3.2369537,-0.26171875,1.313385,-0.04067993,4.697469,-5.373457,4.8584075
1570726875,3.770874,-16.477493,3.2369537,-0.26171875,1.313385,-0.04067993,4.697469,-5.373457,4.8584075
1570726875,-0.99539185,-14.345459,4.996704,0.75135803,1.5179138,-0.18981934,-0.60889995,-3.9111748,6.419213
1570726875,-1.2395935,-13.57872,4.289215,1.9977112,1.6777039,0.38116455,-1.0389981,-2.5862875,5.9747047
1570726875,-1.2395935,-13.57872,4.289215,1.9977112,1.6777039,0.38116455,-1.0389981,-2.5862875,5.9747047
1570726875,-0.23164368,-13.411713,-0.7374115,2.804123,-0.5625458,-0.0342865,0.4094563,-2.2331333,-1.1574302
1570726875,-0.23164368,-13.411713,-0.7374115,2.804123,-0.5625458,-0.0342865,0.4094563,-2.2331333,-1.1574302
1570726875,-1.9339142,-12.288239,-1.1049194,2.454712,-0.76600647,0.0104522705,-1.8259809,-2.1228828,-3.199745
1570726875,-2.4833832,-11.24736,0.48243713,2.2097015,-1.0547028,-0.068374634,-2.4202423,-0.9725628,-2.790971
1570726875,0.7811127,-10.748764,-0.6506195,1.9721375,-0.15774536,-0.23562622,0.9788891,-0.36921406,-3.6583338
1570726876,3.6774902,-12.099701,7.511215,2.2704163,-0.45281982,-1.0761108,4.4554486,-2.5752268,2.5486884
1570726876,0.9576874,-9.2595825,-0.794281,2.9021149,0.661438,-0.83110046,0.77729833,0.23769474,-5.0735574
1570726876,0.26455688,-7.873932,-0.032318115,2.568695,0.49632263,-1.061203,-0.40109634,1.0926905,-5.4657283
1570726876,-0.0018005371,-7.57106,0.88705444,2.1511078,0.97462463,-1.4638672,-0.8734021,1.5544882,-4.769858
1570726876,1.0528564,-7.432205,3.0502167,1.8389893,1.4348297,-1.3381653,-1.4824069,1.0464668,-4.1059213
1570726876,0.80744934,-6.831848,2.7252045,1.6493683,1.9525452,-1.110199,-0.1498735,1.1157656,-4.33861
1570726876,-1.5101471,-2.090744,0.03352356,0.044021606,1.362381,-0.3165741,-1.9939121,5.5005145,-7.3967605
1570726876,-1.5101471,-2.090744,0.03352356,0.044021606,1.362381,-0.3165741,-1.9939121,5.5005145,-7.3967605
1570726876,-2.4516602,-2.6749268,3.233368,-1.0510712,0.45158386,-0.18235779,-2.6727116,5.2119493,-4.813935
1570726876,0.24780273,-18.073227,3.8642426,-1.5070038,-0.093826294,-0.20791626,2.2924798,-8.307333,1.1297784
1570726876,0.24780273,-18.073227,3.8642426,-1.5070038,-0.093826294,-0.20791626,2.2924798,-8.307333,1.1297784
1570726876,-2.850296,-12.497131,5.6191864,-1.4665222,-0.5785217,0.528183,-3.1027513,-4.5890703,-1.892281
1570726876,-1.3658905,-8.522766,1.1719666,-1.7690582,-0.78944397,0.50154114,-2.3128362,-0.9103699,-2.6098857
1570726876,0.33338928,-16.609772,5.4420166,-2.7938538,-2.4438019,2.1292725,-0.111698836,-7.636241,1.767777
1570726876,0.33338928,-16.609772,5.4420166,-2.7938538,-2.4438019,2.1292725,0.16406684,-6.914341,1.6480551
1570726876,-0.809845,-11.589127,3.031662,-1.8127441,-0.5689392,2.1367188,-0.021404922,-1.333663,-0.18170285
1570726876,-0.809845,-11.589127,3.031662,-1.8127441,-0.5689392,2.1367188,-0.021404922,-1.333663,-0.18170285
1570726876,-2.5049286,-11.386826,3.8959656,0.14308167,1.615921,0.3193817,-0.66624796,0.2711296,1.40799
1570726876,-2.5049286,-11.386826,3.8959656,0.14308167,1.615921,0.3193817,-0.66624796,0.2711296,1.40799
1570726876,3.2243958,-6.467331,0.9355316,-2.1248627,2.9464417,0.48130798,5.5783057,2.8793564,-1.7576407
1570726876,3.2243958,-6.467331,0.9355316,-2.1248627,2.9464417,0.48130798,5.5783057,2.8793564,-1.7576407
1570726876,3.0825348,-9.974243,0.91937256,-0.7517395,2.1091309,-0.280365,6.255634,0.57147026,0.88458794
1570726876,3.0825348,-9.974243,0.91937256,-0.7517395,2.1091309,-0.280365,6.255634,0.57147026,0.88458794
1570726876,4.5801086,-5.230728,1.5490417,-0.96585083,0.4899292,-1.8846436,6.5232563,4.755471,2.3423138
1570726876,4.676468,-5.230728,1.5490417,-0.96585083,0.4899292,-1.8846436,6.5232563,4.755471,2.3423138
1570726876,-8.652054,-17.783539,1.4814148,-2.3975677,-3.0382233,-3.275879,-7.035766,-6.798277,-0.047326624
1570726876,-8.652054,-17.783539,1.4814148,-2.3975677,-3.0382233,-3.275879,-7.035766,-6.798277,-0.047326624
1570726876,-2.5683746,-11.756729,-3.4117432,1.4906464,0.056365967,-0.044937134,-3.443531,-0.48271084,1.5142646
1570726876,-2.5683746,-11.756729,-3.4117432,1.4906464,0.056365967,-0.044937134,-3.443531,-0.48271084,1.5142646
1570726876,-1.4850006,-11.744156,-3.901352,-0.7101898,-0.5689392,-0.8939514,-1.3703351,-0.6667328,-2.9209232
1570726876,-1.4850006,-11.744156,-3.901352,-0.7101898,-0.5689392,-0.8939514,-1.3703351,-0.6667328,-2.9209232
1570726876,-0.33998108,-14.23053,0.9391327,-1.4143372,-2.9466095,-0.89927673,-1.7723767,-3.8022127,1.7252438
1570726876,0.09815979,-14.156921,2.952652,-1.2481537,-3.192688,-0.8183136,-1.3560305,-3.722643,3.2666864
1570726877,1.2168579,-15.383942,3.5859222,0.13882446,-2.2200928,-0.15359497,-0.23315227,-4.835902,6.673291
1570726877,6.703766,-15.295364,0.72843933,0.63842773,-0.7180786,0.7465515,4.835438,-5.607522,2.5132017
1570726877,6.190811,-13.172897,-3.1699219,0.40301514,0.30776978,0.8573456,6.3916173,-2.4991798,-0.4638176
1570726877,1.1510162,-12.965805,2.9592285,-0.08381653,-1.427536,0.74975586,0.7750896,-3.0164824,3.3888855
1570726877,0.6751709,-14.091675,3.7343597,1.1945038,-0.9034271,0.98197937,0.81442106,-3.2157335,6.000393
1570726877,1.2868805,-11.611282,-4.3466797,0.81314087,-2.3138428,0.14680481,1.5542871,-0.70410824,-3.2785203
1570726877,1.280899,-11.611282,-4.3466797,0.81314087,-2.3138428,0.14680481,1.5542871,-0.70410824,-3.2785203
1570726877,1.3886414,-11.716629,-1.5041504,0.045074463,-3.0925446,-0.19619751,1.8812538,-0.7356663,-1.3099686
1570726877,1.4215546,-8.756195,0.50697327,0.9313812,0.24066162,-0.840683,1.1184636,1.5912762,0.9549606
1570726877,1.6837158,-8.501205,0.49320984,0.97612,0.32269287,-0.90992737,1.1184636,1.5912762,0.9549606
1570726877,2.0266876,-6.2752075,1.2318115,1.2861176,1.249466,-2.0092773,1.8264067,4.203306,1.1562005
1570726877,-3.7601013,-8.614929,-4.305969,1.3010254,0.92137146,-2.5973053,-5.942999,1.5135326,-5.5170965
1570726877,-3.7601013,-8.614929,-4.305969,1.3010254,0.92137146,-2.5973053,-5.942999,1.5135326,-5.5170965
1570726877,4.234146,-8.968674,-4.3358917,-1.302475,0.2811432,-0.9844971,-0.6976659,1.5761757,-6.3988514
1570726877,5.260666,-8.904037,-3.8714294,-1.3727875,0.09259033,-0.93229675,0.5743754,1.177228,-5.755019
1570726877,9.281723,-11.149796,7.293335,-0.8113861,-1.3444519,-1.924057,6.383381,-0.9964781,6.739035
1570726877,0.34954834,-11.617264,0.7290344,-0.49394226,-0.0064849854,-0.8843689,-4.0082273,-1.2083015,0.35646716
1570726877,0.34954834,-11.617264,0.7290344,-0.49394226,-0.0064849854,-0.8843689,-4.0082273,-1.2083015,0.35646716
1570726877,3.5703583,-7.8912964,0.60154724,-0.66651917,0.76797485,0.103134155,0.1248579,3.3005133,0.653872
1570726877,3.8091736,-10.057449,0.6823425,-0.9786377,1.0523987,0.3460083,-0.885519,-0.43200397,0.19689345
1570726877,4.1688995,-8.042725,-0.073028564,-0.81033325,1.6340332,0.52178955,-0.11477709,0.7437992,0.43352264
1570726877,4.1688995,-8.042725,-0.073028564,-0.81033325,1.6340332,0.52178955,-0.11477709,0.7437992,0.43352264
1570726877,2.3816376,-11.286865,0.72065735,-1.2034149,0.83187866,1.1130066,-1.7966843,-1.5909338,0.88162994
1570726877,2.3816376,-11.286865,0.72065735,-1.2034149,0.83187866,1.1130066,-1.7966843,-1.5909338,0.88162994
1570726877,1.6519928,-11.716629,-1.3724823,-1.6156616,-0.5923767,4.3279724,-2.4756129,-2.5397673,0.04912889
1570726877,1.6519928,-11.716629,-1.3724823,-1.6156616,-0.5923767,4.3279724,-2.4756129,-2.5397673,0.04912889
1570726877,9.323624,-9.385269,2.8957825,-0.30325317,1.1461334,2.631012,9.021964,0.5624304,3.977858
1570726877,9.323624,-9.385269,2.8957825,-0.30325317,1.1461334,2.631012,9.021964,0.5624304,3.977858
1570726877,3.9001617,-12.422913,0.31723022,1.3500366,0.32588196,-0.103530884,4.955655,-1.5431738,2.4296706
1570726877,2.5432434,-12.449844,-1.0851746,1.4395142,-0.3132782,-0.23667908,3.0004487,-1.9536667,0.05331707
1570726877,3.6631317,-13.176483,1.2294159,0.8791809,0.110702515,-1.0484161,4.18413,-2.5286121,1.3824316
1570726877,3.6631317,-13.176483,1.2294159,0.8791809,0.110702515,-1.0484161,4.18413,-2.5286121,1.3824316
1570726877,3.573349,-11.392212,1.8034363,2.4461823,1.8982086,-0.7064667,2.619056,-1.157383,1.7225463
1570726878,3.573349,-11.392212,1.8034363,2.4461823,1.8982086,-0.7064667,2.619056,-1.157383,1.7225463
1570726878,4.5046844,-11.9123535,-0.3932495,2.8744202,0.9895477,-0.7639923,3.9075007,-1.065588,-2.1327085
1570726878,0.7972717,-13.633179,0.86190796,3.6946716,0.9820862,-0.631897,-0.1071713,-3.6621304,-2.6599572
1570726878,0.63505554,-13.518265,0.7631531,3.7532654,1.0428009,-0.5967407,-0.1071713,-3.6621304,-2.6599572
1570726878,-0.76016235,-12.641388,0.23822021,4.276306,1.2846222,-0.23242188,-1.4067237,-3.113676,-3.9786372
1570726878,-2.3415222,-8.819046,1.1342468,4.9346466,2.3711853,1.3100739,-2.4425552,-0.6679244,-5.778459
1570726878,-2.3415222,-8.819046,1.1342468,4.9346466,2.3711853,1.3100739,-2.4425552,-0.6679244,-5.778459
1570726878,-0.77093506,-9.333191,1.0570374,4.651291,1.2217712,1.4624176,-0.94751996,-2.4547143,-7.307614
1570726878,1.0414734,-7.7015533,3.5745392,4.3455505,0.4867401,0.46426392,2.2057316,-2.5950537,-5.7983646
1570726878,-0.6063385,-6.8121033,6.380554,3.9972076,-0.11300659,-0.5317688,0.49052787,-2.2779484,-3.5073137
1570726878,-1.1815338,-5.570114,9.756378,4.8377075,1.3101959,-1.0846405,-0.45017874,-2.568756,-0.1928463
1570726878,-1.7489624,-5.2552795,10.543472,2.4110413,-0.10342407,-0.93336487,-1.1534998,-3.845355,-0.032197952
1570726878,-1.7489624,-5.2552795,10.543472,2.4110413,-0.10342407,-0.93336487,-1.1534998,-3.845355,-0.032197952
1570726878,-1.8554993,-0.89004517,6.961136,1.2893066,-0.5263214,-0.57437134,-0.27466077,-0.9365933,-4.4883966
1570726878,-1.8554993,-0.89004517,6.961136,1.2893066,-0.5263214,-0.57437134,-0.27466077,-0.9365933,-4.4883966
1570726878,0.37948608,-0.87628174,11.123459,1.7995758,-0.23017883,-0.5498657,1.042681,-0.9612512,2.1696167
1570726878,0.38606262,1.8764496,12.035645,1.245636,-0.24615479,-0.6691742,0.8471546,0.9761628,1.2526884
1570726878,0.38606262,1.8764496,12.035645,1.245636,-0.24615479,-0.6691742,0.8471546,0.9761628,1.2526884
1570726878,1.7842712,2.9939423,10.110123,0.9995575,-0.36013794,0.034957886,1.9041903,0.7376435,-0.40104675
1570726878,1.7842712,2.9939423,10.110123,0.9995575,-0.36013794,0.034957886,1.9041903,0.7376435,-0.40104675
1570726878,1.0133514,1.6711578,11.535858,0.121780396,-0.33244324,-0.5125885,1.1664227,-0.3906889,0.65901756
1570726878,1.0025787,1.593338,11.78186,0.08982849,-0.25042725,-0.5115204,1.1664227,-0.3906889,0.65901756
1570726878,0.21308899,1.9889832,9.515747,0.7012787,0.57514954,-0.09820557,0.8156784,-0.6782651,-0.16447544
1570726878,0.21308899,1.9889832,9.515747,0.7012787,0.57514954,-0.09820557,0.8156784,-0.6782651,-0.16447544
1570726878,1.6837158,1.8369446,11.4101715,0.25920105,-1.7865295,-0.8790436,1.9626402,-0.4642198,0.08132267
1570726878,1.6508026,1.6346436,11.874039,0.2432251,-1.7716217,-0.91845703,1.7925509,-0.8545811,0.95638275
1570726878,-0.67037964,0.039505005,10.946884,0.35614014,0.040390015,-0.8843689,-1.059757,-2.967967,1.4648924
1570726878,-0.67037964,0.039505005,10.946884,0.35614014,0.040390015,-0.8843689,-1.059757,-2.967967,1.4648924
1570726878,-0.81044006,0.8648987,10.691315,0.1771698,-0.27705383,-0.3591919,-1.234088,-2.5287702,0.34773064
1570726878,-0.78590393,1.059433,10.704483,0.20806885,-0.2695923,-0.35598755,-0.93758225,-2.1987956,0.4471264
1570726878,-0.6141052,0.78289795,9.810242,0.38597107,-0.48265076,-0.45292664,-0.67041034,-2.218499,-0.3119278
1570726878,-1.1731567,1.1791382,10.581177,0.028030396,-0.49969482,-0.26971436,-1.6345292,-2.034784,0.24424171
1570726878,-1.138443,1.2162476,10.798447,0.022705078,-0.47200012,-0.25160217,-1.6345292,-2.034784,0.24424171
1570726878,-0.7918854,1.0839691,11.250351,0.1537323,-0.24403381,-0.14613342,-1.3180916,-2.139008,1.2457466
1570726879,-0.3866577,1.5699921,9.998184,0.063186646,-0.011810303,-0.09074402,-1.0052192,-1.7994144,-0.01902008
1570726879,-0.8373718,1.312027,10.9079895,-0.024154663,0.14585876,-0.16105652,-1.2424353,-1.8111064,0.77282333
1570726879,-0.8373718,1.312027,10.9079895,-0.024154663,0.14585876,-0.16105652,-1.2424353,-1.8111064,0.77282333
1570726879,-0.54289246,1.5807648,10.95108,0.12817383,0.2033844,-0.068374634,-1.0061216,-1.6317215,0.8600092
1570726879,-0.4800415,2.0308838,10.046066,0.36997986,-0.095962524,-0.09074402,-0.79529655,-1.2426934,0.03351116
1570726879,-0.24061584,2.5210876,10.499771,0.49568176,0.6252289,0.09567261,-0.57962406,-1.1204815,0.9856167
1570726879,-0.24061584,2.5210876,10.499771,0.49568176,0.6252289,0.09567261,-0.57962406,-1.1204815,0.9856167
1570726879,-0.017364502,3.0148926,8.7556,0.46159363,0.4398651,0.08395386,-0.18677965,-0.70680285,-0.7037144
1570726879,-0.32081604,3.0567932,8.401855,0.24108887,-0.22059631,-0.031082153,-0.27052012,-0.5115311,-1.6683702
1570726879,0.5093689,3.6691132,10.1604,-0.32989502,0.5080414,-0.002319336,0.29835856,-0.2752061,0.29604435
1570726879,0.5093689,3.6691132,10.1604,-0.32989502,0.5080414,-0.002319336,0.29835856,-0.2752061,0.29604435
1570726879,-0.1550293,3.075348,9.19194,0.061065674,-0.42938232,-0.0385437,-0.291852,-0.3762548,-0.78142166
1570726879,-0.1550293,3.075348,9.19194,0.061065674,-0.42938232,-0.0385437,-0.291852,-0.3762548,-0.78142166
1570726879,0.5710144,3.3249512,9.531311,-0.39167786,-0.16625977,0.0030059814,0.14295939,-0.24397445,-0.45468998
1570726879,0.5710144,3.3249512,9.531311,-0.39167786,-0.16625977,0.0030059814,0.14295939,-0.24397445,-0.45468998
1570726879,0.10055542,2.857483,10.606918,-0.5503998,0.02973938,0.06690979,-0.2277933,-0.36605906,0.40331078
1570726879,0.41059875,2.3421326,11.44429,0.14840698,-0.12046814,0.25759888,-0.046025455,-0.8700237,1.6544962
1570726879,-0.120910645,3.280655,11.395798,0.35932922,-0.19290161,0.23736572,-0.29548618,-0.025221348,1.5172453
1570726879,-0.296875,3.5440216,8.747223,0.2666626,-0.5785217,0.36839294,-0.8263174,0.09617996,-1.2267141
1570726879,0.63327026,1.9806061,12.546814,-0.45666504,-0.08317566,0.47810364,-0.28283334,-1.0396872,2.3552027
1570726879,0.6320648,1.9632416,12.536041,-0.41830444,-0.051223755,0.49195862,-0.28283334,-1.0396872,2.3552027
1570726879,0.55366516,2.4606476,8.595779,0.3305664,-0.39317322,0.5931549,-0.5439894,-0.6988945,-1.1894464
1570726879,0.52612305,2.534256,8.508392,0.3177948,-0.4144745,0.5920868,-0.5439894,-0.6988945,-1.1894464
1570726879,0.9109955,2.2164307,9.858719,0.12710571,-0.16093445,0.50154114,-0.38048482,-0.89535904,-0.50865936
1570726879,0.76794434,2.158371,10.163986,0.11112976,-0.044830322,0.49195862,-0.61280584,-1.015136,0.10825634
1570726879,0.7368164,2.4486694,9.463089,0.107925415,0.35784912,0.48023987,-0.35868013,-0.796,-0.5130091
1570726879,0.7368164,2.4486694,9.463089,0.107925415,0.35784912,0.48023987,-0.35868013,-0.796,-0.5130091
1570726879,1.0929565,1.467041,10.29567,-0.08595276,0.216156,0.32791138,-0.15672183,-1.7063661,0.17757988
1570726879,1.1085205,1.5089417,10.333374,-0.087005615,0.2353363,0.32470703,-0.15672183,-1.7063661,0.17757988
1570726879,0.6775665,1.4616547,9.773132,-0.2808838,0.59114075,0.34921265,-0.326486,-1.5911229,-0.23737812
1570726879,0.6775665,1.4616547,9.773132,-0.2808838,0.59114075,0.34921265,-0.326486,-1.5911229,-0.23737812
1570726879,0.09277344,1.482605,10.699081,0.16226196,0.13093567,0.7422943,-0.8504341,-1.3775692,1.0717478
1570726879,0.09277344,1.482605,10.699081,0.16226196,0.13093567,0.7422943,-0.8504341,-1.3775692,1.0717478
1570726880,0.97024536,1.814209,10.480026,-0.15092468,0.42070007,0.9233856,0.042995512,-0.93944836,0.16315842
1570726880,0.97024536,1.814209,10.480026,-0.15092468,0.42070007,0.9233856,0.042995512,-0.93944836,0.16315842
1570726880,0.46148682,1.798645,10.644623,-0.110443115,0.59539795,1.0000916,-0.42837948,-0.9883776,0.55629253
1570726880,0.52194214,1.6454163,10.227432,0.010986328,0.26942444,1.1268616,-0.2702641,-1.0464535,0.0082530975
1570726880,0.65960693,1.3533173,10.676346,0.046142578,0.28433228,1.2046204,-0.21916902,-1.2872047,0.42349148
1570726880,0.38487244,1.1330566,10.99118,0.12496948,0.47288513,1.3324432,-0.39936596,-1.5329175,0.8608217
1570726880,1.5735931,0.94869995,10.967239,0.014190674,0.37594604,1.4411011,0.82108086,-1.636914,0.584013
1570726880,1.5735931,0.94869995,10.967239,0.014190674,0.37594604,1.4411011,0.82108086,-1.636914,0.584013
1570726880,1.2443848,0.8439636,11.434708,0.37532043,0.4622345,1.5465698,0.5646337,-1.8233514,1.1623411
1570726880,1.1833344,0.78889465,11.298233,0.40408325,0.46862793,1.5529633,0.50978065,-1.8414326,1.1836224
1570726880,1.4233551,1.2072754,9.52832,0.1920929,0.403656,1.6030273,0.7866989,-1.5327725,-0.84285545
1570726880,1.8764496,0.7691345,12.179901,-0.09339905,0.9650421,1.6658783,1.172343,-1.9105272,1.9293385
1570726880,1.8764496,0.7691345,12.179901,-0.09339905,0.9650421,1.6658783,1.172343,-1.9105272,1.9293385
1570726880,0.044891357,0.041900635,12.0117035,0.13563538,1.3911438,1.6733398,0.08129282,-2.479881,2.077239
1570726880,0.044891357,0.041900635,12.0117035,0.13563538,1.3911438,1.6733398,0.08129282,-2.479881,2.077239
1570726880,-0.6075287,-0.32202148,11.168945,0.5478821,0.9405365,1.803299,-0.47844777,-3.070858,1.104495
1570726880,-0.9145813,0.16281128,9.986221,0.77905273,0.5804901,1.9598846,-0.8106571,-2.695957,-0.14693451
1570726880,-0.099365234,1.8746643,9.849747,0.2559967,0.89260864,1.9684143,0.34489366,-1.602427,-0.74706745
1570726880,-0.06703186,1.9027863,9.687546,0.24108887,0.87342834,1.9641571,0.1747673,-1.4644442,-0.1846304
1570726880,0.69252014,1.7788849,8.483261,-0.1519928,0.69233704,1.7372437,1.0949036,-1.2239141,-1.440258
1570726880,1.1833344,1.3257904,10.33757,-0.56425476,0.59114075,1.4134064,1.4339107,-1.6835256,0.08361149
1570726880,1.1833344,1.3257904,10.33757,-0.56425476,0.59114075,1.4134064,1.4339107,-1.6835256,0.08361149
1570726880,0.40402222,1.5981293,9.756973,-0.695282,0.67315674,1.2802582,0.8882501,-1.2290595,-0.423069
1570726880,1.0115509,1.6107025,9.837173,-0.79008484,0.6571808,1.0650635,1.6217691,-1.0084412,-0.5283241
1570726880,-0.34176636,2.0284882,11.50235,-0.42790222,0.28433228,0.9138031,0.960591,-0.50326824,1.2789488
1570726880,-0.8744812,1.4359283,10.116104,0.024841309,-0.2855835,0.9393616,-0.47366527,-1.040936,-0.076140404
1570726880,1.9907837,2.6264343,12.140396,0.08236694,0.35464478,0.7316437,2.198073,0.1432836,1.7914762
1570726880,-0.6248932,2.094925,9.5247345,0.039749146,0.43774414,0.6687927,0.05298689,-0.37208366,-0.41684532
1570726880,-0.6248932,2.094925,9.5247345,0.025909424,0.39512634,0.68795776,-0.16067576,-0.4651332,-0.6423969
1570726880,0.11253357,2.103302,10.6548,-0.1519928,0.16609192,0.72525024,0.62706125,-0.32296872,0.49484444
1570726880,0.13348389,2.032074,10.630859,-0.09660339,0.2268219,0.67837524,0.42056915,-0.5350628,0.40693665
1570726880,0.16938782,2.2966309,10.986984,-0.22335815,0.8713074,0.4397583,0.9067869,-0.070435286,0.3003893
1570726880,0.16938782,2.2966309,10.986984,-0.22335815,0.8713074,0.4397583,0.9067869,-0.070435286,0.3003893
1570726881,-0.8265991,1.4742279,10.412384,-0.06251526,0.54000854,0.3843689,0.33685613,-0.7366812,0.17747974
1570726881,-0.33039856,1.8704681,9.840164,-0.027359009,0.2076416,0.18835449,0.90280515,-0.5793476,-0.433259
1570726881,-0.48483276,1.8704681,9.840164,-0.027359009,0.2076416,0.18835449,0.6923011,-0.5441568,-0.45559978
1570726881,-0.44891357,1.5891571,9.992798,-0.109375,0.3280182,0.22244263,0.49915344,-0.8664682,-0.16651535
1570726881,-0.7739258,1.2701263,10.315414,-0.44387817,0.7125702,0.100997925,0.8208289,-0.8410077,-0.009223938
