time,ax,ay,az,gx,gy,gz,la_x,la_y,la_z,fox,foy,foz
1570726688,-3.0902405,7.5480347,8.541504,-0.78767395,-0.40379333,-0.7088318,-1.1647599,0.71170664,1.1808834
1570726688,-3.7306824,7.406769,8.986832,-1.263855,-0.6104584,-0.63319397,-1.617742,0.78376484,1.3291368
1570726688,-4.694351,7.419937,9.897827,-1.4662476,-1.1271057,-0.5128174,-2.6710296,1.1693206,1.9043703
1570726688,-4.773361,8.098694,10.42215,-1.0550537,-1.2954254,-0.52560425,-3.0437074,1.9957232,2.1938562
1570726688,-3.78096,8.283051,9.822403,-0.6928711,-0.65093994,-0.60336304,-2.090698,2.425439,1.2866879
1570726688,-3.7630157,8.110672,8.82402,-0.79299927,0.5165863,-0.8494415,-1.941304,2.514464,0.16053295
1570726688,-5.3036804,7.66893,9.906204,-0.89953613,0.44522095,-1.078476,-3.0338144,2.3504672,0.95438766
1570726688,-4.962509,6.7926636,9.308853,-0.45425415,0.42710876,-0.9879303,-2.4201212,1.6950808,0.43702602
1570726688,-3.5559082,6.1198883,8.697128,-0.5970001,0.065979004,-0.4915161,-0.8353858,1.1404419,-0.2651291
1570726688,-2.416275,5.773926,7.925003,-0.04624939,0.45480347,-0.011077881,0.6739299,0.9386449,-1.0551281
1570726688,-2.6042175,5.8122253,8.09259,1.0147552,0.8042145,0.63020325,0.55280566,0.6411152,-0.8120136
1570726688,0.33467102,5.4650726,7.522766,0.79637146,-0.58062744,0.96043396,3.1639626,0.38977575,-1.5176153
1570726688,1.8442078,3.3629608,6.31131,-0.15704346,-2.3010406,0.9891968,4.169287,-2.6092916,-2.447649
1570726688,-0.28424072,4.442749,7.782547,0.33618164,-1.2517548,0.6706848,1.9152073,-1.342175,-0.77401924
1570726688,1.12117,6.0169373,7.2905426,0.17318726,-2.0283203,-0.015335083,1.0552852,-0.85497665,-1.2090788
1570726688,-2.0068665,7.5133057,11.827545,0.21792603,-0.5241699,0.27653503,-0.44550872,1.889152,3.6298265
1570726688,0.089263916,4.815048,6.556717,1.0903778,0.6880951,0.35643005,1.1328735,-1.2750869,-1.850194
1570726688,0.7871704,4.7061157,5.530792,1.0744019,1.8396454,0.16575623,2.0000122,-1.9299011,-2.7889462
1570726688,-1.1329803,6.9063873,7.474884,0.26586914,1.0481567,0.12741089,0.53329456,0.39956808,-0.70351696
1570726688,-4.2717743,5.8014526,7.957321,-0.40631104,-0.9225769,0.32341003,-2.1463428,-0.7533784,-0.99390984
1570726688,-1.4059143,6.5664062,7.9872437,-0.4883423,-0.53163147,0.34898376,0.0315125,0.19556236,-0.31947517
1570726688,-2.0188293,5.0341187,8.433762,-0.039855957,0.16079712,0.58013916,-0.6377598,-1.0550461,0.13141537
1570726689,-2.2965546,5.885254,9.076614,-0.018554688,-0.06504822,0.6515198,-1.172594,-0.43433,0.7383337
1570726689,-1.401123,6.8273773,8.673187,0.47253418,0.99809265,0.9263458,-0.293877,0.43670988,0.44746685
1570726689,0.6387329,9.018066,6.498047,0.58226013,1.4508209,0.67814636,1.8279779,2.4174209,-1.5992842
1570726689,-1.8201141,4.8365936,8.916199,-0.07821655,0.3035431,0.2808075,-0.34463763,-1.8305435,0.90902615
1570726689,-1.6381531,7.581543,7.983658,0.44056702,0.72006226,0.31808472,-0.18318439,0.9445653,-0.1389122
1570726689,-1.198822,6.750763,7.102585,0.8347168,0.70513916,0.38093567,0.33027852,-0.16817379,-0.65121937
1570726689,-1.0731201,6.467041,7.418625,0.33511353,0.068115234,0.23179626,0.50887764,-0.56661224,-0.3399949
1570726689,-1.3065643,7.3971863,7.9381714,-0.054779053,-0.75001526,0.14550781,0.090200424,0.298779,0.1958456
1570726689,-1.0767212,7.3193817,7.7131042,0.47572327,-0.6967468,0.33833313,0.2127732,0.19656467,-0.013349533
1570726689,0.06651306,6.617874,6.557907,0.83792114,-0.23442078,0.42248535,1.0748451,-0.6742258,-1.0366106
1570726689,-0.62301636,8.245941,7.347992,0.5194092,-0.4709015,0.37774658,0.09146625,0.6293745,-0.20067358
1570726689,-0.62301636,8.245941,7.347992,0.5194092,-0.4709015,0.37774658,0.09146625,0.6293745,-0.20067358
1570726689,-0.62301636,8.245941,7.347992,0.5194092,-0.4709015,0.37774658,0.09146625,0.6293745,-0.20067358
1570726689,-0.32014465,7.758713,5.1596985,2.3250275,1.2974243,0.8059845,0.8570179,-0.57581425,-0.7600436
1570726689,-1.0036926,8.536835,6.399887,2.1982574,0.18209839,1.9916229,-0.5724304,-0.420269,0.87885284
1570726689,1.4743042,8.211227,4.210388,1.5910645,0.69129944,1.1085205,1.6467147,-1.3186674,-0.9819164
1570726689,0.9619446,8.306992,4.621002,0.3020935,-0.8341675,0.67282104,0.7584988,-0.9957638,-0.041887283
1570726689,0.62675476,8.781036,4.9394226,-0.45425415,-1.1825104,0.009155273,0.10023528,-0.51571465,0.2655692
1570726689,-0.063964844,8.675705,5.498474,-0.38075256,-0.5657196,-0.6481018,-0.5294747,-0.56239986,0.6735954
1570726689,-0.2459259,8.749924,5.605011,-0.072891235,-0.5944824,-0.77700806,-0.7022175,-0.476449,0.78192234
1570726689,-0.32014465,8.662537,5.522415,0.35108948,-0.890625,-0.68751526,-0.6321949,-0.55117893,0.7102828
1570726689,-0.20523071,8.119049,4.917877,0.4512329,-0.2205658,-0.67581177,-0.38287318,-1.1708794,0.23788214
1570726689,-0.17170715,8.886383,5.0926514,-0.19859314,-0.8629303,-0.63319397,-0.22384793,-0.43788242,0.40093422
1570726689,-0.10467529,9.043213,5.2039948,-0.2784729,-0.9939575,-0.60124207,-0.21822271,-0.28655148,0.52154064
1570726689,-0.7295532,9.038422,5.098648,-0.018554688,-0.2876892,-0.23052979,-0.82805675,-0.14475536,0.27879047
1570726689,-1.4035187,9.383179,6.2550354,0.06452942,-0.24932861,-0.05155945,-1.4064447,0.116950035,1.3717437
1570726689,-1.4621735,9.94223,6.2670135,0.5151367,-0.22802734,0.34365845,-1.6456237,0.6946974,1.580481
1570726689,-0.73913574,9.622604,5.1046295,0.5300598,1.0002289,0.22647095,-0.83528984,0.33076763,0.5043907
1570726689,-2.0020752,9.410721,5.9892883,0.19662476,0.64656067,-0.012145996,-1.9312477,0.01694107,1.3018179
1570726689,-0.8935547,11.590637,5.6337433,0.82299805,1.292099,-0.08457947,-0.89021766,1.7133656,1.6295433
1570726689,-0.023269653,13.235458,3.975769,1.8978577,2.42128,-0.25608826,0.353211,3.3809786,0.2133069
1570726689,-0.66012573,12.488464,3.6322021,1.7093048,1.3688049,-0.98153687,0.27803165,2.439681,0.14443922
1570726689,-1.3795776,12.323257,3.2000427,1.4195557,0.6891632,-1.4012451,-0.039090276,2.296523,0.19947314
1570726689,-1.4442291,11.393112,3.2910156,1.3971863,0.92459106,-1.16156,0.38640964,1.4625444,0.8291025
1570726690,-2.941803,9.352066,2.433899,0.12844849,0.99702454,-1.0976562,-0.7596507,-0.44856644,0.5417321
1570726690,-2.0499573,8.366852,-0.023757935,0.68878174,0.8638611,-0.7386627,-0.06827593,-1.4091568,-1.7225809
1570726690,-2.0774841,7.537262,-0.02255249,1.1116943,0.3131256,-0.22200012,0.6827562,-2.5256586,-1.7633597
1570726690,-1.313736,7.7694855,-0.03453064,1.16922,0.7062073,-0.027053833,1.2024546,-2.2960587,-1.2327497
1570726690,-1.0024872,7.74794,-0.5444946,0.61528015,0.2524109,-0.4638214,1.7596359,-2.3316936,-1.4107442
1570726690,-1.1760712,8.69725,-0.8018646,0.39796448,-0.10232544,-0.60124207,1.9543495,-1.3839569,-1.593029
1570726690,-2.4581757,9.909912,-0.2715454,0.33511353,-0.12895203,-0.6395874,1.0512886,-0.34832573,-1.0611528
1570726690,-2.570694,11.369171,0.043289185,0.18383789,-0.80540466,-1.1189575,0.85013103,1.4176359,-0.61502874
1570726690,-4.178406,10.993286,0.6466217,-0.056900024,-0.0032653809,-0.9080353,-0.47461247,1.2794409,-0.031512797
1570726690,-3.9401855,6.735199,-0.4163971,0.0048828125,0.4878235,-0.7375946,-0.08183241,-2.84867,-1.0417655
1570726690,-5.9812317,4.5193634,1.2667236,0.38198853,-0.22695923,-0.3327942,-1.5382199,-5.3526897,0.2223826
1570726690,-5.571823,4.284729,2.066391,1.218216,-0.17475891,0.6387329,-1.9108195,-5.229699,1.365647
1570726690,-5.127701,2.8039246,0.36650085,1.9457855,0.33869934,0.7772217,-0.8603568,-7.231329,0.3178401
1570726690,-0.9905243,9.390366,1.413971,3.3721771,1.6947784,1.1628418,2.5617967,-2.127843,2.8631876
1570726690,6.0161133,23.518555,-12.653168,1.2714844,-4.110916,2.1226501,7.8724895,9.629221,-9.349923
1570726690,-1.5495758,15.289673,-5.708786,0.6877136,-0.667984,1.5814972,3.872394,7.3401375,-5.5612607
1570726690,-5.282135,12.996033,1.9047852,0.38838196,0.11817932,2.5796509,-3.8674107,2.9174833,3.6513124
1570726690,-5.5814056,8.468597,1.3565063,-0.07394409,0.3269806,2.231308,-3.0976896,-0.626276,2.9485142
1570726690,-1.2251587,5.4123993,3.5926971,-1.3064575,-0.93003845,2.7713928,-1.3457518,-5.459553,3.4232383
1570726690,-0.3045807,5.261566,-0.8377838,-2.0127258,-0.7180481,2.662735,-0.43693784,-5.7744904,0.36060166
1570726690,-14.426788,40.020584,1.9610443,-1.8358917,-0.2962036,6.832184,-13.35467,28.711926,2.556145
1570726690,38.37375,11.747452,9.506363,0.79104614,2.4969177,4.480072,34.405903,6.4189196,12.092232
1570726690,-7.8535004,1.3302917,-6.847229,0.029388428,1.9344635,-1.606842,-11.858131,-7.2790947,-14.812303
1570726690,2.793518,10.9118805,1.6438141,0.0048828125,-2.195572,-0.4073639,-1.6203303,1.1651964,1.6105065
1570726690,3.0377197,9.443039,1.2056732,0.7324524,0.24069214,-0.4201355,-0.9693308,0.41960144,1.5280155
1570726690,3.8397827,7.236786,-0.59477234,0.54177856,1.9994354,-0.69818115,0.5755377,-2.9161386,-0.46373862
1570726690,3.2663727,11.940186,-2.0336761,-1.1328278,1.7459106,-0.16447449,0.013612747,1.7659788,-2.135804
1570726690,2.8509674,8.965393,-0.5792084,-0.5714264,0.6358948,0.36495972,-0.78320885,-0.4481783,-1.3741115
1570726690,0.80752563,9.871597,-2.3389435,1.0573578,-0.80007935,0.7260895,-2.3366127,0.15443707,-2.1647322
1570726690,1.2899475,7.442688,-2.550827,1.36203,0.7573395,0.95191956,-2.7147827,-2.5752401,-0.13089436
1570726690,4.722046,9.062363,-0.58039856,0.4831848,-0.10658264,0.39479065,-0.07048464,-0.6402979,0.36307073
1570726690,1.4587402,7.9191284,3.9027405,0.6046295,-2.2903748,0.4842682,-3.0612822,-2.1136408,9.535697
1570726690,1.7137299,8.907928,-4.954605,-0.06755066,-0.45812988,0.32661438,-2.2481093,-0.6319752,-4.153495
1570726691,3.0473022,11.994064,-1.4399261,0.7814636,-0.12895203,-0.05581665,-1.0632291,2.2369947,1.558578
1570726691,1.6419067,11.733093,-0.22007751,0.21792603,0.18849182,0.06881714,-2.2294345,2.2316723,1.0700856
1570726691,5.6186676,12.962509,-2.5675964,0.15081787,-1.6160736,-0.30722046,1.2249808,3.3648462,-1.0824469
1570726691,5.5085297,13.426987,-2.8536987,0.8176727,-3.4611053,-0.6204071,1.4237697,3.9785814,-0.6891154
1570726691,7.391571,12.49205,-6.7023773,1.2746735,-3.3556519,-1.8220367,4.0865726,2.8227215,-4.115466
1570726691,6.7918243,14.092575,-0.4918213,1.0552368,-2.5769348,-2.0404053,4.3248444,4.2838926,2.5902498
1570726691,4.8034515,15.169968,-1.1370544,0.58758545,-2.0549622,-0.9932556,3.345604,5.9141874,2.5700586
1570726691,3.0233612,11.413467,-2.063614,0.93592834,-0.19714355,-0.82281494,2.1645193,1.6206369,1.9921901
1570726691,-2.7071686,9.846466,0.4862213,0.3521576,-0.6690521,-1.1935272,-1.1743528,0.026088715,2.9234812
1570726691,3.6985168,9.087494,-3.2056427,-0.1719513,-0.023498535,-0.2443695,3.5154233,-0.6014919,0.22785139
1570726691,3.5728302,8.388397,-1.7272186,-0.13467407,0.34614563,-0.40629578,3.1290815,-1.149023,2.1088352
1570726691,2.0644836,7.0225067,-1.5919495,-0.6651764,-0.16091919,-0.82388306,1.1035175,-2.6570053,2.1815562
1570726691,0.0030670166,3.8633575,0.67774963,-0.87609863,-0.45173645,-0.29977417,-1.2307701,-5.234865,3.7067213
1570726691,-0.53681946,3.0481262,1.6210632,-1.1786346,1.020462,0.2893219,-0.76637197,-8.002696,4.797014
1570726691,4.240814,5.0736237,-1.0017853,-1.6111298,2.117691,0.109298706,3.0572782,-4.7266836,1.3623879
1570726691,2.106369,6.0971375,-1.8996124,-1.9115295,1.9792023,-1.0475769,0.6570999,-3.7397404,0.078764915
1570726691,-1.22995,8.273468,-3.8843994,-2.045761,0.99916077,-1.970108,-1.3194919,-2.2211676,-1.8645738
1570726691,-5.4664764,14.175186,-5.1533356,-0.38394165,-1.0440216,-1.6313477,-4.66864,3.599105,-3.4106035
1570726691,-3.3188782,11.1094055,-7.037567,-0.19325256,-2.579071,-1.7708893,-2.4851341,0.59943295,-6.0220156
1570726691,0.34423828,12.283752,-2.9003906,0.581192,-1.3390961,-1.7229614,1.5964532,1.4979687,-2.3628383
1570726691,2.200943,14.857529,6.3615875,0.29782104,-3.1330109,-3.005539,4.4634123,4.631501,7.875655
1570726691,-3.1704407,21.757614,-3.8532715,-0.004714966,-1.0227203,-2.7264404,-0.5187557,11.980106,-3.4009047
1570726691,-8.888992,12.299316,-0.7815094,-0.31469727,1.4561615,-0.5788727,-6.880233,3.994483,-0.08790052
1570726691,-1.8500366,15.646423,1.9311218,0.124191284,1.1035461,-0.003616333,2.1972644,5.56386,3.3728166
1570726691,-3.2290955,10.928635,2.7810516,-0.39033508,1.401825,0.13699341,0.97142816,1.5273829,3.910058
1570726691,-4.4226074,12.41304,1.4319305,-0.33067322,0.2662506,0.21688843,-1.1664586,2.3916159,2.6376839
1570726691,-2.5263977,10.561127,0.23960876,-0.17941284,-0.37823486,0.35856628,0.029065847,1.224083,0.9248841
1570726691,-2.3983154,9.632187,0.21566772,-0.07608032,-0.78196716,0.655777,0.73291135,-0.5514469,0.83505666
1570726691,-1.7746277,7.8880005,0.046875,-0.10484314,-1.2197876,0.6941223,1.1038625,-2.2178898,0.85793614
1570726691,-2.265442,6.6777344,-1.230423,0.2541504,-1.0876923,0.6323395,0.49828863,-3.4681883,-0.53104764
1570726691,-2.8699646,5.9271545,-0.38168335,0.8176727,-1.066391,0.41183472,-0.2922542,-4.2226486,0.319234
1570726691,-2.0224304,6.0564423,-1.6733551,0.6014252,-1.3124695,0.19451904,0.42258453,-4.082453,-0.84070915
1570726691,-2.309723,7.030884,0.095962524,0.44696045,-0.9161835,0.19877625,0.19088626,-3.097434,1.018062
1570726692,-1.8955383,8.395569,-0.2212677,0.40968323,-0.39527893,0.35430908,0.48027372,-1.6954994,0.79093885
1570726692,-4.499222,10.696411,-3.1457825,0.5534973,0.25027466,0.37347412,-1.9878144,0.38187885,-1.9316332
1570726692,-5.028351,9.640564,-2.7100525,1.8158264,-1.2208557,0.24777222,-3.0626948,-0.11769867,-1.2262456
1570726692,-4.8260345,9.541199,0.07800293,1.1585541,-1.1111298,-0.13677979,-2.2969143,-0.4657812,2.0320518
1570726692,-5.0187683,10.284607,-2.772293,0.5566864,-0.2727661,0.25737,-2.6915798,0.35452843,-0.5543637
1570726692,-2.5539398,14.724655,-2.5867462,0.7548218,0.5623932,0.37242126,-0.28346515,4.632079,-0.44112158
1570726692,-0.7068176,16.79802,-3.337326,1.4376678,0.27796936,-0.14317322,1.0912466,6.834608,-0.67392516
1570726692,-2.2223358,16.02829,-4.879196,1.4855957,0.22790527,-0.9037781,0.067279816,6.3212347,-1.7672219
1570726692,-0.47457886,13.296509,-3.7778625,1.3684235,1.6319275,-0.65556335,1.9654231,3.7154808,-0.12187958
1570726692,0.5501404,13.423401,-2.554428,0.8826599,1.3304596,-0.5319977,3.0110207,3.831008,1.4939666
1570726692,-0.49612427,10.440231,-2.432312,0.62272644,0.651886,-0.50109863,1.965744,1.2462425,1.9292927
1570726692,-0.21839905,7.7898407,-1.8002472,0.184906,0.591156,-0.23478699,2.272345,-1.4652805,2.678053
1570726692,0.45437622,7.801819,-1.7176514,-0.18367004,-0.07356262,-0.13677979,2.858555,-1.4918289,2.8003902
1570726692,0.7464752,7.4450836,-2.1174774,-0.72802734,-0.1694336,0.0048980713,3.2199159,-1.8723793,2.1657972
1570726692,0.48550415,6.687317,-1.2172546,-0.8792877,-0.0128479,0.3330078,2.8890119,-2.6890278,2.827836
1570726692,0.046173096,6.0528564,-1.1179047,-1.0071259,0.05532837,0.79852295,2.280781,-3.3656101,2.6855502
1570726692,-0.7235718,5.582382,-1.0843811,-1.1328278,0.089416504,1.0754852,1.2702533,-4.128646,2.365635
1570726692,-2.510849,6.197693,-1.5165405,-1.2787628,0.51553345,1.38974,-0.8718469,-3.7051373,1.6253784
1570726692,-3.7450562,7.849701,-3.8365173,-1.7964783,0.6284485,1.4131775,-2.5357265,-2.4501238,-1.3319128
1570726692,-5.069046,11.867172,-6.8843384,-2.7062225,0.5070038,0.911438,-4.2465396,1.372632,-4.961096
1570726692,-4.360367,9.237137,-5.712372,-0.8260193,0.5623932,0.0048980713,-3.895134,-0.4958191,-4.1339893
1570726692,1.0744781,10.452194,-8.061081,0.5289917,0.59754944,-0.5650177,1.3061748,-0.54045296,-6.3079767
1570726692,2.3158722,15.123276,-0.676178,1.5814667,-0.23760986,-0.9165497,3.075206,4.6761503,0.00639081
1570726692,4.101944,16.868652,-0.32781982,0.63871765,-1.3923645,-0.49790955,4.3932257,6.267538,3.8031664
1570726692,0.74887085,12.574661,6.2550354,0.36813354,-0.40592957,0.0027618408,2.5136852,2.7889128,8.0163145
1570726692,-3.8264618,13.890274,-2.6753235,0.7047577,1.6340485,0.99879456,-2.0909588,2.2464695,0.6612048
1570726692,-5.0822144,21.227295,-1.5356903,-1.5088654,1.8843842,2.5423584,-4.921268,11.049622,0.4089067
1570726692,0.5896454,10.094269,2.0651855,-1.0539856,0.27796936,0.96577454,0.28906575,0.63273144,3.9109757
1570726692,0.027008057,9.092285,1.6282501,0.36706543,-0.013916016,-0.7588959,-0.2985622,-1.5007801,3.197989
1570726692,0.7153473,12.780563,0.89801025,-0.23373413,-1.8823853,-0.78126526,0.8059385,2.0812922,2.6450272
1570726692,0.95835876,11.690002,-0.5432892,-0.9240265,-1.4669342,-0.037704468,1.1173921,1.3495283,1.0564318
1570726692,-0.7953949,9.347275,-2.511322,-1.6079254,0.1639862,0.38839722,-0.76129025,-0.914505,-1.7063252
1570726692,-0.333313,8.080734,-0.8270111,-1.1275024,-0.31217957,0.17747498,-0.17474976,-2.3490105,-0.37441325
1570726692,0.4400177,7.3576965,-1.6697693,0.5577545,-0.49647522,0.29252625,0.49478486,-3.2458496,-1.1946054
1570726693,-0.60624695,7.680908,-1.5249176,0.407547,-0.1662445,0.43206787,-0.42467064,-2.8932886,-1.1408994
1570726693,-1.7949677,7.8532867,-3.3540802,0.52259827,-0.82351685,0.4065094,-1.9661133,-2.6462498,-2.3083863
1570726693,-1.2790222,7.593521,-1.5129395,1.5527039,-0.77557373,0.06349182,-1.5695134,-2.7712898,-0.6310953
1570726693,-1.8237,8.487747,-1.8373566,1.2618866,-0.15878296,0.25097656,-1.9596828,-2.0399675,-0.42782176
1570726693,-2.79216,9.872803,-0.75398254,1.1010437,0.79888916,0.35430908,-2.6002097,-0.7426357,1.6294714
1570726693,-4.832016,13.692749,-1.020935,0.09649658,1.2090149,0.6238251,-5.203363,3.036024,1.2549524
1570726693,-3.9988403,13.066666,-2.7076569,0.33618164,-0.51138306,-0.0952301,-5.0265164,3.1825247,0.67990017
1570726693,0.9930725,14.871887,-7.1860046,1.8669586,0.47930908,-1.2425232,0.41984385,3.9428167,-5.2326527
1570726693,3.947525,14.932938,-1.028122,2.2675018,1.1014252,-1.1903229,3.533381,4.8182077,1.9668033
1570726693,4.9626617,15.816406,-1.8457336,1.2224731,-1.1281738,-1.3778076,5.4203353,5.6910496,2.01996
1570726693,1.7197113,15.536285,-5.0276337,0.84536743,-0.8629303,-1.0731506,2.9522684,5.957737,-0.9150381
1570726693,-2.333664,12.617752,-2.3988037,0.7740021,-0.6179199,-1.1679535,-1.0408748,3.5908775,1.6768584
1570726693,-0.49372864,7.483383,-1.9367218,0.27012634,0.14482117,-0.9506378,0.6201565,-1.6862011,2.5081115
1570726693,1.2348938,5.510559,-1.6577911,-0.01322937,0.5389557,-0.60336304,2.8062334,-4.027254,2.6635008
1570726693,0.68421936,6.913559,-1.4554901,-0.28700256,0.23323059,-0.42973328,2.4636922,-2.7797241,2.7825046
1570726693,1.1115875,7.296631,-1.6362457,-0.55651855,0.4580078,-0.14317322,2.6792111,-2.2050018,2.54252
1570726693,2.539734,6.613098,-0.33021545,-0.6992645,0.72325134,0.32022095,4.0599446,-2.9752655,3.610805
1570726693,2.0369415,5.8708954,-0.7336273,-0.98687744,0.29608154,0.7889404,3.5308232,-3.720975,3.1625957
1570726693,1.1247559,4.991028,-1.2328186,-1.4364166,-0.21844482,1.2310181,2.2316947,-4.8334427,2.170015
1570726693,-1.784195,5.988205,-2.7663116,-1.648407,0.5325775,1.8499298,-0.63341457,-4.414094,0.4831891
1570726693,-4.436981,10.884354,-5.8644104,-2.3365784,2.804779,2.0523376,-4.489268,-0.2083416,-2.8893523
1570726693,-5.140869,16.140823,-4.9474335,-2.107544,0.9586792,0.32234192,-5.515692,6.0563593,-3.2712553
1570726693,0.765625,8.601471,-7.1261444,-0.36689758,0.07450867,-0.6076355,-1.0342312,-1.1272583,-5.7428007
1570726693,6.2890472,12.638107,-3.870041,0.86561584,-0.6530762,-1.0433197,5.392848,1.3895702,-4.2609982
1570726693,5.1984863,18.015472,1.3684845,0.91674805,-1.0227203,-1.0220184,5.6511393,7.2034817,2.4108663
1570726693,2.963501,13.0941925,3.4298859,0.6088867,-0.9875641,-0.0057525635,3.1855695,3.595252,6.133695
1570726693,-1.5172424,16.970413,-3.9251099,0.21154785,0.368515,0.944458,-1.4242289,5.002573,0.03110671
1570726693,-3.0064392,16.97879,2.1106873,-1.3810272,1.831131,1.1862793,-3.4434144,7.181937,3.5151186
1570726693,-2.306137,9.870407,1.1733551,0.4224701,-0.050125122,-0.13145447,-2.9451175,-0.7305155,2.9432425
1570726693,0.38974,10.923859,1.4259338,0.53964233,-0.71058655,-0.8121643,-0.14476845,0.27088737,3.0825
1570726693,1.7484436,12.091034,0.6071167,-0.46064758,-1.8674774,-0.60336304,1.7027578,1.723321,2.5880322
1570726693,1.5413513,9.098267,-1.2711334,-1.3607941,-1.7268524,-0.16767883,1.7549393,-1.1904488,0.3071183
1570726693,-0.5356293,8.291428,-2.8716583,-1.9402924,-0.10232544,0.37561035,-0.4323495,-2.1868362,-1.9827924
1570726694,-1.3700104,7.6234436,-1.6158905,-1.5152588,-0.34947205,0.45550537,-1.2782785,-2.883071,-2.043144
1570726694,-1.372406,6.4407043,-3.4929504,1.5803986,-1.3934326,0.08265686,-1.6393304,-4.2330093,-3.0337014
1570726694,-1.0455933,8.126221,-1.1825409,1.265091,0.07237244,0.30317688,-0.7651381,-2.536767,-0.40909058
1570726694,-1.4777374,7.8054047,-1.7487793,0.5534973,-0.20033264,0.4650879,-1.6732154,-2.6947336,-0.55892324
1570726694,-2.0810852,8.643372,-2.4526672,0.8784027,-0.714859,0.15829468,-2.2357624,-2.115241,-0.6805258
1570726694,-2.3204956,11.139328,0.069625854,1.1905212,-0.32496643,0.29571533,-2.6767573,0.6608486,1.9578115
1570726694,-3.9186249,11.432617,-3.0177002,0.32232666,0.54855347,0.5098419,-4.0527706,1.2541332,-1.0979407
1570726694,-4.645279,12.295731,-0.9646759,0.27012634,1.0428314,0.2658844,-5.175469,2.2038488,0.9293841
1570726694,-2.6724548,16.254547,-3.8891907,0.69410706,0.4100647,-0.41481018,-3.362822,5.9942427,-1.8130755
1570726694,1.5437317,14.651627,-6.867569,2.0970612,0.8340454,-1.0454559,0.61910176,4.281008,-3.8134754
1570726694,5.1350403,14.027939,-1.9702301,2.4794922,0.21511841,-1.9051208,4.9735503,3.403658,0.793283
1570726694,4.781891,17.758102,-3.6378021,1.5612335,-0.37716675,-1.3735504,5.3768406,7.6664553,0.2710476
1570726694,0.17904663,16.878235,-2.5999146,1.1585541,-0.939621,-0.57780457,1.9514347,8.837139,2.1258645
1570726694,-1.945816,7.9861603,-2.103119,0.40647888,-0.71165466,-0.6864624,-0.8554646,-1.5889692,2.4010792
1570726694,0.025817871,6.4850006,-2.8249664,0.15614319,0.31951904,-0.70562744,1.2335018,-2.956562,1.8631978
1570726694,-0.18487549,5.700897,-0.94192505,-0.14212036,0.6934204,-0.50642395,1.2329661,-3.8060408,3.505311
1570726694,1.2061615,4.4403534,-0.5708313,-0.37008667,0.64442444,-0.16021729,2.7268677,-5.1513424,3.860323
1570726694,2.0800476,4.909622,-0.6546173,-0.75679016,1.0162048,0.3638916,3.338638,-4.707901,3.6310587
1570726694,1.9555359,4.8557434,-0.6067352,-1.1828918,1.1387024,0.7409973,2.9136329,-4.8300943,3.469439
1570726694,1.7268982,5.3369904,-1.1035309,-1.7687836,0.7530823,1.0520477,2.3123436,-4.597846,2.520599
1570726694,-0.8540497,8.782242,-2.6633606,-2.1757202,1.1344452,1.3204956,-0.63703907,-1.3660002,0.36762953
1570726694,-2.9633484,11.479309,-3.7383575,-2.4345703,1.9163513,1.1617737,-3.0836723,0.634655,-0.42414188
1570726694,-3.9689178,12.299316,-6.416275,-2.1341705,0.5538788,0.16682434,-4.6633363,2.2119045,-4.8484864
1570726694,0.8278656,8.092712,-6.965744,-0.7440033,-0.5369568,-0.4393158,-1.6305931,-1.9908934,-6.904007
1570726694,7.302994,13.568253,-1.9989624,1.3545685,-0.089538574,-1.2755432,6.92197,2.5903397,-0.69640756
1570726694,4.2647552,19.575302,6.814087,-0.45425415,-0.37823486,-0.60549927,4.447152,9.453552,7.2244625
1570726694,2.631897,10.629364,1.7958374,1.0701447,-2.3010406,0.38519287,2.5709617,0.25552273,4.00587
1570726694,-1.2431183,16.267715,-0.4547119,0.25201416,1.1823883,1.0754852,-1.4056132,5.4845085,0.9730687
1570726694,-2.373169,21.057312,-2.7770844,-0.60658264,3.2244873,1.3748322,-2.9904737,10.625411,-0.97329295
1570726694,-2.0870667,12.803299,4.2151794,-1.6505432,0.8872986,0.5322113,-3.2177207,2.6603212,5.1551647
1570726694,-0.11784363,10.751465,0.15701294,-0.47769165,-1.033371,-0.52667236,-1.1129228,0.0135240555,1.0076704
1570726694,0.59443665,10.506058,0.8896332,-0.48620605,-1.6277924,-0.7876587,-0.3480624,0.19671726,1.6204898
1570726694,0.74887085,7.961029,0.5388794,-0.6705017,-2.0453644,-0.54904175,0.25179398,-2.5888834,1.1248498
1570726695,1.0038452,6.821396,-3.4725952,-1.2468109,-1.4573364,-0.13571167,0.6654005,-3.8626795,-2.9111247
1570726695,0.66625977,6.7447815,-3.067978,-2.1160583,0.46012878,0.19238281,0.3227958,-3.8745232,-3.3177483
1570726695,-0.085510254,5.9702454,-0.81503296,1.4536438,-2.0464325,0.0017089844,-0.55012715,-4.5647097,-1.2519641
1570726695,-0.13699341,6.5041504,-1.7128601,1.8669586,-1.6650696,0.35643005,-0.6386273,-4.128228,-1.4239222
1570726695,-1.7758179,9.713577,-0.8868561,0.96362305,-0.15985107,0.73353577,-2.3338342,-0.9408188,-0.1430605
1570726695,-3.1464996,10.391144,-0.088394165,0.29782104,0.43989563,1.1319427,-4.0391026,0.03290558,0.67814344
1570726695,-5.0786285,11.367981,-2.4778137,0.34895325,0.26412964,1.4238281,-6.539583,0.8436794,-1.6429012
1570726695,-5.2534027,14.474457,-3.8568726,1.2768097,1.0023499,0.8943939,-6.562542,3.173955,-1.4588813
1570726695,-4.290924,14.1332855,-3.8652496,1.7178192,1.4167328,-0.103759766,-6.298747,3.8713007,-2.180184
1570726695,2.0405426,16.22821,-5.6345673,3.0579224,2.3765411,-1.9669037,0.22571886,5.97952,-3.636641
1570726695,6.687683,17.560577,2.8229523,2.8960114,0.56985474,-2.733902,5.6990795,7.361808,5.8402376
1570726695,3.971466,15.204681,-0.097976685,1.5601654,-1.2847748,-1.7719574,3.90912,5.3797407,3.5803382
1570726695,-2.5802765,13.120529,-0.83418274,0.6568146,0.72006226,-0.34770203,-2.1122406,3.2064047,3.4286199
1570726695,-3.432602,11.263824,-3.665329,0.3052826,0.72006226,-1.1466522,-3.2927186,1.3717766,0.70380783
1570726695,-1.6022491,10.2438965,-4.119034,-0.16555786,2.1208801,-1.603653,-1.076163,0.4836378,-7.9870224E-4
1570726695,-2.014038,8.110672,0.34016418,-0.6971283,2.5906677,-1.5439911,-1.3917356,-1.6858912,4.382449
1570726695,0.35740662,7.035675,1.4295349,-0.9346771,2.3467102,-1.1178894,1.0244241,-2.8687353,5.3754015
1570726695,3.2699585,6.1558075,0.8273926,-1.1136475,1.9163513,-0.6726074,3.9319527,-3.7940617,4.460477
1570726695,3.5512848,4.9706726,-0.20690918,-1.2095184,1.6628113,-0.25502014,4.249923,-5.056138,3.0982661
1570726695,2.3158722,4.5121765,-0.61750793,-1.4108582,1.2644043,0.21795654,3.0854242,-5.5788536,2.3310308
1570726695,0.54296875,4.5037994,-0.6797638,-1.4971466,1.2143402,0.87309265,0.8676329,-5.740921,1.713211
1570726695,-0.6840668,7.4797974,-1.8206024,-1.1125793,2.4404602,1.3950653,-0.87322897,-3.4120207,0.4174111
1570726695,-0.8097687,14.88147,-8.490845,-1.2713013,3.7837524,0.92741394,-1.6054707,4.1009502,-6.3313456
1570726695,-1.5938568,17.580933,-10.900604,0.47679138,0.8148651,-0.6885834,-2.6359913,7.5911846,-10.046168
1570726695,4.4922028,14.403824,-3.8808136,1.3215485,-0.08102417,-0.81855774,2.8029485,3.5956173,-2.6041965
1570726695,8.364822,12.369949,3.5675507,1.7881317,-1.8163452,-0.5927124,8.2239,2.2387466,4.855977
1570726695,7.443054,17.126038,-1.5057678,-0.02708435,-0.20991516,0.3170166,7.3165793,6.6649294,0.13004375
1570726695,0.9535675,15.046661,7.810074,-0.13253784,1.4178009,0.38200378,0.9353262,4.81285,10.498741
1570726695,0.9535675,15.046661,7.810074,-0.13253784,1.4178009,0.38200378,0.9353262,4.81285,10.498741
1570726695,0.9535675,15.046661,7.810074,-0.13253784,1.4178009,0.38200378,0.9353262,4.81285,10.498741
1570726695,0.9535675,15.046661,7.810074,-0.13253784,1.4178009,0.38200378,0.9353262,4.81285,10.498741
1570726695,0.9535675,15.046661,7.810074,-0.13253784,1.4178009,0.38200378,0.9353262,4.81285,10.498741
1570726695,0.9535675,15.046661,7.810074,-0.13253784,1.4178009,0.38200378,0.9353262,4.81285,10.498741
1570726695,0.9535675,15.046661,7.810074,-0.13253784,1.4178009,0.38200378,0.9353262,4.81285,10.498741
1570726696,0.9535675,15.046661,7.810074,-0.13253784,1.4178009,0.38200378,0.9353262,4.81285,10.498741
1570726696,0.9535675,15.046661,7.810074,-0.13253784,1.4178009,0.38200378,0.9353262,4.81285,10.498741
1570726696,0.9535675,15.046661,7.810074,-0.13253784,1.4178009,0.38200378,0.9353262,4.81285,10.498741
1570726696,0.9535675,15.046661,7.810074,-0.13253784,1.4178009,0.38200378,0.9353262,4.81285,10.498741
1570726696,0.9535675,15.046661,7.810074,-0.13253784,1.4178009,0.38200378,0.9353262,4.81285,10.498741
1570726696,0.9535675,15.046661,7.810074,-0.13253784,1.4178009,0.38200378,0.9353262,4.81285,10.498741
1570726696,0.9535675,15.046661,7.810074,-0.13253784,1.4178009,0.38200378,0.9353262,4.81285,10.498741
1570726696,0.9535675,15.046661,7.810074,-0.13253784,1.4178009,0.38200378,0.9353262,4.81285,10.498741
1570726696,0.9535675,15.046661,7.810074,-0.13253784,1.4178009,0.38200378,0.9353262,4.81285,10.498741
1570726696,0.9535675,15.046661,7.810074,-0.13253784,1.4178009,0.38200378,0.9353262,4.81285,10.498741
1570726696,0.9535675,15.046661,7.810074,-0.13253784,1.4178009,0.38200378,0.9353262,4.81285,10.498741
1570726696,0.9535675,15.046661,7.810074,-0.13253784,1.4178009,0.38200378,0.9353262,4.81285,10.498741
1570726696,0.9535675,15.046661,7.810074,-0.13253784,1.4178009,0.38200378,0.9353262,4.81285,10.498741
1570726696,-1.5926666,11.494873,-1.5668182,3.0589905,1.3464355,0.1359253,-4.709152,1.5322018,-1.0733312
1570726696,1.370163,10.150528,-0.035720825,3.7599335,2.9187622,-0.8025665,-1.6908517,-0.1732359,0.2183162
1570726696,2.0058136,12.196365,4.6736755,3.5319672,1.1834412,-1.6632996,-0.40969253,1.6960135,6.6084137
1570726696,1.3988953,13.452133,3.1054688,2.332489,0.26731873,-1.207367,-0.5446681,3.9570408,5.5524054
1570726696,-0.89115906,10.740692,3.2167969,1.7327423,1.8023682,-0.9911194,-2.2149754,0.7914095,6.4119377
1570726696,-2.37677,10.348053,2.8038025,0.9838562,1.8588257,-1.1956482,-3.8862667,0.32114792,6.4015594
1570726696,-1.3412781,10.801743,-0.33738708,0.7313843,1.1919708,-1.7847443,-2.6365294,0.46929264,3.7356844
1570726696,0.034194946,12.724289,-0.53970337,0.4597473,2.7525787,-2.3312225,-1.0807006,2.709118,2.9264743
1570726696,0.53338623,12.383118,2.1250458,0.5620117,3.2713623,-2.3152466,0.072060466,2.4230814,5.717961
1570726696,0.5094452,11.681625,2.356079,0.60035706,3.1680298,-2.081955,0.27330238,1.7532539,6.2285757
1570726696,0.8817444,11.315308,1.5037537,0.5098114,2.899582,-2.145874,0.96617097,1.4130182,5.262636
1570726696,1.204956,11.473328,0.3605194,-0.39245605,2.835678,-2.2396088,1.5271945,1.5481815,4.458782
1570726696,1.7640076,10.716751,0.46347046,-0.80152893,2.9858704,-2.130951,2.4388819,0.7656565,4.2649183
1570726696,2.1027832,9.957794,0.031311035,-0.8409424,2.7142334,-1.7677002,2.9730163,0.09136009,3.8003626
1570726696,2.2177124,8.880402,-1.028122,-0.8973999,2.598114,-1.1849976,3.1698973,-1.0672874,2.4697266
1570726696,2.7372437,8.384796,-1.333374,-1.0018005,2.5416565,-0.5607605,3.658803,-1.6934509,1.7865047
1570726696,2.5313416,7.6617584,-0.30387878,-1.0816956,1.7799988,0.050704956,3.409776,-2.4945068,2.5630925
1570726696,1.8142853,7.8951874,-1.5021667,-1.1115112,1.7490997,0.5449829,2.6840966,-2.5767565,1.417527
1570726696,0.12158203,10.672455,-3.6042786,-1.3192444,2.0026398,0.90397644,1.0811272,-0.4527111,-0.6141033
1570726696,-2.5371704,15.402206,-5.2287445,-0.6417389,2.3669586,0.7953186,-2.2700176,4.1012716,-2.9347637
1570726697,-5.65802,15.163986,-8.202347,0.5279236,0.16186523,-0.6395874,-6.288803,6.2708254,-5.8423533
1570726697,-3.2494507,9.429871,-4.022064,0.25628662,0.23855591,-0.84625244,-3.1927385,-0.5294399,-2.379727
1570726697,1.0648956,12.349594,4.6748657,0.49597168,-0.5838318,-0.92614746,0.5974189,0.83231735,7.1358237
1570726697,6.588318,17.606064,-8.359161,-0.41696167,0.30993652,0.050704956,6.587452,6.7642736,-2.9799237
1570726697,1.5401459,8.207626,2.739151,0.79104614,1.0652008,0.46829224,1.7456286,-1.2982206,4.2974677
1570726697,1.4503632,7.3062134,0.13665771,0.9977112,1.1248627,0.6046448,1.6549839,-3.3159466,3.027081
1570726697,1.9710999,10.574295,2.3896027,0.3063507,2.6897278,0.84539795,1.5970488,-0.34963226,4.672773
1570726697,2.3912811,13.994415,1.9694214,0.22645569,3.3033295,0.7591095,1.4916663,3.656578,4.9672213
1570726697,0.41368103,10.707184,-1.0089722,-1.4683838,2.0132904,0.18066406,-0.61171937,1.0962448,0.6954806
1570726697,1.1127777,9.332901,2.354889,-1.7741089,-0.0362854,-0.35516357,-0.27692938,-1.2642393,4.354007
1570726697,2.062088,11.389526,0.34854126,-1.3735657,-1.401947,-0.52667236,1.015926,0.7621803,1.7065965
1570726697,1.1858063,11.314102,-1.1921234,-1.2095184,-0.8256378,-0.19963074,0.44555622,0.88598824,-0.07462901
1570726697,0.14672852,9.6154175,-0.5827942,-0.85372925,0.38876343,0.20835876,-0.75153524,-0.9594946,0.04016173
1570726697,0.26643372,9.121017,0.62028503,-0.35943604,0.7083435,0.29785156,-0.78473604,-1.497139,0.98233473
1570726697,0.25924683,9.792587,-0.2392273,-0.29232788,-0.23016357,0.07521057,-0.7154894,-1.0445251,0.6317812
1570726697,1.1044006,10.685623,-0.85214233,-0.691803,-0.7382965,-0.20388794,0.022451878,0.08587742,-0.70473796
1570726697,0.8817444,8.747528,-1.8912354,-0.33387756,-1.7108765,-0.32640076,-0.07725978,-1.7661266,-1.826736
1570726697,0.7943573,7.6102753,-0.5349121,0.5897064,-1.4477539,-0.16661072,-0.032711327,-2.9641304,-0.5703698
1570726697,0.7620392,7.672531,-2.320984,0.83898926,-1.3508148,0.069885254,-0.083761156,-2.9089832,-1.7602179
1570726697,0.012649536,9.036026,-0.58758545,0.8624115,-0.9683838,0.2626953,-0.77618265,-1.5711203,0.078543365
1570726697,-0.81214905,9.958984,-0.70610046,1.1649475,-1.542572,0.35430908,-1.7862121,-0.48032475,0.24805057
1570726697,-0.9546051,8.171722,-2.0276947,0.9369812,-0.68289185,0.22860718,-2.0142257,-2.181508,-0.6963024
1570726697,-0.98931885,8.49614,0.79985046,0.39050293,-0.10446167,0.27973938,-1.9948035,-2.007123,2.531672
1570726697,-3.9246216,11.913849,0.49339294,-0.293396,-0.4442749,0.17001343,-4.810098,1.4294891,2.0086374
1570726697,-1.7159729,13.490433,-5.360428,0.9849243,-2.339386,-0.62893677,-2.6682396,2.8731222,-3.2626824
1570726697,1.0158234,16.182724,-3.870041,1.584671,2.2614899,-0.52560425,0.24673414,5.5421934,-3.4677887
1570726697,3.8182373,15.73381,-1.6422272,1.649643,0.2939453,-0.9314728,3.394341,5.406605,1.2591732
1570726697,3.9223785,14.966461,-2.2790833,1.4195557,-1.3433533,-1.4843445,3.9436781,4.7273016,0.9711051
1570726697,-0.030441284,18.696625,-4.0472107,0.8166046,-1.3721161,-1.3724823,0.6068133,8.3689785,-0.6729672
1570726697,-1.3245087,14.713867,-1.3226013,0.86561584,-0.43255615,-1.3937988,-0.4704404,4.9989996,2.1742997
1570726697,1.0122223,10.579086,-2.3988037,0.7516327,0.0020751953,-1.4822083,2.157511,0.7906933,2.0982118
1570726697,1.8693542,10.012863,-4.6170197,1.2523041,0.87771606,-1.4193573,3.5513675,0.47228432,-0.26241493
1570726697,2.0357513,6.4490967,-2.7172241,1.4227448,0.684906,-0.69818115,3.9837532,-2.833726,1.9062133
1570726698,0.94758606,3.5473175,-2.3126068,0.6131439,-0.16410828,-0.0398407,2.9917183,-5.718025,2.650002
1570726698,-0.5487976,4.0165863,-0.5253296,0.16786194,-0.12789917,0.29891968,1.444958,-5.248273,4.407953
1570726698,-1.0755157,5.37648,-0.15423584,-0.16343689,-0.0043182373,0.4373932,0.75890696,-3.99852,4.928891
1570726698,-0.4111328,4.925186,-2.0229034,-1.0848846,0.124572754,0.7314148,1.1692263,-4.1688957,2.9461503
1570726698,-0.491333,4.2308655,-2.1581879,-1.7943573,0.5080719,1.0296783,0.8810352,-5.2427998,2.1639385
1570726698,-0.67448425,5.4100037,-0.22486877,-1.8284454,1.0183258,1.3620453,0.22826403,-4.545273,3.3629367
1570726698,-0.6002655,7.806595,-0.38407898,-1.441742,2.0420532,1.42276,-0.3407454,-2.4360876,3.1153345
1570726698,0.95477295,12.548325,-3.949051,-2.1213837,2.422348,1.1862793,0.43534568,1.758399,-0.35940218
1570726698,1.291153,15.289673,-5.265854,-2.7797241,2.326477,0.9732208,0.82495975,3.8592596,-2.1978915
1570726698,1.291153,15.289673,-5.265854,-2.7797241,2.326477,0.9732208,0.82495975,3.8592596,-2.1978915
1570726698,1.291153,15.289673,-5.265854,-2.7797241,2.326477,0.9732208,0.82495975,3.8592596,-2.1978915
1570726698,1.291153,15.289673,-5.265854,-2.7797241,2.326477,0.9732208,0.82495975,3.8592596,-2.1978915
1570726698,1.291153,15.289673,-5.265854,-2.7797241,2.326477,0.9732208,0.82495975,3.8592596,-2.1978915
1570726698,1.291153,15.289673,-5.265854,-2.7797241,2.326477,0.9732208,0.82495975,3.8592596,-2.1978915
1570726698,1.291153,15.289673,-5.265854,-2.7797241,2.326477,0.9732208,0.82495975,3.8592596,-2.1978915
1570726698,1.291153,15.289673,-5.265854,-2.7797241,2.326477,0.9732208,0.82495975,3.8592596,-2.1978915
1570726698,1.291153,15.289673,-5.265854,-2.7797241,2.326477,0.9732208,0.82495975,3.8592596,-2.1978915
1570726698,1.4108582,9.681259,2.6649323,-0.6044464,-1.4775848,-0.9911194,-0.09006679,-1.2933121,4.195128
1570726698,1.4108582,9.681259,2.6649323,-0.6044464,-1.4775848,-0.9911194,-0.09006679,-1.2933121,4.195128
1570726698,1.4108582,9.681259,2.6649323,-0.6044464,-1.4775848,-0.9911194,-0.09006679,-1.2933121,4.195128
1570726698,1.4108582,9.681259,2.6649323,-0.6044464,-1.4775848,-0.9911194,-0.09006679,-1.2933121,4.195128
1570726698,1.4108582,9.681259,2.6649323,-0.6044464,-1.4775848,-0.9911194,-0.09006679,-1.2933121,4.195128
1570726698,1.4108582,9.681259,2.6649323,-0.6044464,-1.4775848,-0.9911194,-0.09006679,-1.2933121,4.195128
1570726698,1.4108582,9.681259,2.6649323,-0.6044464,-1.4775848,-0.9911194,-0.09006679,-1.2933121,4.195128
1570726698,1.4108582,9.681259,2.6649323,-0.6044464,-1.4775848,-0.9911194,-0.09006679,-1.2933121,4.195128
1570726698,1.4108582,9.681259,2.6649323,-0.6044464,-1.4775848,-0.9911194,-0.09006679,-1.2933121,4.195128
1570726698,1.4108582,9.681259,2.6649323,-0.6044464,-1.4775848,-0.9911194,-0.09006679,-1.2933121,4.195128
1570726698,1.4108582,9.681259,2.6649323,-0.6044464,-1.4775848,-0.9911194,-0.09006679,-1.2933121,4.195128
1570726698,-0.5344238,10.807739,-0.018966675,1.1926422,0.6550751,0.6365967,-1.6172962,0.1951952,1.5964442
1570726698,-4.98645,18.10167,-4.970169,0.12098694,2.006897,0.55563354,-5.915299,7.446764,-3.0488505
1570726698,-1.2203674,16.623245,-10.206284,2.8256989,-4.3378143,-1.7016602,-2.820711,6.3147516,-6.141836
1570726698,3.9463196,20.844223,-6.6688538,2.9268951,1.9962463,-2.4420166,3.5504642,10.4623,-4.1321783
1570726698,7.7171936,18.292007,-2.5017548,1.7646942,-0.6477356,-1.8465271,7.9361186,8.537309,1.326401
1570726698,0.40768433,14.807251,-1.8373566,1.760437,-1.3870392,-1.302185,1.4889041,5.0291805,2.6031914
1570726699,-1.7279358,12.110184,-2.9961548,0.94869995,-1.671463,-1.8188324,-0.2966416,2.5336552,1.7867937
1570726699,-1.6860352,10.6138,-3.6761017,1.2927856,0.5837097,-1.6814117,0.360111,1.088953,1.3899002
1570726699,0.67463684,5.9702454,-3.6988525,1.6325989,1.3166046,-1.1541138,2.4378188,-2.2213764,1.8985023
1570726699,2.584015,1.8558197,-2.9470673,0.8400421,1.100357,-0.57141113,4.7718906,-6.889863,2.8238678
1570726699,1.3378448,3.608368,-2.1976929,-0.030273438,0.08302307,-0.20283508,3.5408888,-5.1431446,3.702127
1570726699,-0.016082764,5.6422424,-1.5584412,-0.5895386,-0.32177734,-0.0025634766,2.2709212,-3.0793648,4.1804
1570726699,-1.6609039,5.79068,-1.8876343,-1.0635834,-0.24932861,0.29571533,0.5515299,-2.9879494,3.6219215
1570726699,-1.0120697,5.004196,-1.9235535,-1.7112579,-0.3143158,0.6898651,1.0405273,-4.0102587,3.1372929
1570726699,-0.11065674,5.909195,-1.5201263,-2.187439,-0.18647766,1.1916046,1.6321157,-3.6210232,2.8235955
1570726699,-0.4733734,7.735977,-0.9790344,-2.2438965,0.3674469,1.5314178,1.0248864,-2.0285273,2.8987439
1570726699,-1.2119904,9.018066,-1.0221405,-2.1309814,1.0375061,1.8243713,-0.35595816,-0.9515734,2.2333174
1570726699,-0.7546997,9.015671,-2.119873,-2.3205872,1.5445709,1.6347504,-0.56187373,-1.1970692,0.5044925
1570726699,0.12756348,11.648102,-4.5404053,-2.6231232,2.6737518,1.1457977,-0.1755873,1.1069822,-2.7433147
1570726699,1.3043213,14.080612,-3.9215088,-2.9309845,2.246582,0.73246765,0.29283416,3.668539,-2.8382797
1570726699,3.3118591,11.2829895,-9.467682,-0.80578613,-0.45173645,0.65257263,2.3918865,0.77903175,-8.819484
1570726699,3.0137787,15.796051,-5.557953,1.0584259,0.42285156,0.28825378,1.7407109,5.2458553,-5.264175
1570726699,2.2751617,15.505157,4.7095795,0.62272644,1.0140686,-0.53092957,1.2856721,5.025831,5.029287
1570726699,1.2193298,9.877594,6.687195,1.2437897,-0.986496,-0.40841675,0.3417142,-0.50741005,7.891354
1570726699,0.21855164,12.17482,0.40242004,1.0435181,-1.1558685,0.097579956,-0.30639768,0.76970005,2.1808884
1570726699,-0.14656067,25.00296,-1.6003265,-0.42974854,-0.1108551,0.7122345,-1.1106743,12.648275,0.45182133
1570726699,-0.86961365,13.715485,-2.3114166,-2.2726593,2.263626,0.31489563,-2.0593882,4.920637,-1.3729187
1570726699,0.7404785,8.262695,4.339676,-2.108612,1.147232,-0.4680786,-0.48697782,-2.299715,4.298413
1570726699,1.4743042,8.508102,2.232788,-0.5937958,-1.9633484,-0.9431915,0.30722457,-2.3728313,2.2822597
1570726699,1.8896942,10.458176,1.7671051,-0.20924377,-2.64299,-1.0220184,1.2564785,-0.3279848,1.4845927
1570726699,2.6654205,11.304535,-1.5907593,-1.1264343,-2.7931824,-0.15063477,2.0851548,0.61071396,-1.6581237
1570726699,0.429245,8.952225,0.28749084,-2.0340424,1.5829163,0.48745728,0.08799124,-1.3454676,-1.40252
1570726699,-0.98454285,10.023636,-0.4152069,-1.6910248,1.1514893,0.8049164,-1.6297405,-0.6033964,-2.1619544
1570726699,-2.6868134,9.057571,-2.2575378,0.8134155,-1.179306,0.072006226,-3.796875,-1.2211485,-3.7011733
1570726699,-1.5076752,9.1449585,-1.2005005,0.9135437,0.16186523,-0.13571167,-2.581137,-1.5363817,-2.769323
1570726699,-0.9007416,9.732742,-0.14465332,1.0339203,-0.41125488,-0.17939758,-1.7201829,-0.82171345,-1.1547501
1570726699,-0.18727112,7.6138763,-0.44154358,1.1575012,-1.2208557,-0.20069885,-0.9925977,-2.6255255,-1.0540376
1570726699,0.75006104,5.392044,1.4008026,1.4014435,-1.8110046,-0.18791199,0.0076617002,-5.002532,0.8851348
1570726699,0.6028137,4.664215,-1.9822083,1.1202087,-1.7641449,0.093322754,-0.07772559,-6.2023783,-1.4359076
1570726700,0.067718506,14.935333,1.1901093,0.56840515,-0.79901123,0.911438,-0.7265824,2.83,1.4609804
1570726700,-0.61343384,14.342773,-4.6325836,0.39370728,1.1525574,1.6805573,-1.2556038,5.135947,-2.2827692
1570726700,-3.491272,10.287003,3.1904602,0.5886383,-4.988693,0.8006592,-6.0260525,-0.11819744,4.4484034
1570726700,-2.1972046,14.52832,-9.532318,2.3910675,3.4450073,-0.27420044,-3.9026759,3.5917969,-9.210995
1570726700,1.2612305,19.21019,-0.25120544,3.1825714,3.0966644,-0.8142853,-1.1901815,8.908653,1.6889544
1570726700,5.5480347,13.794495,1.5085449,3.0067902,0.8787842,-1.763443,3.9480042,4.1023684,3.8527334
1570726700,4.9231567,12.875122,-0.8892517,1.186264,-2.2903748,-2.097931,4.1622844,2.8648815,4.0199523
1570726700,2.279953,16.808807,-4.5918884,0.14974976,-2.2328491,-1.8646393,2.7387927,6.1372147,-0.196836
1570726700,0.9356079,13.04512,-4.7786407,1.1074219,-0.5103302,-1.6324158,1.6470522,3.9034014,-1.4288998
1570726700,-0.13101196,10.609009,-2.265915,0.97639465,0.008453369,-1.3863373,1.145811,0.7279844,1.8727498
1570726700,0.39930725,8.807373,-1.8325653,0.99238586,0.24069214,-0.85902405,1.748264,-0.5462322,2.7010698
1570726700,0.54655457,6.4119873,-2.8309479,0.8400421,0.4580078,-0.4350586,2.1200905,-2.9731665,1.9370503
1570726700,1.0050507,5.542877,-1.822998,0.34257507,0.29075623,-0.24969482,2.5610564,-3.7518778,3.079812
1570726700,1.2336884,5.126297,-1.2400055,-0.10484314,0.2566681,6.4086914E-4,2.788215,-4.1907854,3.6460323
1570726700,1.291153,4.983841,-1.2040863,-0.69073486,-0.091674805,0.27653503,2.8595362,-4.3428087,3.735139
1570726700,1.1798248,4.332611,-1.0819855,-1.3639832,-0.37716675,0.5684204,2.6873198,-5.0271673,3.4907165
1570726700,0.36817932,4.094391,-1.052063,-1.7176514,-0.27064514,1.0275574,1.6577199,-5.5741396,3.018917
1570726700,-2.258255,5.1167145,-0.56243896,-2.0990143,0.21725464,1.6784363,-1.1221999,-5.0642633,2.7116091
1570726700,-2.2917786,8.530853,-0.95150757,-1.8635864,1.2367096,2.138626,-2.29176,-1.9297609,2.191261
1570726700,-1.9278564,9.596268,-2.28508,-1.9924927,3.2947998,1.6699066,-2.4282088,-0.7507076,-0.055878878
1570726700,-1.1102295,13.077438,-3.9466553,-2.9331207,3.6708374,0.82089233,-2.3309293,2.3053112,-2.3874316
1570726700,3.639862,14.712677,-7.340439,-2.3141937,-3.4760132,0.013427734,1.3910091,4.5827923,-3.2646723
1570726700,6.2854614,12.998428,-21.776276,-0.5479889,-3.9681702,-0.19856262,4.7737722,2.9001799,-19.224014
1570726707,6.2854614,12.998428,-21.776276,-0.5479889,-3.9681702,-0.19856262,4.7737722,2.9001799,-19.224014
1570726707,6.2854614,12.998428,-21.776276,-0.5479889,-3.9681702,-0.19856262,4.7737722,2.9001799,-19.224014
1570726707,6.2854614,12.998428,-21.776276,-0.5479889,-3.9681702,-0.19856262,4.7737722,2.9001799,-19.224014
1570726707,6.2854614,12.998428,-21.776276,-0.5479889,-3.9681702,-0.19856262,4.7737722,2.9001799,-19.224014
1570726707,6.2854614,12.998428,-21.776276,-0.5479889,-3.9681702,-0.19856262,4.7737722,2.9001799,-19.224014
1570726707,6.2854614,12.998428,-21.776276,-0.5479889,-3.9681702,-0.19856262,4.7737722,2.9001799,-19.224014
1570726707,6.2854614,12.998428,-21.776276,-0.5479889,-3.9681702,-0.19856262,4.7737722,2.9001799,-19.224014
1570726707,6.2854614,12.998428,-21.776276,-0.5479889,-3.9681702,-0.19856262,4.7737722,2.9001799,-19.224014
1570726707,6.2854614,12.998428,-21.776276,-0.5479889,-3.9681702,-0.19856262,4.7737722,2.9001799,-19.224014
1570726707,6.2854614,12.998428,-21.776276,-0.5479889,-3.9681702,-0.19856262,4.7737722,2.9001799,-19.224014
1570726707,6.2854614,12.998428,-21.776276,-0.5479889,-3.9681702,-0.19856262,4.7737722,2.9001799,-19.224014
1570726707,6.2854614,12.998428,-21.776276,-0.5479889,-3.9681702,-0.19856262,4.7737722,2.9001799,-19.224014
1570726707,6.2854614,12.998428,-21.776276,-0.5479889,-3.9681702,-0.19856262,4.7737722,2.9001799,-19.224014
1570726707,6.2854614,12.998428,-21.776276,-0.5479889,-3.9681702,-0.19856262,4.7737722,2.9001799,-19.224014
1570726707,6.2854614,12.998428,-21.776276,-0.5479889,-3.9681702,-0.19856262,4.7737722,2.9001799,-19.224014
1570726707,6.2854614,12.998428,-21.776276,-0.5479889,-3.9681702,-0.19856262,4.7737722,2.9001799,-19.224014
1570726707,6.2854614,12.998428,-21.776276,-0.5479889,-3.9681702,-0.19856262,4.7737722,2.9001799,-19.224014
1570726707,6.2854614,12.998428,-21.776276,-0.5479889,-3.9681702,-0.19856262,4.7737722,2.9001799,-19.224014
1570726707,6.2854614,12.998428,-21.776276,-0.5479889,-3.9681702,-0.19856262,4.7737722,2.9001799,-19.224014
1570726707,6.2854614,12.998428,-21.776276,-0.5479889,-3.9681702,-0.19856262,4.7737722,2.9001799,-19.224014
1570726707,6.2854614,12.998428,-21.776276,-0.5479889,-3.9681702,-0.19856262,4.7737722,2.9001799,-19.224014
1570726707,6.2854614,12.998428,-21.776276,-0.5479889,-3.9681702,-0.19856262,4.7737722,2.9001799,-19.224014
1570726707,6.2854614,12.998428,-21.776276,-0.5479889,-3.9681702,-0.19856262,4.7737722,2.9001799,-19.224014
1570726707,6.2854614,12.998428,-21.776276,-0.5479889,-3.9681702,-0.19856262,4.7737722,2.9001799,-19.224014
1570726707,6.2854614,12.998428,-21.776276,-0.5479889,-3.9681702,-0.19856262,4.7737722,2.9001799,-19.224014
1570726707,6.2854614,12.998428,-21.776276,-0.5479889,-3.9681702,-0.19856262,4.7737722,2.9001799,-19.224014
1570726707,6.2854614,12.998428,-21.776276,-0.5479889,-3.9681702,-0.19856262,4.7737722,2.9001799,-19.224014
1570726707,6.2854614,12.998428,-21.776276,-0.5479889,-3.9681702,-0.19856262,4.7737722,2.9001799,-19.224014
1570726707,6.2854614,12.998428,-21.776276,-0.5479889,-3.9681702,-0.19856262,4.7737722,2.9001799,-19.224014
1570726707,6.2854614,12.998428,-21.776276,-0.5479889,-3.9681702,-0.19856262,4.7737722,2.9001799,-19.224014
1570726707,6.2854614,12.998428,-21.776276,-0.5479889,-3.9681702,-0.19856262,4.7737722,2.9001799,-19.224014
1570726707,6.2854614,12.998428,-21.776276,-0.5479889,-3.9681702,-0.19856262,4.7737722,2.9001799,-19.224014
1570726707,6.2854614,12.998428,-21.776276,-0.5479889,-3.9681702,-0.19856262,4.7737722,2.9001799,-19.224014
1570726707,6.2854614,12.998428,-21.776276,-0.5479889,-3.9681702,-0.19856262,4.7737722,2.9001799,-19.224014
1570726707,6.2854614,12.998428,-21.776276,-0.5479889,-3.9681702,-0.19856262,4.7737722,2.9001799,-19.224014
1570726707,6.2854614,12.998428,-21.776276,-0.5479889,-3.9681702,-0.19856262,4.7737722,2.9001799,-19.224014
1570726707,6.2854614,12.998428,-21.776276,-0.5479889,-3.9681702,-0.19856262,4.7737722,2.9001799,-19.224014
1570726707,6.2854614,12.998428,-21.776276,-0.5479889,-3.9681702,-0.19856262,4.7737722,2.9001799,-19.224014
1570726707,6.2854614,12.998428,-21.776276,-0.5479889,-3.9681702,-0.19856262,4.7737722,2.9001799,-19.224014
1570726707,6.2854614,12.998428,-21.776276,-0.5479889,-3.9681702,-0.19856262,4.7737722,2.9001799,-19.224014
1570726707,6.2854614,12.998428,-21.776276,-0.5479889,-3.9681702,-0.19856262,4.7737722,2.9001799,-19.224014
1570726707,6.2854614,12.998428,-21.776276,-0.5479889,-3.9681702,-0.19856262,4.7737722,2.9001799,-19.224014
1570726707,6.2854614,12.998428,-21.776276,-0.5479889,-3.9681702,-0.19856262,4.7737722,2.9001799,-19.224014
1570726707,6.2854614,12.998428,-21.776276,-0.5479889,-3.9681702,-0.19856262,4.7737722,2.9001799,-19.224014
1570726707,6.2854614,12.998428,-21.776276,-0.5479889,-3.9681702,-0.19856262,4.7737722,2.9001799,-19.224014
1570726707,6.2854614,12.998428,-21.776276,-0.5479889,-3.9681702,-0.19856262,4.7737722,2.9001799,-19.224014
1570726707,6.2854614,12.998428,-21.776276,-0.5479889,-3.9681702,-0.19856262,4.7737722,2.9001799,-19.224014
1570726707,6.2854614,12.998428,-21.776276,-0.5479889,-3.9681702,-0.19856262,4.7737722,2.9001799,-19.224014
1570726707,6.2854614,12.998428,-21.776276,-0.5479889,-3.9681702,-0.19856262,4.7737722,2.9001799,-19.224014
1570726707,6.2854614,12.998428,-21.776276,-0.5479889,-3.9681702,-0.19856262,4.7737722,2.9001799,-19.224014
1570726707,6.2854614,12.998428,-21.776276,-0.5479889,-3.9681702,-0.19856262,4.7737722,2.9001799,-19.224014
1570726707,6.2854614,12.998428,-21.776276,-0.5479889,-3.9681702,-0.19856262,4.7737722,2.9001799,-19.224014
1570726707,6.2854614,12.998428,-21.776276,-0.5479889,-3.9681702,-0.19856262,4.7737722,2.9001799,-19.224014
1570726707,6.2854614,12.998428,-21.776276,-0.5479889,-3.9681702,-0.19856262,4.7737722,2.9001799,-19.224014
1570726707,6.2854614,12.998428,-21.776276,-0.5479889,-3.9681702,-0.19856262,4.7737722,2.9001799,-19.224014
1570726707,6.2854614,12.998428,-21.776276,-0.5479889,-3.9681702,-0.19856262,4.7737722,2.9001799,-19.224014
1570726707,6.2854614,12.998428,-21.776276,-0.5479889,-3.9681702,-0.19856262,4.7737722,2.9001799,-19.224014
1570726707,6.2854614,12.998428,-21.776276,-0.5479889,-3.9681702,-0.19856262,4.7737722,2.9001799,-19.224014
1570726707,6.2854614,12.998428,-21.776276,-0.5479889,-3.9681702,-0.19856262,4.7737722,2.9001799,-19.224014
1570726707,6.2854614,12.998428,-21.776276,-0.5479889,-3.9681702,-0.19856262,4.7737722,2.9001799,-19.224014
1570726707,6.2854614,12.998428,-21.776276,-0.5479889,-3.9681702,-0.19856262,4.7737722,2.9001799,-19.224014
1570726707,6.2854614,12.998428,-21.776276,-0.5479889,-3.9681702,-0.19856262,4.7737722,2.9001799,-19.224014
1570726707,6.2854614,12.998428,-21.776276,-0.5479889,-3.9681702,-0.19856262,4.7737722,2.9001799,-19.224014
1570726707,6.2854614,12.998428,-21.776276,-0.5479889,-3.9681702,-0.19856262,4.7737722,2.9001799,-19.224014
1570726707,6.2854614,12.998428,-21.776276,-0.5479889,-3.9681702,-0.19856262,4.7737722,2.9001799,-19.224014
1570726707,4.208481,12.822449,8.156036,-0.5479889,-3.9681702,-0.19856262,4.7737722,2.9001799,-19.224014
1570726707,3.4842377,17.862244,4.324112,-0.5479889,-3.9681702,-0.19856262,4.7737722,2.9001799,-19.224014
1570726707,1.4264221,13.248627,1.8461151,-0.5479889,-3.9681702,-0.19856262,4.7737722,2.9001799,-19.224014
1570726707,-2.0332031,19.086884,-3.6425934,-0.5479889,-3.9681702,-0.19856262,4.7737722,2.9001799,-19.224014
1570726707,0.6028137,14.980835,-0.8425751,-0.5479889,-3.9681702,-0.19856262,4.7737722,2.9001799,-19.224014
1570726707,0.6028137,14.980835,-0.8425751,-0.5479889,-3.9681702,-0.19856262,4.7737722,2.9001799,-19.224014
1570726707,0.6028137,14.980835,-0.8425751,-0.5479889,-3.9681702,-0.19856262,4.7737722,2.9001799,-19.224014
1570726707,0.6028137,14.980835,-0.8425751,-0.5479889,-3.9681702,-0.19856262,4.7737722,2.9001799,-19.224014
1570726707,0.6028137,14.980835,-0.8425751,-0.5479889,-3.9681702,-0.19856262,4.7737722,2.9001799,-19.224014
1570726707,0.6028137,14.980835,-0.8425751,-0.5479889,-3.9681702,-0.19856262,4.7737722,2.9001799,-19.224014
1570726707,0.6028137,14.980835,-0.8425751,-0.5479889,-3.9681702,-0.19856262,4.7737722,2.9001799,-19.224014
1570726707,0.6028137,14.980835,-0.8425751,-0.5479889,-3.9681702,-0.19856262,4.7737722,2.9001799,-19.224014
1570726707,0.8027344,12.047928,1.7467651,-0.5479889,-3.9681702,-0.19856262,4.7737722,2.9001799,-19.224014
1570726707,1.2324982,11.043564,2.7236023,-0.5479889,-3.9681702,-0.19856262,4.7737722,2.9001799,-19.224014
1570726707,1.7628021,9.1054535,-1.9965668,-0.5479889,-3.9681702,-0.19856262,4.7737722,2.9001799,-19.224014
1570726707,-0.372818,9.042007,-1.0185394,-0.5479889,-3.9681702,-0.19856262,4.7737722,2.9001799,-19.224014
1570726707,-0.10586548,8.148972,-0.28710938,-0.5479889,-3.9681702,-0.19856262,4.7737722,2.9001799,-19.224014
1570726707,-0.10586548,8.148972,-0.28710938,-0.5479889,-3.9681702,-0.19856262,4.7737722,2.9001799,-19.224014
1570726707,-1.2407227,5.0053864,-2.1007233,-0.5479889,-3.9681702,-0.19856262,4.7737722,2.9001799,-19.224014
1570726707,0.13116455,5.494995,-2.6729279,-0.5479889,-3.9681702,-0.19856262,4.7737722,2.9001799,-19.224014
1570726707,0.13116455,5.494995,-2.6729279,-0.5479889,-3.9681702,-0.19856262,4.7737722,2.9001799,-19.224014
1570726707,0.13116455,5.494995,-2.6729279,-0.5479889,-3.9681702,-0.19856262,4.7737722,2.9001799,-19.224014
1570726707,0.13116455,5.494995,-2.6729279,-0.5479889,-3.9681702,-0.19856262,4.7737722,2.9001799,-19.224014
1570726707,0.13116455,5.494995,-2.6729279,-0.5479889,-3.9681702,-0.19856262,4.7737722,2.9001799,-19.224014
1570726707,0.13116455,5.494995,-2.6729279,-0.5479889,-3.9681702,-0.19856262,4.7737722,2.9001799,-19.224014
1570726707,0.13116455,5.494995,-2.6729279,-0.5479889,-3.9681702,-0.19856262,4.7737722,2.9001799,-19.224014
1570726707,0.13116455,5.494995,-2.6729279,-0.5479889,-3.9681702,-0.19856262,4.7737722,2.9001799,-19.224014
1570726707,0.13116455,5.494995,-2.6729279,-0.5479889,-3.9681702,-0.19856262,4.7737722,2.9001799,-19.224014
1570726707,0.13116455,5.494995,-2.6729279,-0.5479889,-3.9681702,-0.19856262,4.7737722,2.9001799,-19.224014
1570726707,-0.43626404,9.709991,-2.4813995,-0.5479889,-3.9681702,-0.19856262,4.7737722,2.9001799,-19.224014
1570726707,4.8992157,16.99675,0.9602661,-0.5479889,-3.9681702,-0.19856262,4.7737722,2.9001799,-19.224014
1570726707,1.3258667,14.396637,-2.6801147,-0.5479889,-3.9681702,-0.19856262,4.7737722,2.9001799,-19.224014
1570726707,1.3258667,14.396637,-2.6801147,-0.5479889,-3.9681702,-0.19856262,4.7737722,2.9001799,-19.224014
1570726707,1.3258667,14.396637,-2.6801147,-0.5479889,-3.9681702,-0.19856262,4.7737722,2.9001799,-19.224014
1570726707,1.3258667,14.396637,-2.6801147,-0.5479889,-3.9681702,-0.19856262,4.7737722,2.9001799,-19.224014
1570726707,1.3258667,14.396637,-2.6801147,-0.5479889,-3.9681702,-0.19856262,4.7737722,2.9001799,-19.224014
1570726707,1.3258667,14.396637,-2.6801147,-0.5479889,-3.9681702,-0.19856262,4.7737722,2.9001799,-19.224014
1570726707,1.3258667,14.396637,-2.6801147,-0.5479889,-3.9681702,-0.19856262,4.7737722,2.9001799,-19.224014
1570726707,1.3258667,14.396637,-2.6801147,-0.5479889,-3.9681702,-0.19856262,4.7737722,2.9001799,-19.224014
1570726707,1.3258667,14.396637,-2.6801147,-0.5479889,-3.9681702,-0.19856262,4.7737722,2.9001799,-19.224014
1570726707,1.3258667,14.396637,-2.6801147,-0.5479889,-3.9681702,-0.19856262,4.7737722,2.9001799,-19.224014
1570726707,2.5935974,5.2914886,-2.5951233,-0.5479889,-3.9681702,-0.19856262,4.7737722,2.9001799,-19.224014
1570726707,-1.0946655,6.3150177,-0.542099,-0.5479889,-3.9681702,-0.19856262,4.7737722,2.9001799,-19.224014
1570726707,3.363327,14.54509,-8.799698,-0.5479889,-3.9681702,-0.19856262,4.7737722,2.9001799,-19.224014
1570726707,1.8813171,17.9245,-2.3796387,-0.5479889,-3.9681702,-0.19856262,4.7737722,2.9001799,-19.224014
1570726707,0.6674652,10.288193,-0.39006042,-0.5479889,-3.9681702,-0.19856262,4.7737722,2.9001799,-19.224014
1570726707,-0.75709534,8.923492,-2.573578,-0.5479889,-3.9681702,-0.19856262,4.7737722,2.9001799,-19.224014
1570726707,-0.40873718,8.533249,-0.89523315,-0.5479889,-3.9681702,-0.19856262,4.7737722,2.9001799,-19.224014
1570726707,-1.3867645,12.428604,-1.7894745,-0.5479889,-3.9681702,-0.19856262,4.7737722,2.9001799,-19.224014
1570726707,-1.2862091,12.469315,-1.9893951,-0.5479889,-3.9681702,-0.19856262,4.7737722,2.9001799,-19.224014
1570726707,1.9818726,14.978439,-5.66568,-0.5479889,-3.9681702,-0.19856262,4.7737722,2.9001799,-19.224014
1570726707,2.2572174,14.804855,-5.0503845,-0.5479889,-3.9681702,-0.19856262,4.7737722,2.9001799,-19.224014
1570726707,1.9878693,14.808441,-0.8557434,-0.5479889,-3.9681702,-0.19856262,4.7737722,2.9001799,-19.224014
1570726707,2.0010376,14.321228,1.492981,-0.5479889,-3.9681702,-0.19856262,4.7737722,2.9001799,-19.224014
1570726707,4.5341034,12.927795,2.023285,-0.5479889,-3.9681702,-0.19856262,4.7737722,2.9001799,-19.224014
1570726707,-1.7051849,14.081802,-2.5089264,-0.5479889,-3.9681702,-0.19856262,4.7737722,2.9001799,-19.224014
1570726707,1.418045,7.138626,-1.4770355,-0.5479889,-3.9681702,-0.19856262,4.7737722,2.9001799,-19.224014
1570726707,-0.15853882,5.913986,-1.3082428,-0.5479889,-3.9681702,-0.19856262,4.7737722,2.9001799,-19.224014
1570726707,1.493454,13.4856415,2.1418,-0.5479889,-3.9681702,-0.19856262,4.7737722,2.9001799,-19.224014
1570726707,1.7280884,11.081863,1.5252991,-0.5479889,-3.9681702,-0.19856262,4.7737722,2.9001799,-19.224014
1570726707,0.5633087,10.439026,0.5161438,-0.5479889,-3.9681702,-0.19856262,4.7737722,2.9001799,-19.224014
1570726707,3.717682,7.7180176,-1.4925995,-0.5479889,-3.9681702,-0.19856262,4.7737722,2.9001799,-19.224014
1570726707,-4.830826,11.542755,-2.2515564,-0.5479889,-3.9681702,-0.19856262,4.7737722,2.9001799,-19.224014
1570726707,2.240448,8.431488,3.4047394,-0.5479889,-3.9681702,-0.19856262,4.7737722,2.9001799,-19.224014
1570726707,0.69259644,8.018494,3.1114502,-0.5479889,-3.9681702,-0.19856262,4.7737722,2.9001799,-19.224014
1570726707,0.429245,9.955399,1.2344055,-0.5479889,-3.9681702,-0.19856262,4.7737722,2.9001799,-19.224014
1570726707,0.3358612,10.684433,0.60832214,-0.5479889,-3.9681702,-0.19856262,4.7737722,2.9001799,-19.224014
1570726707,0.016235352,8.544022,0.06602478,-0.5479889,-3.9681702,-0.19856262,4.7737722,2.9001799,-19.224014
1570726707,1.967514,7.6713257,-0.8641205,-0.5479889,-3.9681702,-0.19856262,4.7737722,2.9001799,-19.224014
1570726707,2.0513153,16.570572,-2.289856,-0.5479889,-3.9681702,-0.19856262,4.7737722,2.9001799,-19.224014
1570726707,-2.6209717,9.287415,-3.0380554,-0.5479889,-3.9681702,-0.19856262,4.7737722,2.9001799,-19.224014
1570726707,1.086441,6.762726,-1.7930603,-0.5479889,-3.9681702,-0.19856262,4.7737722,2.9001799,-19.224014
1570726707,1.4144592,5.162201,-0.4343567,-0.5479889,-3.9681702,-0.19856262,4.7737722,2.9001799,-19.224014
1570726707,-1.1246033,9.118622,-1.2196503,-0.5479889,-3.9681702,-0.19856262,4.7737722,2.9001799,-19.224014
1570726707,2.2631989,12.120956,-5.6249847,-0.5479889,-3.9681702,-0.19856262,4.7737722,2.9001799,-19.224014
1570726707,2.137497,15.00238,-0.8533478,-0.5479889,-3.9681702,-0.19856262,4.7737722,2.9001799,-19.224014
1570726707,1.0565186,9.789001,0.9602661,-0.5479889,-3.9681702,-0.19856262,4.7737722,2.9001799,-19.224014
1570726707,1.0577087,8.198059,-1.9965668,-0.5479889,-3.9681702,-0.19856262,4.7737722,2.9001799,-19.224014
1570726707,0.053344727,10.555145,0.83695984,-0.5479889,-3.9681702,-0.19856262,4.7737722,2.9001799,-19.224014
1570726707,-1.4346466,13.635284,-5.1497345,-0.5479889,-3.9681702,-0.19856262,4.7737722,2.9001799,-19.224014
1570726707,0.63275146,12.436981,-2.8405304,-0.5479889,-3.9681702,-0.19856262,4.7737722,2.9001799,-19.224014
1570726707,2.2524261,6.1797485,-1.4698486,-0.5479889,-3.9681702,-0.19856262,4.7737722,2.9001799,-19.224014
1570726707,-0.71759033,8.994125,-0.96946716,-0.5479889,-3.9681702,-0.19856262,4.7737722,2.9001799,-19.224014
1570726707,3.220871,12.92421,-2.4299164,-0.5479889,-3.9681702,-0.19856262,4.7737722,2.9001799,-19.224014
1570726707,1.7831573,14.102158,2.0340729,-0.5479889,-3.9681702,-0.19856262,4.7737722,2.9001799,-19.224014
1570726707,0.9799042,15.748169,1.0428619,-0.65452576,0.16505432,-0.043045044,4.7737722,2.9001799,-19.224014
1570726707,0.9799042,15.748169,1.0428619,0.16679382,-1.4030151,-0.40522766,4.7737722,2.9001799,-19.224014
1570726707,0.9799042,15.748169,1.0428619,0.9604187,-1.2901001,0.22540283,4.7737722,2.9001799,-19.224014
1570726707,0.9799042,15.748169,1.0428619,0.97213745,-2.066681,0.014480591,4.7737722,2.9001799,-19.224014
1570726707,0.9799042,15.748169,1.0428619,1.9532471,-0.30578613,-1.7613068,4.7737722,2.9001799,-19.224014
1570726707,0.9799042,15.748169,1.0428619,0.5023651,1.149353,-0.82281494,4.7737722,2.9001799,-19.224014
1570726707,0.9799042,15.748169,1.0428619,-1.4960785,0.09048462,1.3066559,4.7737722,2.9001799,-19.224014
1570726707,0.9799042,15.748169,1.0428619,-2.745636,-1.1313782,0.07307434,4.7737722,2.9001799,-19.224014
1570726707,0.9799042,15.748169,1.0428619,1.1383209,-0.60939026,0.42460632,4.7737722,2.9001799,-19.224014
1570726707,0.9799042,15.748169,1.0428619,-1.6111298,2.0345917,0.26055908,4.7737722,2.9001799,-19.224014
1570726707,0.9799042,15.748169,1.0428619,-1.6111298,2.0345917,0.26055908,4.7737722,2.9001799,-19.224014
1570726707,0.9799042,15.748169,1.0428619,-0.28486633,-1.1345673,-0.42973328,4.7737722,2.9001799,-19.224014
1570726707,0.9799042,15.748169,1.0428619,1.0797272,0.7722473,0.41609192,4.7737722,2.9001799,-19.224014
1570726707,0.9799042,15.748169,1.0428619,3.0440826,1.7139435,-1.0102997,4.7737722,2.9001799,-19.224014
1570726707,0.9799042,15.748169,1.0428619,0.31167603,0.22576904,-1.6473236,4.7737722,2.9001799,-19.224014
1570726707,0.9799042,15.748169,1.0428619,-0.4414673,1.0843811,-0.39457703,4.7737722,2.9001799,-19.224014
1570726707,0.9799042,15.748169,1.0428619,-1.5173798,1.1951599,0.7133026,4.7737722,2.9001799,-19.224014
1570726707,0.9799042,15.748169,1.0428619,0.4512329,0.91926575,-0.33598328,4.7737722,2.9001799,-19.224014
1570726707,0.9799042,15.748169,1.0428619,0.5023651,1.9451141,0.7676239,4.7737722,2.9001799,-19.224014
1570726707,0.9799042,15.748169,1.0428619,-0.23054504,5.1078796,0.71009827,4.7737722,2.9001799,-19.224014
1570726707,0.9799042,15.748169,1.0428619,-1.8231201,0.29289246,0.058166504,4.7737722,2.9001799,-19.224014
1570726707,0.9799042,15.748169,1.0428619,0.053878784,-0.115112305,0.62701416,4.7737722,2.9001799,-19.224014
1570726707,0.9799042,15.748169,1.0428619,-0.7067108,0.9533539,0.13806152,4.7737722,2.9001799,-19.224014
1570726707,0.9799042,15.748169,1.0428619,2.2792206,0.6433563,0.33406067,4.7737722,2.9001799,-19.224014
1570726707,0.9799042,15.748169,1.0428619,3.2155914,1.4870453,-0.5969696,4.7737722,2.9001799,-19.224014
1570726707,0.9799042,15.748169,1.0428619,2.270691,0.33016968,-0.7674103,4.7737722,2.9001799,-19.224014
1570726707,0.9799042,15.748169,1.0428619,1.8999786,0.92352295,-0.8387909,4.7737722,2.9001799,-19.224014
1570726707,0.9799042,15.748169,1.0428619,0.40222168,2.6332703,-2.0276184,4.7737722,2.9001799,-19.224014
1570726707,0.9799042,15.748169,1.0428619,-0.78341675,2.6204834,-1.5418701,4.7737722,2.9001799,-19.224014
1570726707,0.9799042,15.748169,1.0428619,-0.8281555,1.8204803,0.06668091,4.7737722,2.9001799,-19.224014
1570726707,0.9799042,15.748169,1.0428619,-0.14958191,1.6564178,-1.1360016,4.7737722,2.9001799,-19.224014
1570726707,0.9799042,15.748169,1.0428619,0.46188354,2.6982574,0.7388611,4.7737722,2.9001799,-19.224014
1570726707,0.9799042,15.748169,1.0428619,-1.2041931,4.8202667,-0.08457947,4.7737722,2.9001799,-19.224014
1570726707,0.9799042,15.748169,1.0428619,-1.5695801,0.2108612,-0.30082703,4.7737722,2.9001799,-19.224014
1570726707,0.9799042,15.748169,1.0428619,-0.642807,0.101135254,-0.049423218,4.7737722,2.9001799,-19.224014
1570726707,0.9799042,15.748169,1.0428619,0.8911743,-0.3462677,-0.080322266,4.7737722,2.9001799,-19.224014
1570726707,0.9799042,15.748169,1.0428619,0.84217834,0.4143219,0.57907104,4.7737722,2.9001799,-19.224014
1570726707,0.9799042,15.748169,1.0428619,2.413437,-0.67012024,-1.5589142,4.7737722,2.9001799,-19.224014
1570726707,0.9799042,15.748169,1.0428619,0.61846924,0.47824097,-1.6526489,4.7737722,2.9001799,-19.224014
1570726707,0.9799042,15.748169,1.0428619,-1.6750488,0.09048462,1.0350037,4.7737722,2.9001799,-19.224014
1570726707,0.9799042,15.748169,1.0428619,-2.8734589,3.2074432,0.6163635,4.7737722,2.9001799,-19.224014
1570726707,0.9799042,15.748169,1.0428619,0.9295349,-0.83203125,0.42034912,4.7737722,2.9001799,-19.224014
1570726707,0.9799042,15.748169,1.0428619,-0.8973999,-1.5468292,-0.55755615,4.7737722,2.9001799,-19.224014
1570726707,0.9799042,15.748169,1.0428619,-1.5919495,0.5080719,0.31808472,4.7737722,2.9001799,-19.224014
1570726707,0.9799042,15.748169,1.0428619,1.0094299,-0.041610718,0.44804382,4.7737722,2.9001799,-19.224014
1570726707,0.9799042,15.748169,1.0428619,1.3535004,-1.0291138,-0.24330139,4.7737722,2.9001799,-19.224014
1570726707,0.9799042,15.748169,1.0428619,0.9550934,-0.80752563,-0.8963165,4.7737722,2.9001799,-19.224014
1570726707,0.9799042,15.748169,1.0428619,-0.23161316,0.50167847,-0.4627533,4.7737722,2.9001799,-19.224014
1570726707,0.9799042,15.748169,1.0428619,-1.0848846,0.20021057,1.3002625,4.7737722,2.9001799,-19.224014
1570726707,0.9799042,15.748169,1.0428619,-1.8177948,-3.1180878,-0.45635986,4.7737722,2.9001799,-19.224014
1570726707,0.9799042,15.748169,1.0428619,0.9050293,-0.19180298,0.21263123,4.7737722,2.9001799,-19.224014
1570726707,2.2823486,14.247009,1.1984863,-0.98262024,0.16931152,-0.035583496,4.7737722,2.9001799,-19.224014
1570726707,0.73210144,10.521622,0.6107178,-0.9197693,-1.193161,-0.37113953,4.7737722,2.9001799,-19.224014
1570726707,0.8374481,10.501282,0.6957092,-0.9293518,-1.2283173,-0.38072205,4.7737722,2.9001799,-19.224014
1570726707,0.8374481,10.501282,0.6957092,-0.9293518,-1.2283173,-0.38072205,4.7737722,2.9001799,-19.224014
1570726707,0.8374481,10.501282,0.6957092,-0.9293518,-1.2283173,-0.38072205,4.7737722,2.9001799,-19.224014
1570726707,0.8374481,10.501282,0.6957092,-0.9293518,-1.2283173,-0.38072205,4.7737722,2.9001799,-19.224014
1570726707,0.8374481,10.501282,0.6957092,-0.9293518,-1.2283173,-0.38072205,4.7737722,2.9001799,-19.224014
1570726707,0.8374481,10.501282,0.6957092,-0.9293518,-1.2283173,-0.38072205,4.7737722,2.9001799,-19.224014
1570726707,0.8625946,10.477341,0.76753235,-0.9389496,-1.2677307,-0.38285828,4.7737722,2.9001799,-19.224014
1570726707,0.8625946,10.477341,0.76753235,-0.9389496,-1.2677307,-0.38285828,4.7737722,2.9001799,-19.224014
1570726707,0.8625946,10.477341,0.76753235,-0.9389496,-1.2677307,-0.38285828,4.7737722,2.9001799,-19.224014
1570726707,0.8625946,10.477341,0.76753235,-0.9389496,-1.2677307,-0.38285828,4.7737722,2.9001799,-19.224014
1570726707,0.8625946,10.477341,0.76753235,-0.9389496,-1.2677307,-0.38285828,4.7737722,2.9001799,-19.224014
1570726707,0.8625946,10.477341,0.76753235,-0.9389496,-1.2677307,-0.38285828,4.7737722,2.9001799,-19.224014
1570726707,0.85899353,10.409103,0.75675964,-0.9389496,-1.2677307,-0.38285828,4.7737722,2.9001799,-19.224014
1570726707,0.85899353,10.409103,0.75675964,-0.9432068,-1.3092651,-0.37860107,4.7737722,2.9001799,-19.224014
1570726707,0.83026123,10.425858,0.80703735,-0.9570465,-1.368927,-0.3647461,4.7737722,2.9001799,-19.224014
1570726707,1.3174896,9.306564,0.033706665,-1.0966034,-1.5979614,-0.20388794,4.7737722,2.9001799,-19.224014
1570726707,0.8733673,8.929489,-1.6518097,-1.4662476,-0.9694519,-0.03237915,4.7737722,2.9001799,-19.224014
1570726707,0.40649414,8.591904,-1.2184601,-1.632431,-0.10232544,0.11036682,1.3497791,-1.8511105,2.6654222
1570726707,-0.2962036,7.5240936,-0.5612488,-0.7535858,-1.2048798,0.32341003,-1.3702483,-2.7691631,-2.0411224
1570726707,-0.72236633,6.2144623,-2.851303,1.5612335,-0.7223053,0.09011841,-1.7868444,-4.878235,-2.8527017
1570726707,-0.2746582,8.159744,0.62986755,1.1234131,0.71899414,0.27334595,-1.5020691,-2.4859934,-0.9560398
1570726707,-0.42190552,7.7132263,1.6665497,1.2160797,0.1874237,0.42248535,-1.7574779,-2.3042974,1.3600639
1570726707,-0.38479614,7.5169067,1.6366272,1.2395172,0.10966492,0.43632507,-1.7911454,-2.568324,1.45357
1570726707,-0.38479614,7.5169067,1.6366272,1.2395172,0.10966492,0.43632507,-1.7911454,-2.568324,1.45357
1570726707,-0.38479614,7.5169067,1.6366272,1.2395172,0.10966492,0.43632507,-1.7911454,-2.568324,1.45357
1570726707,-0.38479614,7.5169067,1.6366272,1.2395172,0.10966492,0.43632507,-1.7911454,-2.568324,1.45357
1570726707,-0.38479614,7.5169067,1.6366272,1.2395172,0.10966492,0.43632507,-1.7911454,-2.568324,1.45357
1570726707,-0.38479614,7.5169067,1.6366272,1.2395172,0.10966492,0.43632507,-1.7911454,-2.568324,1.45357
1570726707,-0.38479614,7.5169067,1.6366272,1.2395172,0.10966492,0.43632507,-1.7911454,-2.568324,1.45357
1570726707,-0.38479614,7.5169067,1.6366272,1.2395172,0.10966492,0.43632507,-1.7911454,-2.568324,1.45357
1570726707,-0.052001953,14.60733,-3.056015,0.9838562,0.24069214,-0.7674103,-0.2682637,4.4476585,0.99739623
1570726707,-0.08073425,12.513596,-3.792221,0.22219849,-0.6658478,-1.4193573,-0.26971686,2.8097105,0.44236088
1570726707,1.1558838,10.155319,-3.0967102,-0.008972168,0.2300415,-1.365036,1.462271,0.23470306,0.6459775
1570726707,2.2272797,7.8556824,-1.4578705,0.1103363,0.9022217,-0.85369873,2.827496,-1.9787455,2.1847146
1570726707,2.7791443,6.728012,-1.0233307,-0.06755066,0.79356384,-0.21774292,3.3213577,-3.214262,2.9300947
1570726707,2.7791443,6.728012,-1.0233307,-0.06755066,0.79356384,-0.21774292,3.3213577,-3.214262,2.9300947
1570726707,2.7791443,6.728012,-1.0233307,-0.06755066,0.79356384,-0.21774292,3.3213577,-3.214262,2.9300947
1570726707,2.7791443,6.728012,-1.0233307,-0.06755066,0.79356384,-0.21774292,3.3213577,-3.214262,2.9300947
1570726707,2.7791443,6.728012,-1.0233307,-0.06755066,0.79356384,-0.21774292,3.3213577,-3.214262,2.9300947
1570726707,2.7791443,6.728012,-1.0233307,-0.06755066,0.79356384,-0.21774292,3.3213577,-3.214262,2.9300947
1570726707,2.7791443,6.728012,-1.0233307,-0.06755066,0.79356384,-0.21774292,3.3213577,-3.214262,2.9300947
1570726708,2.7791443,6.728012,-1.0233307,-0.06755066,0.79356384,-0.21774292,3.3213577,-3.214262,2.9300947
1570726708,2.7791443,6.728012,-1.0233307,-0.06755066,0.79356384,-0.21774292,3.3213577,-3.214262,2.9300947
1570726708,2.5540924,10.467758,-6.9597473,-0.2944641,-0.2823639,-1.0603638,1.3728219,-0.2207756,-8.077136
1570726708,2.0848236,12.481277,-0.14704895,1.1638947,0.0809021,-0.57247925,1.5901237,1.4559307,1.0187707
1570726708,1.6849976,12.717117,0.08998108,0.23603821,-0.26957703,0.2296753,0.7510388,2.1244917,0.81829953
1570726708,1.6849976,12.717117,0.08998108,0.23603821,-0.26957703,0.2296753,0.7510388,2.1244917,0.81829953
1570726708,1.6849976,12.717117,0.08998108,0.23603821,-0.26957703,0.2296753,0.7510388,2.1244917,0.81829953
1570726708,1.6849976,12.717117,0.08998108,0.23603821,-0.26957703,0.2296753,0.7510388,2.1244917,0.81829953
1570726708,1.6849976,12.717117,0.08998108,0.23603821,-0.26957703,0.2296753,0.7510388,2.1244917,0.81829953
1570726708,1.6849976,12.717117,0.08998108,0.23603821,-0.26957703,0.2296753,0.7510388,2.1244917,0.81829953
1570726708,1.6849976,12.717117,0.08998108,0.23603821,-0.26957703,0.2296753,0.7510388,2.1244917,0.81829953
1570726708,1.6849976,12.717117,0.08998108,0.23603821,-0.26957703,0.2296753,0.7510388,2.1244917,0.81829953
1570726708,1.6849976,12.717117,0.08998108,0.23603821,-0.26957703,0.2296753,0.7510388,2.1244917,0.81829953
1570726708,1.6849976,12.717117,0.08998108,0.23603821,-0.26957703,0.2296753,0.7510388,2.1244917,0.81829953
1570726708,0.67225647,8.025665,-0.55885315,-1.3117828,-0.1342926,-0.0068206787,-0.41654336,-2.620161,-1.6688277
1570726708,0.6578827,7.3229675,0.19291687,-0.41270447,-2.148697,-0.033447266,-0.4211067,-3.0809565,-1.2226489
1570726708,-0.63020325,6.300644,-1.704483,1.3524323,-1.179306,6.4086914E-4,-1.7561761,-4.320918,-2.7571206
1570726708,-0.2064209,7.8532867,-2.2036743,1.0499115,0.13310242,0.23179626,-1.453477,-2.8449945,-2.8539433
1570726708,-0.9534149,7.8688507,0.43473816,1.0776062,-0.81391907,0.27653503,-2.261978,-2.6801577,0.16870907
1570726708,-0.63020325,7.418747,0.088775635,1.5356598,-0.49328613,0.28399658,-2.0103927,-3.1613283,0.12365694
1570726708,-0.8540497,8.06398,-1.4171753,1.4547119,0.4931488,0.30636597,-2.322475,-2.5178976,-0.7062923
1570726708,-0.6218109,12.389099,-0.7731323,0.8496399,1.2814484,0.3170166,-2.2318056,1.7010765,0.22332042
1570726708,-1.2634583,13.5048065,-0.76475525,-0.020690918,0.6390991,0.4373932,-2.8499532,3.219576,0.13139987
1570726708,-2.148117,11.634933,-3.713211,0.82299805,-2.1273956,-0.14424133,-3.9020178,1.2706738,-2.1065552
1570726708,-0.013687134,14.250595,-6.9561615,1.3066406,0.079833984,-0.72480774,-1.6851012,3.6293488,-5.593398
1570726708,3.0915833,16.235382,-3.1410065,2.269638,1.3325806,-0.7312012,1.5969514,5.812291,-1.0381312
1570726708,6.5559998,13.848373,0.17018127,2.3239594,-0.21844482,-1.2659607,5.4201784,3.5633688,2.9385104
1570726708,4.531708,14.554657,-1.8122253,1.32901,-1.2165985,-1.1360016,3.9990995,4.3736,1.5855317
1570726708,0.6004181,17.743744,-3.656952,1.0552368,-0.17582703,-0.6619568,0.8054162,7.3024683,0.40725923
1570726708,-1.2263489,13.976456,-4.6589203,0.6451111,-0.8533325,-0.9080353,-1.2099694,4.0841665,-0.6719177
1570726708,0.9332123,8.151367,-2.2204285,0.44377136,0.5453491,-0.90589905,1.0827856,-1.4258099,1.6583362
1570726708,2.3888855,6.213257,-0.7108917,0.21260071,0.52830505,-0.6395874,2.6162088,-3.696724,3.6249804
1570726708,3.2974854,6.1797485,-1.4195709,-0.1410675,0.07344055,-0.3455658,3.7671,-3.7326488,2.8407269
1570726709,2.6606293,6.036087,-1.4494934,-0.4968567,0.04574585,0.12741089,3.3261294,-3.918501,2.5401769
1570726709,1.6191559,5.7332306,-0.54089355,-0.7194977,0.17996216,0.5822754,2.0646935,-4.2079287,3.3251357
1570726709,1.4683228,5.087982,-0.59477234,-1.060379,0.16931152,0.8656311,1.6027228,-4.861027,3.0356119
1570726709,0.7117615,4.62471,-0.028533936,-1.3831635,0.13948059,1.0467224,0.82326216,-5.575342,2.9214208
1570726709,-1.4657745,7.2547455,-0.26197815,-1.3522644,0.4569397,1.5708313,-1.8228667,-3.4829798,2.882617
1570726709,-1.6381531,12.311295,-3.9825592,-1.8486786,2.2753448,1.3503265,-2.9228263,1.6155748,-1.0669892
1570726709,-2.471344,13.192352,-6.167267,-3.511551,2.4021149,0.10183716,-3.9969826,3.1104136,-6.18067
1570726709,0.87216187,8.667313,-10.031509,-0.818573,-2.5503082,-0.67581177,-1.500904,-1.5644627,-8.800203
1570726709,4.40361,9.755478,-7.826462,0.278656,0.06385803,-1.2190857,3.2770119,-0.87812614,-7.186421
1570726709,4.40361,12.88829,-1.9331207,1.1894531,-0.079956055,-0.64704895,3.8032713,2.1545153,-0.9951124
1570726709,1.998642,14.693527,3.6381836,0.6397705,-0.95773315,0.20942688,1.2744472,3.9386349,3.9264507
1570726709,2.0489197,15.679932,-0.289505,0.6951752,-0.4709015,0.018753052,1.8738472,4.804405,2.2807622
1570726709,0.14433289,13.053497,-0.641449,-0.19006348,0.62312317,0.67601013,-0.8986485,3.1405115,0.8610414
1570726709,-0.6876526,16.02829,1.1972961,-0.34666443,2.0388489,0.27120972,-1.4921875,4.3108807,2.6893368
1570726709,2.469101,15.444107,-1.775116,-1.3650513,1.0375061,0.3628235,0.6185572,6.403863,-1.0402776
1570726709,0.9715271,10.385162,3.0013275,-1.1360168,-0.77238464,-0.29977417,-0.33557248,0.081542015,3.8226752
1570726709,1.1989746,10.451004,0.8118286,-0.19645691,-1.0429535,-0.46488953,0.114013195,-0.49271488,1.3690735
1570726709,0.78237915,11.584656,2.1753235,-0.04624939,-1.4008789,-0.25608826,-0.0667572,0.71856594,2.5881314
1570726709,1.4611359,10.720352,0.45388794,-0.3722229,-2.1689453,0.1359253,0.43727732,0.28216743,1.5299015
1570726709,0.41487122,9.0108795,-1.735611,-1.1168365,-1.1867676,0.21582031,-0.61954427,-1.4771605,-1.3087143
1570726709,0.07369995,7.9083557,-0.44633484,-1.3096619,0.3919525,0.24032593,-0.83055294,-2.7917671,-0.663802
1570726709,-0.4003601,8.530853,-0.14225769,-0.9740906,0.7456207,0.52474976,-1.5315349,-2.3210077,-0.29798928
1570726709,-0.44943237,9.990112,-1.8289795,-0.9964752,0.6880951,0.45231628,-1.633315,-0.8498125,-2.6659496
1570726709,-0.7080078,9.154541,-1.0903625,0.34895325,-1.1803741,0.06881714,-1.9954603,-1.1908178,-1.6315761
1570726709,-0.48893738,8.019684,-1.7679291,1.4365997,-1.1228485,-0.11759949,-1.8800423,-2.494608,-2.5937233
1570726709,-0.8169403,8.412338,-1.7140503,1.4397888,-1.0727844,-0.07713318,-2.0999005,-2.3302212,-1.8542162
1570726709,-0.011291504,8.947433,-2.2192383,1.4216766,-0.97052,-0.09310913,-1.1942979,-1.8065424,-1.6603327
1570726709,-1.0228424,10.503677,-0.08720398,1.6272736,0.24281311,0.18173218,-2.246993,-0.16150665,1.2453095
1570726709,-1.2407227,10.030823,-1.036499,1.1564331,1.305954,0.37242126,-2.4355855,-0.40407944,0.24034977
1570726709,-1.535202,10.860413,-1.9498901,0.69410706,1.1152649,0.37986755,-3.0853055,0.3029766,-0.11843908
1570726709,-1.4370422,12.803299,-3.0655823,0.8027649,0.2811737,-0.05581665,-3.1518753,2.0681448,-0.48974502
1570726709,-0.16572571,14.0937805,-2.9291077,1.1734772,0.43243408,-0.46594238,-1.7161889,3.6586123,-1.1090815
1570726709,1.6083832,14.393051,-3.7634888,2.3963928,0.7829132,-0.9176178,-0.07097423,4.0182934,-1.1891813
1570726710,4.7088776,14.121307,-2.1174774,1.8744202,-0.37503052,-1.9477234,3.75394,3.6814156,1.4045565
1570726710,3.5081787,15.751755,-2.87883,0.9242096,-1.3039398,-1.7208252,3.299227,6.021494,1.0363693
1570726710,0.9523773,14.677963,-3.8341217,0.7835846,-0.5156555,-1.2957916,1.3575678,4.718769,0.5618448
1570726710,-0.32254028,10.640137,-3.9753876,0.38198853,0.0063323975,-0.9144287,0.42685103,1.2387171,0.08382988
1570726710,-0.30937195,8.030457,-2.8489075,0.1295166,0.77545166,-0.5181427,0.4334861,-1.6753035,1.2157345
1570726710,0.41487122,7.340927,-1.2771149,-0.06755066,1.1738586,-0.3327942,1.1223559,-2.5342827,2.8240209
1570726710,1.6419067,7.423523,-0.7084961,-0.55970764,1.0215302,-0.24650574,2.1400394,-2.4298553,3.4683404
1570726710,2.868927,6.9279327,-1.214859,-1.0859528,1.003418,0.04005432,3.456167,-2.9870777,2.7334895
1570726710,2.5600739,5.979828,-0.90122986,-1.34375,1.130188,0.49491882,3.0757458,-4.01007,2.7126195
1570726710,2.1003876,6.0420685,-0.62350464,-1.4524078,1.1312561,0.95617676,2.187559,-4.1898518,2.5269988
1570726710,2.1003876,6.0420685,-0.62350464,-1.4524078,1.1312561,0.95617676,2.187559,-4.1898518,2.5269988
1570726710,2.1003876,6.0420685,-0.62350464,-1.4524078,1.1312561,0.95617676,2.187559,-4.1898518,2.5269988
1570726710,2.1003876,6.0420685,-0.62350464,-1.4524078,1.1312561,0.95617676,2.187559,-4.1898518,2.5269988
1570726710,2.1003876,6.0420685,-0.62350464,-1.4524078,1.1312561,0.95617676,2.187559,-4.1898518,2.5269988
1570726710,2.1003876,6.0420685,-0.62350464,-1.4524078,1.1312561,0.95617676,2.187559,-4.1898518,2.5269988
1570726710,2.1003876,6.0420685,-0.62350464,-1.4524078,1.1312561,0.95617676,2.187559,-4.1898518,2.5269988
1570726710,2.1003876,6.0420685,-0.62350464,-1.4524078,1.1312561,0.95617676,2.187559,-4.1898518,2.5269988
1570726710,2.1003876,6.0420685,-0.62350464,-1.4524078,1.1312561,0.95617676,2.187559,-4.1898518,2.5269988
1570726710,2.1003876,6.0420685,-0.62350464,-1.4524078,1.1312561,0.95617676,2.187559,-4.1898518,2.5269988
1570726710,2.1003876,6.0420685,-0.62350464,-1.4524078,1.1312561,0.95617676,2.187559,-4.1898518,2.5269988
1570726710,2.1003876,6.0420685,-0.62350464,-1.4524078,1.1312561,0.95617676,2.187559,-4.1898518,2.5269988
1570726710,2.1003876,6.0420685,-0.62350464,-1.4524078,1.1312561,0.95617676,2.187559,-4.1898518,2.5269988
1570726710,2.1003876,6.0420685,-0.62350464,-1.4524078,1.1312561,0.95617676,2.187559,-4.1898518,2.5269988
1570726710,2.1003876,6.0420685,-0.62350464,-1.4524078,1.1312561,0.95617676,2.187559,-4.1898518,2.5269988
1570726710,2.1003876,6.0420685,-0.62350464,-1.4524078,1.1312561,0.95617676,2.187559,-4.1898518,2.5269988
1570726710,2.1003876,6.0420685,-0.62350464,-1.4524078,1.1312561,0.95617676,2.187559,-4.1898518,2.5269988
1570726710,2.1003876,6.0420685,-0.62350464,-1.4524078,1.1312561,0.95617676,2.187559,-4.1898518,2.5269988
1570726710,2.1003876,6.0420685,-0.62350464,-1.4524078,1.1312561,0.95617676,2.187559,-4.1898518,2.5269988
1570726710,2.1003876,6.0420685,-0.62350464,-1.4524078,1.1312561,0.95617676,2.187559,-4.1898518,2.5269988
1570726710,2.1003876,6.0420685,-0.62350464,-1.4524078,1.1312561,0.95617676,2.187559,-4.1898518,2.5269988
1570726710,2.1003876,6.0420685,-0.62350464,-1.4524078,1.1312561,0.95617676,2.187559,-4.1898518,2.5269988
1570726710,-0.17889404,8.691254,-0.3086548,0.38304138,0.62098694,0.7495117,-1.9104742,-1.8140459,-1.0014721
1570726710,-0.26507568,9.126999,-0.13987732,0.13591003,0.5815735,0.74632263,-2.1622686,-1.5020542,-1.1763158
1570726710,-0.7163849,10.287003,0.11869812,0.39157104,-0.01071167,0.71969604,-2.7898407,-0.2713518,-0.54067093
1570726711,-0.70202637,10.35762,0.02772522,0.41714478,-0.053329468,0.71969604,-2.8807862,-0.11038113,-0.5843295
1570726711,-0.70202637,10.35762,0.02772522,0.41714478,-0.053329468,0.71969604,-2.8807862,-0.11038113,-0.5843295
1570726711,-0.70202637,10.35762,0.02772522,0.41714478,-0.053329468,0.71969604,-2.8807862,-0.11038113,-0.5843295
1570726711,-0.70202637,10.35762,0.02772522,0.41714478,-0.053329468,0.71969604,-2.8807862,-0.11038113,-0.5843295
1570726711,-0.70202637,10.35762,0.02772522,0.41714478,-0.053329468,0.71969604,-2.8807862,-0.11038113,-0.5843295
1570726711,-0.70202637,10.35762,0.02772522,0.41714478,-0.053329468,0.71969604,-2.8807862,-0.11038113,-0.5843295
1570726711,-0.70202637,10.35762,0.02772522,0.41714478,-0.053329468,0.71969604,-2.8807862,-0.11038113,-0.5843295
1570726711,-0.70202637,10.35762,0.02772522,0.41714478,-0.053329468,0.71969604,-2.8807862,-0.11038113,-0.5843295
1570726711,-0.70202637,10.35762,0.02772522,0.41714478,-0.053329468,0.71969604,-2.8807862,-0.11038113,-0.5843295
1570726711,1.4168396,13.249817,-0.93115234,0.08370972,2.0303345,-1.5397339,0.070016384,2.8278742,4.733074
1570726711,1.4168396,13.249817,-0.93115234,0.08370972,2.0303345,-1.5397339,0.070016384,2.8278742,4.733074
1570726711,1.4168396,13.249817,-0.93115234,0.08370972,2.0303345,-1.5397339,0.070016384,2.8278742,4.733074
1570726711,1.4168396,13.249817,-0.93115234,0.08370972,2.0303345,-1.5397339,0.070016384,2.8278742,4.733074
1570726711,1.4168396,13.249817,-0.93115234,0.08370972,2.0303345,-1.5397339,0.070016384,2.8278742,4.733074
1570726711,1.4168396,13.249817,-0.93115234,0.08370972,2.0303345,-1.5397339,0.070016384,2.8278742,4.733074
1570726711,1.4168396,13.249817,-0.93115234,0.08370972,2.0303345,-1.5397339,0.070016384,2.8278742,4.733074
1570726711,1.4168396,13.249817,-0.93115234,0.08370972,2.0303345,-1.5397339,0.070016384,2.8278742,4.733074
1570726711,1.4168396,13.249817,-0.93115234,0.08370972,2.0303345,-1.5397339,0.070016384,2.8278742,4.733074
1570726711,1.4168396,13.249817,-0.93115234,0.08370972,2.0303345,-1.5397339,0.070016384,2.8278742,4.733074
1570726711,1.4168396,13.249817,-0.93115234,0.08370972,2.0303345,-1.5397339,0.070016384,2.8278742,4.733074
1570726711,0.053344727,12.627335,-8.365143,0.44696045,1.5594788,-0.045166016,-0.47304916,1.978095,-6.981149
1570726711,-1.2287445,12.5997925,-0.5169525,0.41394043,1.9951782,-0.3231964,-1.8429378,1.98775,-0.9642917
1570726711,-0.570343,11.013641,-3.5037231,0.69303894,0.6369629,-0.47554016,-1.3777776,0.80679226,-0.6830921
1570726711,-2.2905731,9.135391,-2.8932037,0.7803955,1.2367096,-0.58206177,-2.3476193,-1.1382818,-2.1589618
1570726711,0.15750122,6.554428,4.549179,0.16999817,0.846817,-0.49897766,-1.8705145,-3.461753,6.9938765
1570726711,6.0220947,17.773666,0.53289795,-0.9911499,0.4111328,0.4065094,4.337423,3.7256012,4.939553
1570726711,1.6969757,12.665634,-3.5396423,-0.38075256,2.0633545,0.55563354,5.433207,6.0428324,-5.417253
1570726711,2.7492218,7.8054047,-0.02734375,0.67385864,0.5687866,0.4618988,1.455632,-2.0302973,1.418808
1570726711,2.5337372,7.8137817,1.9275208,0.55029297,0.82125854,0.38946533,1.6250769,-2.9311428,3.7262588
1570726711,-0.32852173,10.024826,2.5751495,0.8208771,0.9107361,0.7260895,-1.4512109,-0.9028292,4.4307413
1570726711,-1.5364075,13.398254,2.1992645,1.4504395,3.1147766,0.9647064,-3.2677772,2.8935099,4.796932
1570726711,-0.80018616,12.57106,-2.997345,-0.01109314,5.285782,0.6749573,-3.3963606,2.6634636,-1.3117056
1570726711,0.80033875,9.60704,4.1792755,-1.0497284,3.4812164,-0.40415955,-1.8536825,-0.6536875,5.337223
1570726712,2.3410034,10.500076,0.9710388,-0.97943115,-0.189682,-1.2702179,-0.72017074,-0.17585182,3.4239912
1570726712,3.17659,11.864777,-0.49899292,-1.3618469,-0.89701843,-1.3927307,1.1364739,1.2565556,0.46966803
1570726712,3.9786377,10.885544,-1.2005005,-1.3852844,0.27690125,-0.617218,2.348425,0.4821844,-0.9223565
1570726712,1.9088593,9.512466,0.58078,-0.21456909,1.5935669,0.22860718,0.5567924,-1.0452394,0.42789057
1570726712,0.5561371,9.713577,0.9423065,0.630188,2.1251373,0.77401733,-1.0417202,-1.0996237,1.0023245
1570726712,0.03778076,10.563522,1.5420532,0.13270569,1.6809235,0.45018005,-2.0007124,-0.023558617,1.5331299
1570726712,0.73928833,9.86203,1.3457336,-0.57463074,0.67211914,0.016616821,-1.5482626,-0.6435318,1.2882622
1570726712,1.9148407,10.307343,0.6645813,-0.74079895,0.2619934,-0.17407227,-0.23906553,-0.32964325,0.4730216
1570726712,2.20932,10.746689,0.34854126,-0.8494568,0.15333557,0.048568726,0.21373975,0.0975008,-0.3352508
1570726712,1.0996094,10.77182,1.1577911,-0.60339355,0.20127869,0.3170166,-0.5949578,0.35828495,0.10367048
1570726712,0.67225647,10.824493,0.24559021,-0.12934875,0.3834381,0.40011597,-1.3592768,0.37787056,-0.6289907
1570726712,0.38853455,11.569092,0.2013092,-0.13360596,0.75520325,0.30104065,-1.8821297,0.97518826,-0.9396485
1570726712,0.65309143,11.863571,0.5388794,-0.15597534,0.7211151,0.18066406,-1.6314898,1.3819208,-0.8037076
1570726712,0.55493164,13.474869,0.083984375,0.18383789,0.6103363,0.23286438,-1.718401,2.8172674,-0.9843968
1570726712,-1.0791016,13.119339,-0.53970337,0.9242096,1.0268555,0.4895935,-3.1865354,2.766014,-1.4937662
1570726712,-0.19923401,12.451355,-1.0173492,1.4930573,1.4487,0.45550537,-3.061221,2.1121645,-2.015609
1570726712,0.7297058,11.323685,-0.4882202,2.016098,0.84576416,0.023010254,-1.8713288,0.9019861,-0.6529052
1570726712,1.7891388,10.491699,-0.9646759,2.7372894,0.7381592,-0.22732544,-0.76680183,0.07683277,-0.53245807
1570726712,2.0082092,10.483322,0.7136688,3.068573,1.0279236,-0.3839264,-0.40560365,0.015799522,1.7490947
1570726712,2.1722107,11.509232,2.474594,2.7692413,0.5773163,-0.5415802,-0.038378954,0.9573746,4.4049177
1570726712,0.65548706,11.965332,1.7886658,2.1822815,0.8393707,-0.6726074,-1.4809902,1.7529383,4.345599
1570726712,0.39811707,10.331284,0.53289795,1.348175,1.2963715,-1.0007172,-1.5802486,0.4107933,4.0079393
1570726712,-0.04360962,10.271439,-0.52653503,0.58758545,1.0162048,-1.5088348,-1.5548215,0.24701405,2.976196
1570726712,0.27960205,10.786194,-1.427948,0.56947327,0.16719055,-1.9008636,-0.94672406,0.5199051,2.440855
1570726712,0.37417603,11.8719635,-0.8473511,-0.007904053,1.1078186,-2.0436096,-0.25086164,1.6559057,2.4877183
1570726712,2.429596,11.140533,0.1618042,0.15402222,1.6841278,-1.7953949,2.0311043,1.0345707,3.9170415
1570726712,2.7599945,10.132568,-0.80067444,0.20515442,1.8726654,-1.4236145,2.5702343,0.39052582,2.831716
1570726712,2.5600739,9.40593,-1.1717682,0.15614319,1.8630829,-1.1839294,2.914232,-0.69373035,2.6976154
1570726712,2.584015,9.103058,-1.2531738,-0.293396,1.5552216,-1.0166931,2.8717084,-0.96276283,2.255117
1570726712,2.6857758,8.369232,-0.5899811,-0.5117798,1.0769196,-0.7418518,3.1761193,-1.6941614,2.9543397
1570726712,2.1315155,8.198059,-0.9072113,-0.63960266,1.1525574,-0.22625732,2.6140056,-1.9898548,2.3350663
1570726712,1.3749542,8.134613,-1.5548401,-0.8281555,1.289978,0.25416565,1.7672182,-2.03094,1.7232668
1570726712,0.7859802,8.979767,-2.1234589,-0.785553,1.4710693,0.52793884,0.985193,-1.5945206,1.0530882
1570726713,0.062927246,12.901459,-4.5727386,-0.76530457,1.7533569,0.5833435,-0.06518161,1.7158251,-1.2705374
1570726713,-1.2862091,15.068222,-5.571121,-0.5916748,0.80740356,0.18386841,-1.5023258,4.652955,-3.219962
1570726713,-0.4769745,11.40509,-5.135376,-0.11016846,-0.40167236,-0.13677979,-1.407512,1.3207283,-2.7421577
1570726713,1.0325775,10.922653,-5.2886047,0.2743988,0.36532593,-0.27845764,1.1989259,0.39279842,-2.675416
1570726713,-0.1381836,12.134125,1.640213,0.5843811,0.19807434,-0.20602417,-0.5006683,1.4151096,3.1419132
1570726713,2.1542664,11.514023,-0.3972473,-0.115493774,-0.06930542,-4.272461E-4,1.719068,1.4135971,2.2172997
1570726713,2.6127472,9.708801,-1.5967407,-0.23268127,0.06704712,0.28186035,2.2448902,-0.7386179,0.86433315
1570726713,2.501419,9.488525,-0.21887207,-0.21669006,0.2566681,0.4938507,1.9444447,-1.1727448,2.1445618
1570726713,3.113144,9.958984,0.2850952,-0.5852814,0.79356384,0.51516724,2.379591,-0.6295347,1.9847767
1570726713,1.7604218,10.482117,1.0787811,-0.6172333,0.77119446,0.6142273,1.0266585,-0.27276516,3.2837121
1570726713,0.89730835,10.573105,-0.83299255,-0.63002014,1.229248,0.8283539,-0.15851998,-0.030417442,1.1361591
1570726713,0.09524536,11.454163,0.85372925,-0.5458679,2.4340668,0.80384827,-1.3202412,0.8414793,1.9008515
1570726713,-0.2818451,11.323685,0.098358154,-0.20391846,2.6354065,0.702652,-2.505795,0.8864584,1.4334325
1570726713,0.72132874,10.820908,1.7359924,-0.28274536,0.7498779,-0.045166016,-1.4580023,0.4723053,2.6269383
1570726713,1.2492523,9.444229,0.86569214,-0.33494568,-0.92897034,-0.68325806,-0.93458617,-0.92962646,1.952718
1570726713,1.3677673,9.797379,0.17018127,-0.6491852,-1.6096802,-0.8845978,-0.2911141,-0.9365969,1.1945751
1570726713,1.3677673,9.797379,0.17018127,-0.6491852,-1.6096802,-0.8845978,-0.2911141,-0.9365969,1.1945751
1570726718,1.3677673,9.797379,0.17018127,-0.6491852,-1.6096802,-0.8845978,-0.2911141,-0.9365969,1.1945751
1570726718,1.3677673,9.797379,0.17018127,-0.6491852,-1.6096802,-0.8845978,-0.2911141,-0.9365969,1.1945751
1570726718,1.3677673,9.797379,0.17018127,-0.6491852,-1.6096802,-0.8845978,-0.2911141,-0.9365969,1.1945751
1570726718,1.3677673,9.797379,0.17018127,-0.6491852,-1.6096802,-0.8845978,-0.2911141,-0.9365969,1.1945751
1570726718,1.3677673,9.797379,0.17018127,-0.6491852,-1.6096802,-0.8845978,-0.2911141,-0.9365969,1.1945751
1570726718,1.3677673,9.797379,0.17018127,-0.6491852,-1.6096802,-0.8845978,-0.2911141,-0.9365969,1.1945751
1570726718,1.3677673,9.797379,0.17018127,-0.6491852,-1.6096802,-0.8845978,-0.2911141,-0.9365969,1.1945751
1570726718,1.3677673,9.797379,0.17018127,-0.6491852,-1.6096802,-0.8845978,-0.2911141,-0.9365969,1.1945751
1570726718,1.3677673,9.797379,0.17018127,-0.6491852,-1.6096802,-0.8845978,-0.2911141,-0.9365969,1.1945751
1570726718,1.3677673,9.797379,0.17018127,-0.6491852,-1.6096802,-0.8845978,-0.2911141,-0.9365969,1.1945751
1570726718,1.3677673,9.797379,0.17018127,-0.6491852,-1.6096802,-0.8845978,-0.2911141,-0.9365969,1.1945751
1570726718,1.3677673,9.797379,0.17018127,-0.6491852,-1.6096802,-0.8845978,-0.2911141,-0.9365969,1.1945751
1570726718,1.3677673,9.797379,0.17018127,-0.6491852,-1.6096802,-0.8845978,-0.2911141,-0.9365969,1.1945751
1570726718,1.3677673,9.797379,0.17018127,-0.6491852,-1.6096802,-0.8845978,-0.2911141,-0.9365969,1.1945751
1570726718,1.3677673,9.797379,0.17018127,-0.6491852,-1.6096802,-0.8845978,-0.2911141,-0.9365969,1.1945751
1570726718,1.3677673,9.797379,0.17018127,-0.6491852,-1.6096802,-0.8845978,-0.2911141,-0.9365969,1.1945751
1570726718,1.3677673,9.797379,0.17018127,-0.6491852,-1.6096802,-0.8845978,-0.2911141,-0.9365969,1.1945751
1570726718,1.3677673,9.797379,0.17018127,-0.6491852,-1.6096802,-0.8845978,-0.2911141,-0.9365969,1.1945751
1570726718,1.3677673,9.797379,0.17018127,-0.6491852,-1.6096802,-0.8845978,-0.2911141,-0.9365969,1.1945751
1570726718,1.3677673,9.797379,0.17018127,-0.6491852,-1.6096802,-0.8845978,-0.2911141,-0.9365969,1.1945751
1570726718,1.3677673,9.797379,0.17018127,-0.6491852,-1.6096802,-0.8845978,-0.2911141,-0.9365969,1.1945751
1570726718,1.3677673,9.797379,0.17018127,-0.6491852,-1.6096802,-0.8845978,-0.2911141,-0.9365969,1.1945751
1570726718,1.3677673,9.797379,0.17018127,-0.6491852,-1.6096802,-0.8845978,-0.2911141,-0.9365969,1.1945751
1570726718,1.3677673,9.797379,0.17018127,-0.6491852,-1.6096802,-0.8845978,-0.2911141,-0.9365969,1.1945751
1570726718,1.3677673,9.797379,0.17018127,-0.6491852,-1.6096802,-0.8845978,-0.2911141,-0.9365969,1.1945751
1570726718,1.3677673,9.797379,0.17018127,-0.6491852,-1.6096802,-0.8845978,-0.2911141,-0.9365969,1.1945751
1570726718,1.3677673,9.797379,0.17018127,-0.6491852,-1.6096802,-0.8845978,-0.2911141,-0.9365969,1.1945751
1570726718,1.3677673,9.797379,0.17018127,-0.6491852,-1.6096802,-0.8845978,-0.2911141,-0.9365969,1.1945751
1570726718,1.3677673,9.797379,0.17018127,-0.6491852,-1.6096802,-0.8845978,-0.2911141,-0.9365969,1.1945751
1570726718,1.3677673,9.797379,0.17018127,-0.6491852,-1.6096802,-0.8845978,-0.2911141,-0.9365969,1.1945751
1570726718,1.3677673,9.797379,0.17018127,-0.6491852,-1.6096802,-0.8845978,-0.2911141,-0.9365969,1.1945751
1570726718,1.3677673,9.797379,0.17018127,-0.6491852,-1.6096802,-0.8845978,-0.2911141,-0.9365969,1.1945751
1570726718,1.3677673,9.797379,0.17018127,-0.6491852,-1.6096802,-0.8845978,-0.2911141,-0.9365969,1.1945751
1570726718,1.3677673,9.797379,0.17018127,-0.6491852,-1.6096802,-0.8845978,-0.2911141,-0.9365969,1.1945751
1570726718,1.3677673,9.797379,0.17018127,-0.6491852,-1.6096802,-0.8845978,-0.2911141,-0.9365969,1.1945751
1570726718,1.3677673,9.797379,0.17018127,-0.6491852,-1.6096802,-0.8845978,-0.2911141,-0.9365969,1.1945751
1570726718,1.3677673,9.797379,0.17018127,-0.6491852,-1.6096802,-0.8845978,-0.2911141,-0.9365969,1.1945751
1570726718,1.3677673,9.797379,0.17018127,-0.6491852,-1.6096802,-0.8845978,-0.2911141,-0.9365969,1.1945751
1570726718,1.3677673,9.797379,0.17018127,-0.6491852,-1.6096802,-0.8845978,-0.2911141,-0.9365969,1.1945751
1570726718,1.3677673,9.797379,0.17018127,-0.6491852,-1.6096802,-0.8845978,-0.2911141,-0.9365969,1.1945751
1570726718,1.3677673,9.797379,0.17018127,-0.6491852,-1.6096802,-0.8845978,-0.2911141,-0.9365969,1.1945751
1570726718,1.3677673,9.797379,0.17018127,-0.6491852,-1.6096802,-0.8845978,-0.2911141,-0.9365969,1.1945751
1570726718,1.3677673,9.797379,0.17018127,-0.6491852,-1.6096802,-0.8845978,-0.2911141,-0.9365969,1.1945751
1570726718,1.3677673,9.797379,0.17018127,-0.6491852,-1.6096802,-0.8845978,-0.2911141,-0.9365969,1.1945751
1570726718,1.3677673,9.797379,0.17018127,-0.6491852,-1.6096802,-0.8845978,-0.2911141,-0.9365969,1.1945751
1570726718,1.3677673,9.797379,0.17018127,-0.6491852,-1.6096802,-0.8845978,-0.2911141,-0.9365969,1.1945751
1570726718,1.3677673,9.797379,0.17018127,-0.6491852,-1.6096802,-0.8845978,-0.2911141,-0.9365969,1.1945751
1570726718,1.3677673,9.797379,0.17018127,-0.6491852,-1.6096802,-0.8845978,-0.2911141,-0.9365969,1.1945751
1570726718,1.3677673,9.797379,0.17018127,-0.6491852,-1.6096802,-0.8845978,-0.2911141,-0.9365969,1.1945751
1570726718,1.3677673,9.797379,0.17018127,-0.6491852,-1.6096802,-0.8845978,-0.2911141,-0.9365969,1.1945751
1570726718,1.3677673,9.797379,0.17018127,-0.6491852,-1.6096802,-0.8845978,-0.2911141,-0.9365969,1.1945751
1570726718,1.3677673,9.797379,0.17018127,-0.6491852,-1.6096802,-0.8845978,-0.2911141,-0.9365969,1.1945751
1570726718,1.3677673,9.797379,0.17018127,-0.6491852,-1.6096802,-0.8845978,-0.2911141,-0.9365969,1.1945751
1570726718,1.3677673,9.797379,0.17018127,-0.6491852,-1.6096802,-0.8845978,-0.2911141,-0.9365969,1.1945751
1570726718,1.3677673,9.797379,0.17018127,-0.6491852,-1.6096802,-0.8845978,-0.2911141,-0.9365969,1.1945751
1570726718,1.3677673,9.797379,0.17018127,-0.6491852,-1.6096802,-0.8845978,-0.2911141,-0.9365969,1.1945751
1570726718,1.3677673,9.797379,0.17018127,-0.6491852,-1.6096802,-0.8845978,-0.2911141,-0.9365969,1.1945751
1570726718,1.3677673,9.797379,0.17018127,-0.6491852,-1.6096802,-0.8845978,-0.2911141,-0.9365969,1.1945751
1570726718,1.3677673,9.797379,0.17018127,-0.6491852,-1.6096802,-0.8845978,-0.2911141,-0.9365969,1.1945751
1570726718,1.3677673,9.797379,0.17018127,-0.6491852,-1.6096802,-0.8845978,-0.2911141,-0.9365969,1.1945751
1570726718,1.3677673,9.797379,0.17018127,-0.6491852,-1.6096802,-0.8845978,-0.2911141,-0.9365969,1.1945751
1570726718,1.3677673,9.797379,0.17018127,-0.6491852,-1.6096802,-0.8845978,-0.2911141,-0.9365969,1.1945751
1570726718,1.3677673,9.797379,0.17018127,-0.6491852,-1.6096802,-0.8845978,-0.2911141,-0.9365969,1.1945751
1570726718,1.3677673,9.797379,0.17018127,-0.6491852,-1.6096802,-0.8845978,-0.2911141,-0.9365969,1.1945751
1570726718,1.3677673,9.797379,0.17018127,-0.6491852,-1.6096802,-0.8845978,-0.2911141,-0.9365969,1.1945751
1570726718,1.3677673,9.797379,0.17018127,-0.6491852,-1.6096802,-0.8845978,-0.2911141,-0.9365969,1.1945751
1570726718,1.3677673,9.797379,0.17018127,-0.6491852,-1.6096802,-0.8845978,-0.2911141,-0.9365969,1.1945751
1570726718,1.3677673,9.797379,0.17018127,-0.6491852,-1.6096802,-0.8845978,-0.2911141,-0.9365969,1.1945751
1570726718,1.3677673,9.797379,0.17018127,-0.6491852,-1.6096802,-0.8845978,-0.2911141,-0.9365969,1.1945751
1570726718,1.3677673,9.797379,0.17018127,-0.6491852,-1.6096802,-0.8845978,-0.2911141,-0.9365969,1.1945751
1570726718,1.3677673,9.797379,0.17018127,-0.6491852,-1.6096802,-0.8845978,-0.2911141,-0.9365969,1.1945751
1570726718,1.3677673,9.797379,0.17018127,-0.6491852,-1.6096802,-0.8845978,-0.2911141,-0.9365969,1.1945751
1570726718,1.3677673,9.797379,0.17018127,-0.6491852,-1.6096802,-0.8845978,-0.2911141,-0.9365969,1.1945751
1570726718,1.3677673,9.797379,0.17018127,-0.6491852,-1.6096802,-0.8845978,-0.2911141,-0.9365969,1.1945751
1570726718,1.3677673,9.797379,0.17018127,-0.6491852,-1.6096802,-0.8845978,-0.2911141,-0.9365969,1.1945751
1570726718,1.3677673,9.797379,0.17018127,-0.6491852,-1.6096802,-0.8845978,-0.2911141,-0.9365969,1.1945751
1570726718,1.3677673,9.797379,0.17018127,-0.6491852,-1.6096802,-0.8845978,-0.2911141,-0.9365969,1.1945751
1570726719,1.3677673,9.797379,0.17018127,-0.6491852,-1.6096802,-0.8845978,-0.2911141,-0.9365969,1.1945751
1570726719,1.3677673,9.797379,0.17018127,-0.6491852,-1.6096802,-0.8845978,-0.2911141,-0.9365969,1.1945751
1570726719,1.3677673,9.797379,0.17018127,-0.6491852,-1.6096802,-0.8845978,-0.2911141,-0.9365969,1.1945751
1570726719,1.3677673,9.797379,0.17018127,-0.6491852,-1.6096802,-0.8845978,-0.2911141,-0.9365969,1.1945751
1570726719,1.3677673,9.797379,0.17018127,-0.6491852,-1.6096802,-0.8845978,-0.2911141,-0.9365969,1.1945751
1570726719,1.3677673,9.797379,0.17018127,-0.6491852,-1.6096802,-0.8845978,-0.2911141,-0.9365969,1.1945751
1570726719,1.3677673,9.797379,0.17018127,-0.6491852,-1.6096802,-0.8845978,-0.2911141,-0.9365969,1.1945751
1570726719,1.3677673,9.797379,0.17018127,-0.6491852,-1.6096802,-0.8845978,-0.2911141,-0.9365969,1.1945751
1570726719,1.3677673,9.797379,0.17018127,-0.6491852,-1.6096802,-0.8845978,-0.2911141,-0.9365969,1.1945751
1570726719,1.3677673,9.797379,0.17018127,-0.6491852,-1.6096802,-0.8845978,-0.2911141,-0.9365969,1.1945751
1570726719,1.3677673,9.797379,0.17018127,-0.6491852,-1.6096802,-0.8845978,-0.2911141,-0.9365969,1.1945751
1570726719,1.3677673,9.797379,0.17018127,-0.6491852,-1.6096802,-0.8845978,-0.2911141,-0.9365969,1.1945751
1570726719,1.3677673,9.797379,0.17018127,-0.6491852,-1.6096802,-0.8845978,-0.2911141,-0.9365969,1.1945751
1570726719,1.3677673,9.797379,0.17018127,-0.6491852,-1.6096802,-0.8845978,-0.2911141,-0.9365969,1.1945751
1570726719,1.3677673,9.797379,0.17018127,-0.6491852,-1.6096802,-0.8845978,-0.2911141,-0.9365969,1.1945751
1570726719,1.3677673,9.797379,0.17018127,-0.6491852,-1.6096802,-0.8845978,-0.2911141,-0.9365969,1.1945751
1570726719,1.3677673,9.797379,0.17018127,-0.6491852,-1.6096802,-0.8845978,-0.2911141,-0.9365969,1.1945751
1570726719,1.3677673,9.797379,0.17018127,-0.6491852,-1.6096802,-0.8845978,-0.2911141,-0.9365969,1.1945751
1570726719,1.3677673,9.797379,0.17018127,-0.6491852,-1.6096802,-0.8845978,-0.2911141,-0.9365969,1.1945751
1570726719,1.3677673,9.797379,0.17018127,-0.6491852,-1.6096802,-0.8845978,-0.2911141,-0.9365969,1.1945751
1570726719,1.3677673,9.797379,0.17018127,-0.6491852,-1.6096802,-0.8845978,-0.2911141,-0.9365969,1.1945751
1570726719,1.3677673,9.797379,0.17018127,-0.6491852,-1.6096802,-0.8845978,-0.2911141,-0.9365969,1.1945751
1570726719,1.3677673,9.797379,0.17018127,-0.6491852,-1.6096802,-0.8845978,-0.2911141,-0.9365969,1.1945751
1570726719,1.3677673,9.797379,0.17018127,-0.6491852,-1.6096802,-0.8845978,-0.2911141,-0.9365969,1.1945751
1570726719,1.3677673,9.797379,0.17018127,-0.6491852,-1.6096802,-0.8845978,-0.2911141,-0.9365969,1.1945751
1570726719,1.3677673,9.797379,0.17018127,-0.6491852,-1.6096802,-0.8845978,-0.2911141,-0.9365969,1.1945751
1570726719,1.3677673,9.797379,0.17018127,-0.6491852,-1.6096802,-0.8845978,-0.2911141,-0.9365969,1.1945751
1570726719,1.3677673,9.797379,0.17018127,-0.6491852,-1.6096802,-0.8845978,-0.2911141,-0.9365969,1.1945751
1570726719,1.3677673,9.797379,0.17018127,-0.6491852,-1.6096802,-0.8845978,-0.2911141,-0.9365969,1.1945751
1570726719,1.3677673,9.797379,0.17018127,-0.6491852,-1.6096802,-0.8845978,-0.2911141,-0.9365969,1.1945751
1570726719,1.3677673,9.797379,0.17018127,-0.6491852,-1.6096802,-0.8845978,-0.2911141,-0.9365969,1.1945751
1570726719,1.3677673,9.797379,0.17018127,-0.6491852,-1.6096802,-0.8845978,-0.2911141,-0.9365969,1.1945751
1570726719,1.3677673,9.797379,0.17018127,-0.6491852,-1.6096802,-0.8845978,-0.2911141,-0.9365969,1.1945751
1570726719,1.3677673,9.797379,0.17018127,-0.6491852,-1.6096802,-0.8845978,-0.2911141,-0.9365969,1.1945751
1570726719,1.3677673,9.797379,0.17018127,-0.6491852,-1.6096802,-0.8845978,-0.2911141,-0.9365969,1.1945751
1570726719,1.3677673,9.797379,0.17018127,-0.6491852,-1.6096802,-0.8845978,-0.2911141,-0.9365969,1.1945751
1570726719,1.3677673,9.797379,0.17018127,-0.6491852,-1.6096802,-0.8845978,-0.2911141,-0.9365969,1.1945751
1570726719,1.3677673,9.797379,0.17018127,-0.6491852,-1.6096802,-0.8845978,-0.2911141,-0.9365969,1.1945751
1570726719,1.3677673,9.797379,0.17018127,-0.6491852,-1.6096802,-0.8845978,-0.2911141,-0.9365969,1.1945751
1570726719,1.3677673,9.797379,0.17018127,-0.6491852,-1.6096802,-0.8845978,-0.2911141,-0.9365969,1.1945751
1570726719,1.3677673,9.797379,0.17018127,-0.6491852,-1.6096802,-0.8845978,-0.2911141,-0.9365969,1.1945751
1570726719,1.3677673,9.797379,0.17018127,-0.6491852,-1.6096802,-0.8845978,-0.2911141,-0.9365969,1.1945751
1570726719,1.3677673,9.797379,0.17018127,-0.6491852,-1.6096802,-0.8845978,-0.2911141,-0.9365969,1.1945751
1570726719,1.3677673,9.797379,0.17018127,-0.6491852,-1.6096802,-0.8845978,-0.2911141,-0.9365969,1.1945751
1570726719,1.3677673,9.797379,0.17018127,-0.6491852,-1.6096802,-0.8845978,-0.2911141,-0.9365969,1.1945751
1570726719,1.3677673,9.797379,0.17018127,-0.6491852,-1.6096802,-0.8845978,-0.2911141,-0.9365969,1.1945751
1570726719,1.3677673,9.797379,0.17018127,-0.6491852,-1.6096802,-0.8845978,-0.2911141,-0.9365969,1.1945751
1570726719,1.3677673,9.797379,0.17018127,-0.6491852,-1.6096802,-0.8845978,-0.2911141,-0.9365969,1.1945751
1570726719,1.3677673,9.797379,0.17018127,-0.6491852,-1.6096802,-0.8845978,-0.2911141,-0.9365969,1.1945751
1570726719,1.3677673,9.797379,0.17018127,-0.6491852,-1.6096802,-0.8845978,-0.2911141,-0.9365969,1.1945751
1570726719,1.3677673,9.797379,0.17018127,-0.6491852,-1.6096802,-0.8845978,-0.2911141,-0.9365969,1.1945751
1570726719,1.3677673,9.797379,0.17018127,-0.6491852,-1.6096802,-0.8845978,-0.2911141,-0.9365969,1.1945751
1570726719,1.3677673,9.797379,0.17018127,-0.6491852,-1.6096802,-0.8845978,-0.2911141,-0.9365969,1.1945751
1570726719,1.3677673,9.797379,0.17018127,-0.6491852,-1.6096802,-0.8845978,-0.2911141,-0.9365969,1.1945751
1570726719,1.3677673,9.797379,0.17018127,-0.6491852,-1.6096802,-0.8845978,-0.2911141,-0.9365969,1.1945751
1570726719,1.3677673,9.797379,0.17018127,-0.6491852,-1.6096802,-0.8845978,-0.2911141,-0.9365969,1.1945751
1570726719,1.3677673,9.797379,0.17018127,-0.6491852,-1.6096802,-0.8845978,-0.2911141,-0.9365969,1.1945751
1570726719,1.3677673,9.797379,0.17018127,-0.6491852,-1.6096802,-0.8845978,-0.2911141,-0.9365969,1.1945751
1570726719,1.3677673,9.797379,0.17018127,-0.6491852,-1.6096802,-0.8845978,-0.2911141,-0.9365969,1.1945751
1570726719,1.3677673,9.797379,0.17018127,-0.6491852,-1.6096802,-0.8845978,-0.2911141,-0.9365969,1.1945751
1570726719,1.3677673,9.797379,0.17018127,-0.6491852,-1.6096802,-0.8845978,-0.2911141,-0.9365969,1.1945751
1570726719,1.3677673,9.797379,0.17018127,-0.6491852,-1.6096802,-0.8845978,-0.2911141,-0.9365969,1.1945751
1570726719,1.3677673,9.797379,0.17018127,-0.6491852,-1.6096802,-0.8845978,-0.2911141,-0.9365969,1.1945751
1570726719,1.3677673,9.797379,0.17018127,-0.6491852,-1.6096802,-0.8845978,-0.2911141,-0.9365969,1.1945751
1570726719,1.3677673,9.797379,0.17018127,-0.6491852,-1.6096802,-0.8845978,-0.2911141,-0.9365969,1.1945751
1570726719,1.3677673,9.797379,0.17018127,-0.6491852,-1.6096802,-0.8845978,-0.2911141,-0.9365969,1.1945751
1570726719,1.3677673,9.797379,0.17018127,-0.6491852,-1.6096802,-0.8845978,-0.2911141,-0.9365969,1.1945751
1570726719,1.3677673,9.797379,0.17018127,-0.6491852,-1.6096802,-0.8845978,-0.2911141,-0.9365969,1.1945751
1570726719,1.3677673,9.797379,0.17018127,-0.6491852,-1.6096802,-0.8845978,-0.2911141,-0.9365969,1.1945751
1570726719,1.3677673,9.797379,0.17018127,-0.6491852,-1.6096802,-0.8845978,-0.2911141,-0.9365969,1.1945751
1570726719,1.3677673,9.797379,0.17018127,-0.6491852,-1.6096802,-0.8845978,-0.2911141,-0.9365969,1.1945751
1570726719,1.3677673,9.797379,0.17018127,-0.6491852,-1.6096802,-0.8845978,-0.2911141,-0.9365969,1.1945751
1570726719,1.3677673,9.797379,0.17018127,-0.6491852,-1.6096802,-0.8845978,-0.2911141,-0.9365969,1.1945751
1570726719,1.3677673,9.797379,0.17018127,-0.6491852,-1.6096802,-0.8845978,-0.2911141,-0.9365969,1.1945751
1570726719,1.3677673,9.797379,0.17018127,-0.6491852,-1.6096802,-0.8845978,-0.2911141,-0.9365969,1.1945751
1570726719,1.3677673,9.797379,0.17018127,-0.6491852,-1.6096802,-0.8845978,-0.2911141,-0.9365969,1.1945751
1570726719,1.3677673,9.797379,0.17018127,-0.6491852,-1.6096802,-0.8845978,-0.2911141,-0.9365969,1.1945751
1570726719,1.3677673,9.797379,0.17018127,-0.6491852,-1.6096802,-0.8845978,-0.2911141,-0.9365969,1.1945751
1570726719,1.3677673,9.797379,0.17018127,-0.6491852,-1.6096802,-0.8845978,-0.2911141,-0.9365969,1.1945751
1570726719,1.3677673,9.797379,0.17018127,-0.6491852,-1.6096802,-0.8845978,-0.2911141,-0.9365969,1.1945751
1570726719,1.3677673,9.797379,0.17018127,-0.6491852,-1.6096802,-0.8845978,-0.2911141,-0.9365969,1.1945751
1570726719,1.3677673,9.797379,0.17018127,-0.6491852,-1.6096802,-0.8845978,-0.2911141,-0.9365969,1.1945751
1570726719,1.3677673,9.797379,0.17018127,-0.6491852,-1.6096802,-0.8845978,-0.2911141,-0.9365969,1.1945751
1570726719,1.3677673,9.797379,0.17018127,-0.6491852,-1.6096802,-0.8845978,-0.2911141,-0.9365969,1.1945751
1570726719,1.3677673,9.797379,0.17018127,-0.6491852,-1.6096802,-0.8845978,-0.2911141,-0.9365969,1.1945751
1570726719,1.3677673,9.797379,0.17018127,-0.6491852,-1.6096802,-0.8845978,-0.2911141,-0.9365969,1.1945751
1570726719,1.3677673,9.797379,0.17018127,-0.6491852,-1.6096802,-0.8845978,-0.2911141,-0.9365969,1.1945751
1570726719,1.3677673,9.797379,0.17018127,-0.6491852,-1.6096802,-0.8845978,-0.2911141,-0.9365969,1.1945751
1570726719,1.3677673,9.797379,0.17018127,-0.6491852,-1.6096802,-0.8845978,-0.2911141,-0.9365969,1.1945751
1570726719,1.3677673,9.797379,0.17018127,-0.6491852,-1.6096802,-0.8845978,-0.2911141,-0.9365969,1.1945751
1570726719,1.3677673,9.797379,0.17018127,-0.6491852,-1.6096802,-0.8845978,-0.2911141,-0.9365969,1.1945751
1570726719,1.3677673,9.797379,0.17018127,-0.6491852,-1.6096802,-0.8845978,-0.2911141,-0.9365969,1.1945751
1570726719,1.3677673,9.797379,0.17018127,-0.6491852,-1.6096802,-0.8845978,-0.2911141,-0.9365969,1.1945751
1570726719,1.3677673,9.797379,0.17018127,-0.6491852,-1.6096802,-0.8845978,-0.2911141,-0.9365969,1.1945751
1570726719,1.3677673,9.797379,0.17018127,-0.6491852,-1.6096802,-0.8845978,-0.2911141,-0.9365969,1.1945751
1570726719,1.3677673,9.797379,0.17018127,-0.6491852,-1.6096802,-0.8845978,-0.2911141,-0.9365969,1.1945751
1570726719,1.3677673,9.797379,0.17018127,-0.6491852,-1.6096802,-0.8845978,-0.2911141,-0.9365969,1.1945751
1570726719,1.3677673,9.797379,0.17018127,-0.6491852,-1.6096802,-0.8845978,-0.2911141,-0.9365969,1.1945751
1570726719,1.3677673,9.797379,0.17018127,-0.6491852,-1.6096802,-0.8845978,-0.2911141,-0.9365969,1.1945751
1570726719,1.3677673,9.797379,0.17018127,-0.6491852,-1.6096802,-0.8845978,-0.2911141,-0.9365969,1.1945751
1570726719,1.3677673,9.797379,0.17018127,-0.6491852,-1.6096802,-0.8845978,-0.2911141,-0.9365969,1.1945751
1570726719,1.3677673,9.797379,0.17018127,-0.6491852,-1.6096802,-0.8845978,-0.2911141,-0.9365969,1.1945751
1570726719,1.3677673,9.797379,0.17018127,-0.6491852,-1.6096802,-0.8845978,-0.2911141,-0.9365969,1.1945751
1570726719,1.3677673,9.797379,0.17018127,-0.6491852,-1.6096802,-0.8845978,-0.2911141,-0.9365969,1.1945751
1570726719,1.3677673,9.797379,0.17018127,-0.6491852,-1.6096802,-0.8845978,-0.2911141,-0.9365969,1.1945751
1570726719,1.3677673,9.797379,0.17018127,-0.6491852,-1.6096802,-0.8845978,-0.2911141,-0.9365969,1.1945751
1570726719,1.3677673,9.797379,0.17018127,-0.6491852,-1.6096802,-0.8845978,-0.2911141,-0.9365969,1.1945751
1570726719,1.3677673,9.797379,0.17018127,-0.6491852,-1.6096802,-0.8845978,-0.2911141,-0.9365969,1.1945751
1570726719,1.3677673,9.797379,0.17018127,-0.6491852,-1.6096802,-0.8845978,-0.2911141,-0.9365969,1.1945751
1570726719,1.3677673,9.797379,0.17018127,-0.6491852,-1.6096802,-0.8845978,-0.2911141,-0.9365969,1.1945751
1570726719,1.3677673,9.797379,0.17018127,-0.6491852,-1.6096802,-0.8845978,-0.2911141,-0.9365969,1.1945751
1570726719,0.7620392,8.607468,0.09236145,-0.6491852,-1.6096802,-0.8845978,-0.14630139,-0.35379028,-0.31586698
1570726719,0.49627686,18.210602,-1.992981,-0.6491852,-1.6096802,-0.8845978,-0.6057668,-0.65742683,2.742999
1570726719,4.6454315,9.939835,-13.365433,0.91674805,-0.021362305,0.45869446,0.14698237,-2.40384,3.7289572
1570726719,1.8106995,12.741058,1.3493195,0.4363098,1.8002319,0.97961426,1.2564082,3.6398277,2.6908984
1570726719,1.8106995,12.741058,1.3493195,0.4363098,1.8002319,0.97961426,1.2564082,3.6398277,2.6908984
1570726720,1.6047974,12.120956,1.2152557,0.4363098,1.8002319,0.97961426,1.2564082,3.6398277,2.6908984
1570726720,2.1075745,10.470154,3.3807983,0.4363098,1.8002319,0.97961426,1.2564082,3.6398277,2.6908984
1570726720,2.1075745,10.470154,3.3807983,0.4363098,1.8002319,0.97961426,1.2564082,3.6398277,2.6908984
1570726720,2.1075745,10.470154,3.3807983,0.4363098,1.8002319,0.97961426,1.2564082,3.6398277,2.6908984
1570726720,2.1075745,10.470154,3.3807983,0.4363098,1.8002319,0.97961426,1.2564082,3.6398277,2.6908984
1570726720,2.1075745,10.470154,3.3807983,0.4363098,1.8002319,0.97961426,1.2564082,3.6398277,2.6908984
1570726720,2.1075745,10.470154,3.3807983,0.4363098,1.8002319,0.97961426,1.2564082,3.6398277,2.6908984
1570726720,2.1075745,10.470154,3.3807983,0.4363098,1.8002319,0.97961426,1.2564082,3.6398277,2.6908984
1570726720,2.1075745,10.470154,3.3807983,0.4363098,1.8002319,0.97961426,1.2564082,3.6398277,2.6908984
1570726720,2.1075745,10.470154,3.3807983,0.4363098,1.8002319,0.97961426,1.2564082,3.6398277,2.6908984
1570726720,2.1075745,10.470154,3.3807983,0.4363098,1.8002319,0.97961426,1.2564082,3.6398277,2.6908984
1570726720,2.1075745,10.470154,3.3807983,0.4363098,1.8002319,0.97961426,1.2564082,3.6398277,2.6908984
1570726720,2.1075745,10.470154,3.3807983,0.4363098,1.8002319,0.97961426,1.2564082,3.6398277,2.6908984
1570726720,0.2676239,6.094742,-0.2607727,0.4363098,1.8002319,0.97961426,-1.5805784,-2.2459126,-2.4226556
1570726720,0.2676239,6.094742,-0.2607727,0.4363098,1.8002319,0.97961426,3.597097,2.662531,2.595647
1570726720,-0.16333008,8.0855255,1.7683105,0.4363098,1.8002319,0.97961426,0.29582846,-1.515625,2.36969
1570726720,0.9140625,10.205597,1.4247437,0.4363098,1.8002319,0.97961426,0.29582846,-1.515625,2.36969
1570726720,5.4486847,9.4370575,0.21208191,0.4363098,1.8002319,0.97961426,0.29582846,-1.515625,2.36969
1570726720,-0.01966858,11.622955,0.26235962,0.4363098,1.8002319,0.97961426,0.29582846,-1.515625,2.36969
1570726720,-0.62420654,6.8094177,2.857666,0.4363098,1.8002319,0.97961426,0.29582846,-1.515625,2.36969
1570726720,-0.91270447,7.4774017,8.583405,-0.13574219,-1.1356354,-0.8110962,0.29582846,-1.515625,2.36969
1570726720,-0.91270447,7.4774017,8.583405,-1.3213806,-0.747879,0.010223389,0.29582846,-1.515625,2.36969
1570726720,-0.91270447,7.4774017,8.583405,-0.8451996,-0.6104584,0.3138275,0.29582846,-1.515625,2.36969
1570726720,-0.91270447,7.4774017,8.583405,-1.1434784,0.42497253,0.80278015,0.29582846,-1.515625,2.36969
1570726720,-0.91270447,7.4774017,8.583405,0.19769287,-2.645111,0.76123047,0.29582846,-1.515625,2.36969
1570726720,-0.91270447,7.4774017,8.583405,0.5705414,-0.142807,-0.24224854,0.29582846,-1.515625,2.36969
1570726720,-0.91270447,7.4774017,8.583405,0.86880493,1.721405,-0.8718109,0.29582846,-1.515625,2.36969
1570726720,-0.91270447,7.4774017,8.583405,2.269638,-1.7034149,-1.0230865,0.29582846,-1.515625,2.36969
1570726720,-0.91270447,7.4774017,8.583405,0.5854492,1.1483002,-0.10908508,0.29582846,-1.515625,2.36969
1570726720,-0.91270447,7.4774017,8.583405,-0.5724945,2.375473,-0.490448,0.29582846,-1.515625,2.36969
1570726720,-0.91270447,7.4774017,8.583405,-0.5724945,2.375473,-0.490448,0.29582846,-1.515625,2.36969
1570726720,-0.91270447,7.4774017,8.583405,0.43737793,1.1429596,-0.4308014,0.29582846,-1.515625,2.36969
1570726720,-0.91270447,7.4774017,8.583405,-1.2542572,-1.4296417,0.17959595,0.29582846,-1.515625,2.36969
1570726720,-0.91270447,7.4774017,8.583405,-0.6566467,0.28329468,1.9500732,0.29582846,-1.515625,2.36969
1570726720,-0.91270447,7.4774017,8.583405,-0.29125977,0.28222656,0.3905182,0.29582846,-1.515625,2.36969
1570726720,-0.91270447,7.4774017,8.583405,0.20515442,0.13735962,-0.58525085,0.29582846,-1.515625,2.36969
1570726720,-0.91270447,7.4774017,8.583405,-1.6899567,-1.9942322,-1.2063141,0.29582846,-1.515625,2.36969
1570726720,-0.91270447,7.4774017,8.583405,-2.5485535,-3.309845,-3.1248474,0.29582846,-1.515625,2.36969
1570726720,-0.91270447,7.4774017,8.583405,-2.6167297,-2.8464508,-4.31369,0.29582846,-1.515625,2.36969
1570726720,0.96673584,5.1526337,8.588196,-1.8572083,-3.184143,-6.5187836,2.3467815,-6.2117596,1.9812536
1570726720,2.2356567,-0.52401733,10.577774,-3.399704,-3.0541687,-6.936371,2.0079567,-5.2847486,2.9714527
1570726720,3.035324,-0.55274963,10.850708,-3.4124908,-2.993454,-6.9949493,5.25347,-5.5239344,1.6224613
1570726720,0.2233429,-0.92025757,11.401382,-3.3741455,-2.820877,-7.0311737,4.7763195,-5.4889903,1.7031326
1570726720,0.2233429,-0.92025757,11.401382,-3.3741455,-2.820877,-7.0311737,4.7763195,-5.4889903,1.7031326
1570726720,-1.574707,-0.62457275,11.498352,-3.3166199,-2.6813354,-6.9672546,1.7038598,-5.3135095,1.9670525
1570726720,-1.574707,-0.62457275,11.498352,-3.3166199,-2.6813354,-6.9672546,1.7038598,-5.3135095,1.9670525
1570726720,-1.574707,-0.62457275,11.498352,-3.3166199,-2.6813354,-6.9672546,1.7038598,-5.3135095,1.9670525
1570726720,-1.574707,-0.62457275,11.498352,-3.3166199,-2.6813354,-6.9672546,1.7038598,-5.3135095,1.9670525
1570726720,-1.574707,-0.62457275,11.498352,-3.3166199,-2.6813354,-6.9672546,1.7038598,-5.3135095,1.9670525
1570726720,-1.574707,-0.62457275,11.498352,-3.3166199,-2.6813354,-6.9672546,1.7038598,-5.3135095,1.9670525
1570726720,-2.8699646,-0.069122314,11.120056,-3.2356567,-2.5045013,-6.844757,1.7038598,-5.3135095,1.9670525
1570726720,-2.8699646,-0.069122314,11.120056,-3.2356567,-2.5045013,-6.844757,1.7038598,-5.3135095,1.9670525
1570726720,-2.8699646,-0.069122314,11.120056,-3.2356567,-2.5045013,-6.844757,1.7038598,-5.3135095,1.9670525
1570726720,-2.8699646,-0.069122314,11.120056,-3.2356567,-2.5045013,-6.844757,1.7038598,-5.3135095,1.9670525
1570726720,-2.8699646,-0.069122314,11.120056,-3.2356567,-2.5045013,-6.844757,1.7038598,-5.3135095,1.9670525
1570726720,-2.8699646,-0.069122314,11.120056,-3.2356567,-2.5045013,-6.844757,1.7038598,-5.3135095,1.9670525
1570726720,2.247635,-0.66407776,8.784515,-2.4377747,-1.1611938,-5.8657684,5.197289,-3.442819,-0.5148096
1570726721,0.27720642,0.4647827,9.489609,-2.5027466,-2.8219452,-5.495056,2.8494563,-1.6575034,-0.73318005
1570726721,-0.10467529,0.68504333,8.837189,-1.681427,-3.3322144,-4.7515106,1.4775226,-0.48441482,-1.6183748
1570726721,-1.9146881,3.122345,8.399048,-0.02708435,-2.6355286,-3.8130035,-1.0323529,2.348302,-2.2561226
1570726721,-3.8001251,3.0253754,6.699173,-1.1690369,-2.529007,-2.97464,-4.1358075,3.6490426,-3.464095
1570726721,-0.748703,2.339447,8.422989,-1.6516113,1.1195374,-3.2686615,-1.084389,2.4990077,-2.1445885
1570726721,-1.818924,0.6168213,9.284912,-1.4023285,1.3783875,-2.7104645,-1.0411237,1.3049223,-1.4504185
1570726721,-2.3276825,-0.16011047,9.894226,-0.85798645,1.9024963,-2.2151184,-1.4203826,0.031834662,-1.2335978
1570726721,-3.4194336,1.0741119,10.066605,-0.16236877,1.1387024,-1.8710327,-1.951645,2.2151432,-0.4515543
1570726721,-3.1082,0.5342102,8.944931,0.10821533,0.57518005,-1.4992523,-1.5104038,1.7745616,-1.5097628
1570726721,-3.7462463,0.5952606,8.583405,0.09649658,0.28222656,-1.1147003,-2.062019,1.8068079,-1.768014
1570726721,-2.8448334,-0.078704834,8.260193,-0.15171814,0.0031280518,-0.8952484,-1.164059,1.2240844,-2.160656
1570726721,-2.79216,-0.43423462,8.432571,-0.3711548,-0.15133667,-0.8164215,-1.1217049,0.9711226,-1.8927078
1570726721,-2.5934448,-0.91548157,8.657623,-0.55970764,-0.007522583,-0.7141571,-0.9541644,0.7081065,-1.6994171
1570726721,-2.682022,-1.1692657,9.002396,-0.58847046,0.12882996,-0.6481018,-1.0261137,0.6095432,-1.307827
1570726721,-2.4749298,-1.4733276,9.565033,-0.35731506,-0.070373535,-0.55223083,-0.83120644,0.48544335,-0.7034502
1570726721,-2.211563,-1.5200043,9.723038,-0.1250763,-0.20458984,-0.443573,-0.7047019,0.4915917,-0.51918983
1570726721,-1.5435791,-1.783371,9.538696,-0.09951782,0.117111206,-0.40309143,-0.054088354,0.28692985,-0.73132324
1570726721,-1.863205,-1.565506,9.729034,-0.017486572,0.19488525,-0.36688232,-0.32916284,0.5865941,-0.47229862
1570726721,-1.7159729,-1.4493866,9.575806,0.138031,0.03616333,-0.37965393,-0.15900588,0.65054417,-0.65134716
1570726721,-1.7782135,-1.5355682,9.786484,0.23603821,-0.18222046,-0.38179016,-0.19615555,0.6152458,-0.45610332
1570726721,-2.1181946,-1.5188141,8.355957,0.12098694,-0.046936035,-0.267807,-0.6761328,0.47592592,-1.8657694
1570726721,-2.0727081,-1.4050903,8.632492,-0.23480225,0.10752869,-0.05369568,-0.6224766,0.63152575,-1.6321096
1570726721,-2.4414062,-0.84843445,9.313629,-0.39033508,0.14587402,0.23072815,-0.9788213,1.2468579,-0.89225864
1570726721,-3.3583832,-0.017654419,9.725433,-0.45318604,0.053207397,0.73246765,-1.736295,2.2323556,-0.42519855
1570726721,-4.0383453,0.093688965,9.209488,-0.34132385,0.04788208,1.4280853,-2.0871692,1.5218141,-0.23816013
1570726721,-3.9329987,-0.071517944,9.112518,-0.53308105,0.5879669,2.7404938,-1.935615,2.220953,-0.9876299
1570726721,-3.9665222,-0.60302734,9.781708,-0.66729736,0.4388275,3.9367828,-1.6262574,1.7624876,-0.41943932
1570726721,-5.070236,-1.5547333,10.288071,-0.18580627,-0.95880127,5.5187073,-2.413695,0.44714975,0.29578114
1570726721,-4.365158,-1.8563995,9.032318,0.66960144,-2.2381897,6.513672,-1.9890418,-0.3837229,-1.046257
1570726721,-2.5443573,-2.0778656,7.9297943,1.298111,-1.7662659,6.546692,-0.7203232,-1.3825259,-2.3772507
1570726721,-0.8815918,-2.0575104,8.409821,1.6485901,0.51553345,5.4398804,1.0940874,-2.065457,-2.0030184
1570726721,-3.7630157,-1.2602386,9.134064,0.46932983,2.0324554,4.178604,-1.2116706,-2.1719725,-1.1633692
1570726721,-2.862793,-0.026031494,10.149216,-0.29232788,0.8106079,3.9016418,-0.32908487,-1.2812018,-0.02931118
1570726722,-2.029602,0.509079,10.999161,-0.4883423,-1.1409607,2.9578094,0.7079823,-0.81439066,0.967762
1570726722,-3.7318878,0.89694214,9.644043,-0.6566467,-2.3745422,2.3559418,-1.7585927,-0.41496813,-0.4919033
1570726722,-1.5675201,2.2664185,9.359131,-0.6236267,-1.8344421,2.1609955,-0.49928594,1.1015157,-0.9961748
1570726722,6.713867E-4,1.9910889,9.92775,-0.23373413,-0.75001526,1.629425,0.72109056,1.0211133,-0.4023037
1570726722,-0.5056915,1.5505524,9.616501,0.1763916,0.8148651,0.8049164,0.32997108,0.4105314,-0.75089645
1570726722,-1.7339172,2.1083984,10.14682,0.40647888,1.210083,0.4895935,-0.52083254,0.8063401,-0.19986248
1570726722,-2.3540192,2.0353851,9.938522,0.2541504,0.48677063,0.50024414,-1.0381933,0.55643225,-0.3140335
1570726722,-1.274231,2.1311493,9.802048,-0.06755066,-0.07249451,0.6110382,0.07300794,0.75668144,-0.50618744
1570726722,-1.313736,2.1874084,9.822403,-0.15065002,-0.22695923,0.6014404,-0.028450847,0.84182596,-0.3968544
1570726722,-1.5723114,1.9408112,9.725433,-0.041992188,0.15440369,0.57588196,-0.33997357,0.59335065,-0.59368515
1570726722,-1.8320923,2.2664185,9.852325,0.24563599,0.5730438,0.55244446,-0.50105286,0.7387351,-0.39347458
1570726722,-1.8045502,2.1706543,9.881058,0.24668884,0.5027466,0.5854645,-0.4486295,0.7384974,-0.37338734
