time,ax,ay,az,gx,gy,gz,la_x,la_y,la_z,fox,foy,foz
1570726895,-0.4219818,1.0384827,9.946106,1.0006256,-1.4999847,1.8427124,-0.94958025,0.0044267178,-0.6459341
1570726895,-0.16938782,0.9528961,9.943115,1.0613403,-1.6363373,1.9044952,-0.8386037,0.047328413,-0.58391285
1570726895,1.5574341,1.1725616,9.638458,2.1511078,-3.909607,1.9588318,-0.28677416,-0.36435175,-0.1713438
1570726895,3.0975037,2.4564514,10.329178,3.318634,-4.658493,2.4211578,-0.7693496,0.05987239,0.9052639
1570726896,2.8395233,0.6613922,9.645645,4.1996155,-4.3484955,2.7023773,-2.2295055,-2.3900025,1.4476748
1570726896,3.4817657,1.019928,7.675812,4.608673,-3.815857,3.3969269,-3.0144563,-2.6060395,0.1475749
1570726896,5.483322,-0.30586243,4.9673767,4.829178,-3.0073242,3.7410126,-2.1194582,-3.8917482,-0.64824295
1570726896,6.533783,0.19752502,4.265274,4.0600586,-1.9015808,3.906128,-1.8664055,-3.3659794,-0.72660923
1570726896,10.292679,1.5717926,3.6846771,3.4699097,-0.7937012,3.7324982,1.0615396,-1.6506917,-0.5757823
1570726896,12.263702,3.0370483,4.035431,2.9873352,0.4814148,2.7481842,3.1370363,0.28337264,-0.27733564
1570726896,13.517059,3.949829,3.8792114,2.6539154,1.1940765,1.6083527,3.9471493,1.8179662,-2.611691
1570726896,12.876022,2.8377228,0.65301514,1.9945221,2.622589,-0.0854187,4.1589947,0.006072283,-2.7733092
1570726896,12.398376,2.2990265,-0.5237274,1.2072906,1.7224426,-0.93229675,4.1714907,-0.32286286,-5.2156982
1570726896,3.9354706,-1.8273773,-0.79966736,-0.1285553,1.4295044,-0.74801636,-3.7183704,-4.4135103,-7.2130294
1570726896,1.885437,-2.3708649,4.490921,-0.41830444,1.3847504,1.2472229,-7.7821608,-6.3891125,-1.3843808
1570726896,0.85054016,1.3581085,8.343201,0.57025146,1.4486694,1.6253967,-1.8705511,-0.8400252,5.127824
1570726896,11.817184,4.071945,4.1832733,3.8555298,-0.58810425,3.09227,3.2351913,1.4158318,-0.12724209
1570726896,11.874039,6.7372894,-0.16459656,5.62706,-0.15135193,-0.06944275,4.7154922,5.2627583,-4.5191755
1570726896,1.2395935,3.6062622,-4.313156,4.4755096,-1.9569702,-1.4500275,-6.5648594,-0.9781349,-8.752396
1570726896,3.4249115,5.883148,-4.7530823,3.8853607,-5.4297333,-1.1155243,-5.332444,1.0765872,-7.878956
1570726896,9.986816,9.92157,2.7904358,3.42836,-6.0486603,-1.9474945,1.2742672,4.5017047,1.5607188
1570726896,12.189484,10.313019,15.504257,6.977829,-1.6874695,-5.8367767,5.119089,6.7312365,17.47374
1570726896,4.8871613,5.1648865,-8.476074,3.4688416,-0.06506348,-4.4977417,0.13199282,-4.5482106,-4.8764353
1570726896,8.788513,9.233246,0.6476288,0.13989258,0.1799469,-1.8399048,0.7879696,1.2738056,3.107396
1570726896,13.032837,13.290207,3.119049,-0.21697998,0.7232361,-2.2990417,6.7607536,4.606541,5.2539363
1570726896,9.11113,10.95108,-6.5253906,-0.71125793,1.3773041,-3.2173004,4.6107306,2.926651,-2.2692397
1570726896,8.218094,7.3023224,-6.479309,-3.3009186,-0.43577576,-1.8462982,3.1401649,-1.0911541,-6.9015455
1570726896,9.914383,6.62117,-1.0642242,-3.263626,-0.09170532,-1.0398865,5.403292,-2.404189,-0.472669
1570726896,9.775528,6.685211,-0.8140259,-2.274002,1.456131,-0.77571106,6.001282,-2.5365534,-0.71016693
1570726896,8.189362,4.96019,-0.18196106,-1.6337738,1.8705139,0.6890259,3.6008658,-4.4420166,-0.71429724
1570726896,8.798691,9.512161,-4.5441895,-0.4960785,1.5679779,1.2909088,5.1658564,-0.46611404,-5.2887588
1570726896,6.4727173,10.730209,-4.2640686,-1.2321777,0.29179382,1.4922333,1.0640712,1.6454697,-4.8339095
1570726896,7.754822,9.964661,2.9861755,-2.4881134,-1.05896,1.3782501,1.8403063,1.6732635,-1.5369186
1570726896,8.504211,7.123947,2.9304962,-1.7711945,-0.80755615,0.5643921,2.8777604,-0.401536,0.0026283264
1570726896,7.3268585,0.5973511,1.6615753,-0.091278076,-1.6214142,1.5540314,0.45725775,-7.4542274,-0.944052
1570726896,7.3268585,0.5973511,1.6615753,-0.091278076,-1.6214142,1.5540314,0.45725775,-7.4542274,-0.944052
1570726896,6.146515,4.9428253,2.1625671,0.96014404,-1.5532379,0.93510437,-0.29476404,-2.8975182,0.031721354
1570726897,3.0885162,3.3542786,0.3657074,0.4285736,-1.2208862,0.6943512,-3.7994843,-3.7510839,-1.4733064
1570726897,6.569092,1.7022705,2.98378,-0.07102966,-1.0472412,1.8267365,-1.3766541,-4.5716195,1.6680549
1570726897,6.569092,1.7022705,2.98378,-0.07102966,-1.0472412,1.8267365,-1.3766541,-4.5716195,1.6680549
1570726897,8.623322,4.0964813,3.9719849,-0.31710815,-0.916214,2.3231506,0.5591173,-2.528893,2.4096456
1570726897,9.312851,4.633972,3.0430298,-0.5844879,-0.83631897,2.47229,1.0597162,-0.4193964,1.979204
1570726897,6.5912323,5.8945312,2.3846283,0.061065674,-0.6008911,1.5348511,-1.6350765,1.6786499,2.2510076
1570726897,5.92984,5.2486877,2.3074188,0.33483887,-0.86187744,1.3633423,-2.1665049,1.6546736,1.6043801
1570726897,9.510971,8.945938,3.14299,0.20593262,0.5517273,0.049865723,-0.05061531,4.616061,2.7144809
1570726897,9.049484,8.270172,2.2499542,0.20700073,0.69233704,-0.011917114,-0.05061531,4.616061,2.7144809
1570726897,11.994354,5.6545105,2.6030884,0.65335083,2.2550812,-1.20607,3.5269413,2.4866047,1.4943843
1570726897,13.588898,2.0446472,-1.359909,0.43496704,0.4633026,-2.9637604,4.89627,-3.1142144,-3.3739018
1570726897,14.013855,1.8130035,-1.3036499,0.530838,0.0020446777,-3.0969238,4.89627,-3.1142144,-3.3739018
1570726897,1.822586,0.6715698,-6.448181,-0.21591187,-5.1453094,-5.2721863,-3.4776893,-6.994226,-4.37617
1570726897,0.7445984,0.6566162,-6.8174896,-0.4545288,-5.2294617,-5.1773834,-3.4776893,-6.994226,-4.37617
1570726897,-9.838379,0.7451935,1.6112976,-2.5658875,-3.9511566,-2.0327148,-16.61959,-7.7696714,0.12021649
1570726897,9.715668,11.42453,1.5508423,-1.9959717,-3.7285156,-0.5733032,2.3071785,1.9621611,3.5535526
1570726897,2.355896,10.029907,6.5672913,-1.0255127,-0.9076843,-0.37409973,-1.8263683,1.6565628,8.050087
1570726897,4.3670197,7.783554,1.3928223,1.1572113,1.4284363,-0.17170715,-0.42247152,0.39004898,2.5763566
1570726897,3.7463226,3.643982,-4.013275,1.5407104,1.5264435,-0.62657166,-1.3225179,-4.584117,-2.321103
1570726897,6.0609283,5.6640778,-3.150177,0.18995667,0.2619629,-1.1496124,1.6924586,-3.0374126,-4.0454793
1570726897,4.751892,5.359421,-1.5652161,-0.124298096,0.29925537,-1.5735931,0.37007666,-3.0442915,-0.49382925
1570726897,8.185181,7.0784607,-3.351883,-0.075286865,-0.71487427,-3.4942627,4.267535,-1.7565289,-2.0464308
1570726897,6.4487762,5.1451416,-2.0620117,-0.49075317,-0.83099365,-5.013336,3.9845278,-3.8808737,-1.9399309
1570726897,4.4179077,2.6988678,-2.4672241,-1.1618652,0.6401367,-5.475662,3.2774491,-6.236249,-1.7153418
1570726897,-0.73501587,-1.6843262,-1.1498108,-1.4164581,-0.44110107,-5.348892,0.6670154,-10.585947,-0.996131
1570726897,-0.6147156,-1.5502472,1.3647003,-1.3035431,-1.8792114,-3.9246368,1.2240229,-10.717045,1.1205897
1570726897,1.3605042,1.7920532,1.7926636,-1.016983,-2.4256897,-3.5613708,2.8491125,-9.460892,1.1995522
1570726897,-17.136505,19.612701,18.611923,3.873642,-3.4440918,-1.6982269,-10.268417,10.758828,18.584974
1570726897,-8.079834,8.641876,-4.818924,0.83976746,2.6779938,0.37583923,-4.625884,-0.8721609,-5.256691
1570726897,-7.5094147,11.857285,1.371872,1.5929108,-0.38038635,-0.18554688,-3.815106,3.8763866,2.2912598
1570726897,-7.9086456,11.857285,1.371872,1.5929108,-0.38038635,-0.18554688,-3.815106,3.8763866,2.2912598
1570726897,-7.9786835,9.985611,2.8880005,1.789978,0.79992676,0.33642578,-4.908328,0.8917999,4.915861
1570726897,-6.8252716,8.582611,-2.0685883,0.75668335,1.7938232,0.07862854,-3.24692,0.2289114,1.1313438
1570726898,-4.482544,9.222458,-2.8155823,-0.1796875,1.1248322,0.091415405,-1.5670781,0.49916744,-0.83522487
1570726898,-2.245758,6.400894,-0.034118652,-0.09233093,0.59539795,0.2948761,1.3816328,-1.4670029,2.7371256
1570726898,-2.6934814,5.728134,-0.19332886,-0.07423401,0.56344604,0.26931763,0.87784576,-2.2143059,2.619767
1570726898,-3.7229767,4.244919,-1.945282,-0.23721313,-0.07785034,0.1105957,-0.9298289,-4.419552,0.62890935
1570726898,-3.7229767,4.244919,-1.945282,-0.23721313,-0.07785034,0.1105957,-0.9298289,-4.419552,0.62890935
1570726898,-2.896988,4.5669403,-0.2172699,-0.78157043,-0.26426697,-0.18022156,0.05250144,-4.2977247,1.9142754
1570726898,-1.9500732,4.6944275,-0.09815979,-0.97010803,-0.1492157,-0.26437378,0.69137216,-4.029459,2.0411377
1570726898,-3.1076813,5.205002,1.6579895,-1.0958099,-0.15667725,-0.5349579,0.9710851,-4.104165,2.707225
1570726898,-3.0460205,6.232712,-1.6352386,-1.1426849,-0.6648102,-0.27290344,0.12630606,-2.2958508,0.102632284
1570726898,-4.4244843,6.1560974,-0.86968994,-1.7360382,-0.7766571,-0.45932007,-0.10711026,-2.2258081,-0.091356516
1570726898,-3.1723175,4.596863,-2.4480743,-2.2835846,-0.021392822,-0.039611816,-0.98183084,-4.5721664,-1.20513
1570726898,-0.7757263,10.007767,-2.4366913,-0.50245667,-0.07891846,0.7145996,2.518822,1.1498909,-2.7255921
1570726898,-0.7757263,10.007767,-2.4366913,-0.50245667,-0.07891846,0.7145996,2.518822,1.1498909,-2.7255921
1570726898,-3.1477814,10.885239,0.77033997,0.096221924,-0.28131104,0.8147278,-0.16444826,2.2426205,0.9517205
1570726898,-4.770447,6.514023,-1.6376343,0.035491943,-0.029907227,0.6400299,-2.0432894,-1.9729958,-1.4001877
1570726898,-4.811142,8.372528,-1.8554993,-0.11151123,-0.5486908,0.85520935,-2.3468065,-1.4881611,-1.9715824
1570726898,-4.478348,14.057556,0.96665955,-0.33415222,-0.46774292,0.74975586,-2.1915991,4.302169,0.2023409
1570726898,-6.952759,15.424637,0.9457092,-0.46517944,0.6827545,0.30340576,-3.9409068,6.417486,1.6567656
1570726898,-4.269455,12.0578,4.4065247,0.057861328,-0.6371155,0.48342896,-2.6509097,1.4375124,0.88939726
1570726898,-3.6852722,12.47139,7.2388763,0.24641418,0.66996765,-0.1557312,-1.9244382,4.023237,6.5079875
1570726898,-1.7741089,10.187332,2.2415771,0.9910431,1.7171173,-0.30699158,0.26813865,0.5752001,2.520177
1570726898,-1.7741089,10.187332,2.2415771,0.9910431,1.7171173,-0.30699158,0.26813865,0.5752001,2.520177
1570726898,-1.1976929,10.974426,0.22146606,0.8610687,1.0460052,-0.2888794,1.0519378,1.9285936,1.0343022
1570726898,1.9853973,9.085999,-2.1853027,-0.67503357,-1.3252716,0.5366974,3.7632775,0.009397507,-1.7915058
1570726898,-0.08918762,6.1028137,1.6220703,-1.57518,-1.7140961,0.22351074,2.2709877,-3.167285,1.520968
1570726898,-0.08918762,6.1028137,1.6220703,-1.57518,-1.7140961,0.22351074,2.2709877,-3.167285,1.520968
1570726898,-6.0381775,8.222885,-5.993286,-3.1869354,-0.7478943,0.5867615,-3.6565423,-1.3685436,-6.9076595
1570726898,-6.0381775,8.222885,-5.993286,-3.1869354,-0.7478943,0.5867615,-3.6565423,-1.3685436,-6.9076595
1570726898,0.55126953,7.344208,-2.7694855,2.6112976,3.0550995,-0.082214355,2.8136106,-1.423706,-3.2308578
1570726898,0.55126953,7.344208,-2.7694855,2.6112976,3.0550995,-0.082214355,2.8136106,-1.423706,-3.2308578
1570726898,-1.0869751,5.4898987,1.8956146,1.4938354,-1.1218109,-0.5307007,1.4214499,-3.6588335,2.6009982
1570726898,-1.0869751,5.4898987,1.8956146,1.4938354,-1.1218109,-0.5307007,1.4214499,-3.6588335,2.6009982
1570726898,-3.585312,8.216309,-0.6069336,0.29222107,-1.0504303,-0.64894104,-1.2905152,-1.5946693,-1.1143911
1570726898,-2.1571808,9.067444,0.41360474,0.15800476,-1.1079559,-0.68089294,0.105611086,0.0570364,0.428012
1570726899,-0.1550293,7.4854736,2.011734,0.6427002,-0.13323975,-0.5903473,2.1511817,-1.5521536,1.7875949
1570726899,-1.8088226,8.301895,-1.9207458,-7.171631E-4,1.1226959,-0.38049316,1.3948486,-0.5979576,-1.5556773
1570726899,-2.7910461,9.005188,-1.3311768,0.20167542,0.57196045,-0.4412079,0.12546945,-0.2170887,-1.1974735
1570726899,-3.7852325,11.879425,-1.0791931,1.1316528,0.19911194,-0.50086975,-0.5762956,2.119195,0.3304574
1570726899,-3.9941254,15.996262,-4.455612,1.977478,1.20047,0.20753479,-1.0153089,6.703559,-2.942689
1570726899,-6.5786743,11.228806,-0.010772705,1.9732056,0.9788971,-0.03215027,-4.657071,2.8592787,2.6691263
1570726899,-6.197983,10.917557,-0.1885376,1.993454,0.8563843,-0.08328247,-4.657071,2.8592787,2.6691263
1570726899,-2.5187073,6.590637,-1.3706818,1.0613403,-0.09703064,-0.0619812,-0.64603376,-1.2639618,1.5057108
1570726899,-0.5793915,6.384735,-1.7621307,0.4243164,0.20550537,0.33216858,2.0676575,-2.0952358,1.6821146
1570726899,-1.7525482,3.5194702,-0.57580566,-0.6026001,-0.2387085,0.19049072,0.7984383,-4.665024,2.629088
1570726899,-1.7525482,3.5194702,-0.57580566,-0.6026001,-0.2387085,0.19049072,0.7984383,-4.665024,2.629088
1570726899,-1.7094574,3.352478,0.25976562,-1.3695831,-0.48371887,0.4312439,0.7939105,-5.1371126,2.9584846
1570726899,-1.5711975,3.1699219,0.8666992,-1.6944885,-0.68185425,0.17131042,0.91418123,-5.4874334,3.2180293
1570726899,-1.9686279,4.680069,1.0869751,-1.319519,-1.3678894,-0.53282166,1.0997725,-4.490409,2.5684142
1570726899,-1.9686279,4.680069,1.0869751,-1.319519,-1.3678894,-0.53282166,1.0997725,-4.490409,2.5684142
1570726899,-2.9394836,7.345413,-5.1804504,-1.3621368,-3.162857,0.7401581,-0.39318848,-1.3037872,-3.0058866
1570726899,-2.2679138,9.102158,-3.4667969,-1.9618835,-3.6049347,1.0458984,0.28293967,-0.5454855,-4.815654
1570726899,-1.0301056,6.4577637,-5.660492,-0.8167114,2.6769257,0.6996765,1.3599007,-2.806901,-5.9361305
1570726899,-1.2276306,6.5912323,-5.495285,-0.777298,2.442566,0.6719818,1.3599007,-2.806901,-5.9361305
1570726899,-7.754822,13.437454,1.2838898,0.23789978,-0.78411865,-0.096069336,-5.643078,4.4355736,1.173858
1570726899,-7.754822,13.437454,1.2838898,0.23789978,-0.78411865,-0.096069336,-5.643078,4.4355736,1.173858
1570726899,-1.5364838,8.830414,4.9188843,-0.012435913,-0.57533264,-0.29101562,-1.1718688,0.294384,3.309211
1570726899,-1.5364838,8.830414,4.9188843,-0.012435913,-0.57533264,-0.29101562,-1.1718688,0.294384,3.309211
1570726899,-0.5596466,7.4806824,4.7147827,1.3138123,-1.4616241,-0.54348755,2.2320411,0.88276577,0.5726107
1570726899,-0.5135498,7.068878,5.2839966,1.5119476,-1.5447235,-0.44654846,2.0531719,-1.1352596,4.298115
1570726899,-1.4975739,9.453506,3.4422607,1.803833,-1.0514984,-0.2420044,1.5696859,0.0020503998,4.1298203
1570726899,-2.90477,9.778519,2.0548248,-0.13920593,0.8521271,0.45787048,-0.29250336,0.7568245,2.763249
1570726899,-4.6854553,8.008606,-0.5913696,-2.2143402,0.89260864,0.3918152,-2.317371,-0.79830265,-0.57941425
1570726899,-4.394562,7.5243835,0.06225586,-2.558426,0.9341583,0.33963013,-2.2439668,-1.3215837,-0.22681071
1570726899,-1.7190399,6.606201,-2.446869,-2.7629547,0.5698242,0.37797546,-0.33811593,-2.5517693,-1.3960924
1570726899,-0.7110748,7.083252,2.8532867,0.1494751,-0.6392517,-0.6883545,1.5899775,-1.2147961,0.17739284
1570726899,-1.9991608,5.285797,2.897583,1.0347137,1.3517303,-1.0430908,0.7169337,-3.2437325,2.007378
1570726899,-1.4173737,6.3578033,-3.103485,0.8983612,2.6417694,-0.7086029,1.0465567,-2.8731651,-2.8125792
1570726900,-0.4590912,4.2383423,3.087326,0.9036865,-0.9705353,0.42803955,2.0814345,-5.014262,2.4271407
1570726900,-0.25138855,4.730942,3.1711273,0.9580078,-0.9428406,0.4621277,2.1868587,-4.7192297,2.7041724
1570726900,-0.8032532,8.186371,1.4634552,1.0048828,-0.05227661,0.11804199,2.2456627,-1.1666098,2.0332232
1570726900,-2.2284088,8.06308,-2.7677002,-0.18608093,0.048919678,-0.30699158,0.33929014,-0.5305662,-2.8148096
1570726900,-0.8427582,10.9522705,0.42077637,0.7076721,0.5879364,-0.2931366,2.0506916,1.9491558,0.8862898
1570726900,-1.1390381,13.047806,-3.1316223,1.3106232,-0.074661255,-0.04386902,1.7299654,3.9845743,-2.3849995
1570726900,-2.0697937,13.352463,-3.277069,1.6632233,-0.94711304,0.13296509,0.7908592,4.6916685,-3.1065457
1570726900,-7.507614,14.4783325,-1.7854767,2.1734772,0.07235718,0.38330078,-4.343894,5.2738895,-0.24885058
1570726900,-7.507614,14.4783325,-1.7854767,2.1734772,0.07235718,0.38330078,-4.343894,5.2738895,-0.24885058
1570726900,-6.783966,10.429138,-1.1641846,1.3042297,0.7818146,-0.04067993,-4.422378,2.4362612,1.1213248
1570726900,-5.725128,8.018784,-0.7523804,1.0357819,0.59007263,-0.14613342,-3.7661223,-0.31426907,1.4890113
1570726900,-3.47818,7.503433,-1.4257507,0.4381714,-0.18864441,-0.17915344,-0.79211044,-1.1057653,0.9741316
1570726900,-2.1805267,6.372772,1.5993195,-0.1988678,0.2534485,0.2874298,0.7155211,-2.0740795,2.8535054
1570726900,-1.8471222,5.9040985,0.16998291,-0.86572266,0.36636353,0.6304474,0.69285774,-2.8164778,2.2470405
1570726900,-2.0147247,4.6429596,0.8056488,-1.2183228,0.21829224,0.4355011,0.19473314,-3.9470243,3.0707116
1570726900,-1.8423309,3.6415863,0.2346344,-1.0840912,0.046783447,0.05519104,0.40005946,-4.9931946,2.2993793
1570726900,-0.4010315,3.3016052,0.06225586,-0.8294983,-1.4722748,-0.88009644,2.1693542,-5.42854,1.2539338
1570726900,-0.4447174,3.3327332,0.04069519,-0.7986145,-1.6043701,-0.9131317,2.1693542,-5.42854,1.2539338
1570726900,-1.7734985,7.803894,-2.743164,-0.5578613,-4.3932343,0.18196106,0.98816633,-1.6336536,-2.2097092
1570726900,-1.7734985,7.803894,-2.743164,-0.5578613,-4.3932343,0.18196106,0.98816633,-1.6336536,-2.2097092
1570726900,-1.7699127,7.4657135,-5.6981964,-0.8390808,2.3179321,0.5313721,0.81425476,-0.89550877,-4.787724
1570726900,-1.7699127,7.4657135,-5.6981964,-0.8390808,2.3179321,0.5313721,0.81425476,-0.89550877,-4.787724
1570726900,-5.613205,13.739731,0.98101807,-0.49926758,-0.3878479,1.1396332,-2.841137,3.5716133,-2.0206468
1570726900,-5.613205,13.739731,0.98101807,-0.49926758,-0.3878479,1.1396332,-2.841137,3.5716133,-2.0206468
1570726900,-14.878174,7.9643097,1.1330566,0.18249512,1.6382904,0.467453,-12.870585,1.0780058,2.1550446
1570726900,-8.635284,7.515991,-1.0055695,-0.13494873,1.2452087,0.77745056,-8.236919,-1.5759077,-0.6988901
1570726900,2.1942902,15.226517,-7.8930817,2.0999756,-1.7002411,-1.7408447,3.650114,5.9957247,-4.5332346
1570726900,2.1942902,15.226517,-7.8930817,2.0999756,-1.7002411,-1.7408447,3.650114,5.9957247,-4.5332346
1570726900,-1.7938538,9.433151,3.8355103,-0.32989502,1.3538666,0.3619995,1.4269845,0.94877434,4.638312
1570726900,-1.8656769,9.3984375,3.4578247,-0.41404724,1.5488129,0.4312439,1.4269845,0.94877434,4.638312
1570726900,-2.1260529,7.4094543,-1.7561493,-2.144043,0.9927368,0.5899658,0.5136659,-1.557025,-1.8687764
1570726900,-2.099121,7.4651184,-1.7555542,-2.1909027,0.8851471,0.5846405,0.5136659,-1.557025,-1.8687764
1570726900,-1.388031,7.143097,-1.9662323,-2.3123474,-0.32711792,0.55799866,0.91395354,-1.5309582,-2.400739
1570726901,-2.5438385,5.1301727,-0.5237274,0.8173981,1.3858185,-0.39328003,0.051043034,-3.7579298,-0.9859015
1570726901,-2.5438385,5.1301727,-0.5237274,0.8173981,1.3858185,-0.39328003,0.051043034,-3.7579298,-0.9859015
1570726901,-2.4157562,7.190384,-2.9185333,0.46905518,2.52565,-0.20791626,0.20302892,-1.6987734,-3.723928
1570726901,-1.5454559,6.2829895,1.9590607,0.78012085,1.4295044,-0.11418152,0.97947145,-2.6400537,1.8448408
1570726901,-1.4437103,6.384735,1.8716736,0.7918396,1.4018097,-0.14187622,0.97947145,-2.6400537,1.8448408
1570726901,0.60095215,8.921387,-0.93434143,0.49568176,-1.3114319,-0.4188385,3.30174,-0.14910603,-1.070518
1570726901,0.60095215,8.921387,-0.93434143,0.49568176,-1.3114319,-0.4188385,3.30174,-0.14910603,-1.070518
1570726901,-0.9115906,14.220963,-2.5719757,1.6568298,-0.88105774,-0.16638184,2.2254722,5.368536,-1.0976696
1570726901,-0.9115906,14.220963,-2.5719757,1.6568298,-0.88105774,-0.16638184,2.2254722,5.368536,-1.0976696
1570726901,-2.4001923,12.72818,-3.2285767,1.8943787,-1.9441986,-0.011917114,0.90447927,4.720628,-2.731295
1570726901,-8.796295,15.708359,-4.2862244,2.4866638,-0.5412445,0.20007324,-4.8485956,6.0518694,-1.9975829
1570726901,-10.461472,10.378265,-0.80384827,1.5801239,2.2124634,0.2948761,-8.548288,3.330162,2.0989459
1570726901,-3.557785,7.0892334,-0.7451935,0.110061646,0.8957977,-0.006591797,-1.511307,-0.9778156,2.1980696
1570726901,-3.557785,7.0892334,-0.7451935,0.110061646,0.8957977,-0.006591797,-1.511307,-0.9778156,2.1980696
1570726901,-1.0145416,6.3811493,0.16758728,-0.7602539,0.9426727,0.7657318,0.93198705,-1.9950743,2.6901934
1570726901,-0.13227844,2.4043732,1.2856903,-1.1022034,0.25558472,0.4429474,2.0200634,-5.899227,3.8099804
1570726901,-0.18675232,2.3110046,1.2826996,-1.1096649,0.22149658,0.40248108,1.8447636,-6.2181005,3.701557
1570726901,-0.5752106,1.7268219,1.1599884,-1.2279053,0.24491882,-0.70965576,1.3362834,-7.146532,2.7313695
1570726901,-0.5752106,1.7268219,1.1599884,-1.2279053,0.24491882,-0.70965576,1.3362834,-7.146532,2.7313695
1570726901,-3.5859222,7.336426,-1.8213959,0.10366821,-2.8145142,-0.42097473,-1.5965002,-1.5863838,1.0456098
1570726901,-3.5859222,7.336426,-1.8213959,0.10366821,-2.8145142,-0.42097473,-1.5965002,-1.5863838,1.0456098
1570726901,-4.787201,12.701843,-1.1522064,1.0826569,-5.6236115,0.1926117,-1.4944358,6.888528,5.319441
1570726901,-5.0134583,10.643417,-3.5015259,1.4011688,-4.913086,0.19367981,-1.4944358,6.888528,5.319441
1570726901,-9.284119,8.830414,2.6318207,-2.1642761,3.6931915,1.0618744,-5.7546043,-2.8506184,-0.055845127
1570726901,-9.650421,8.830414,2.6318207,-2.1642761,3.6931915,1.0618744,-5.7546043,-2.8506184,-0.055845127
1570726901,-5.27861,11.608292,2.0626068,0.9154053,0.56770325,-0.22496033,-4.3624525,4.89412,1.2574154
1570726901,-5.27861,11.608292,2.0626068,0.9154053,0.56770325,-0.22496033,-4.3624525,4.89412,1.2574154
1570726901,-0.077804565,14.065933,-5.333679,1.0581512,-0.8757324,-1.1197815,3.275648,5.94339,-3.9432752
1570726901,-0.5458832,13.435669,-4.912903,0.9707947,-1.1154175,-1.1144562,2.8429549,5.5570335,-4.445738
1570726901,-3.4745789,10.785873,0.46148682,0.25494385,-1.4168854,-0.54241943,-0.3006575,1.6966066,-0.32041675
1570726901,-1.2749176,11.6436,0.44172668,-0.24786377,0.7615814,0.112716675,1.7506149,3.0364847,2.49509
1570726901,-1.1821442,8.072052,-0.008972168,-1.0074005,-0.12579346,0.4131317,1.5623307,-0.34004593,1.1923496
1570726901,-1.1821442,8.072052,-0.008972168,-1.0074005,-0.12579346,0.4131317,1.5623307,-0.34004593,1.1923496
1570726902,-2.1715393,6.308716,0.2561798,-1.8425598,-0.9439087,0.5356293,0.062330008,-2.5493288,-0.7504642
1570726902,-2.1715393,6.308716,0.2561798,-1.8425598,-0.9439087,0.5356293,0.062330008,-2.5493288,-0.7504642
1570726902,-1.8465271,6.332657,0.4333496,-0.6292267,0.9405365,0.09674072,0.60109043,-2.589097,0.2246142
1570726902,-1.9776154,6.5325775,-2.1475983,0.14735413,0.75198364,-0.31977844,0.45353436,-2.246316,-3.7334719
1570726902,-1.9776154,6.5325775,-2.1475983,0.14735413,0.75198364,-0.31977844,0.45353436,-2.246316,-3.7334719
1570726902,-1.7316132,5.8729706,1.280304,0.6416321,0.5847473,-0.3410797,0.8169036,-2.7506866,1.2456626
1570726902,0.44592285,7.195175,-0.87867737,0.7396393,-0.2983551,-0.32829285,3.1350482,-1.3685541,-0.7998968
1570726902,0.46627808,7.1137695,-0.77153015,0.75668335,-0.3164673,-0.32936096,3.1350482,-1.3685541,-0.7998968
1570726902,0.26455688,9.464874,2.0937347,1.2285919,0.12135315,-0.43055725,3.498774,0.29077625,2.573223
1570726902,-2.466034,13.666107,-2.604889,1.1103516,-0.19502258,-0.12908936,0.79200196,4.607708,-1.0953251
1570726902,-3.024475,14.0156555,-3.2225952,0.6842346,-0.6190033,0.29701233,0.15021324,5.907112,-2.5164309
1570726902,-3.8827972,12.923904,-2.7688904,1.2040863,1.7341614,0.5707855,-1.1441219,4.400859,-1.1223209
1570726902,-7.5333557,16.321869,-2.980774,1.5545654,0.3280182,0.6176605,-5.2732596,7.7689333,-1.4495498
1570726902,-4.9619904,9.436752,-2.427719,0.706604,1.5211182,0.45040894,-3.952077,0.8663273,0.43340158
1570726902,-4.455017,7.707535,-2.54982,0.19741821,-0.29516602,0.04774475,-2.3889887,-0.69571495,-0.7123382
1570726902,-4.455017,7.707535,-2.54982,0.19741821,-0.29516602,0.04774475,-2.3889887,-0.69571495,-0.7123382
1570726902,-3.3860016,6.6127777,-0.02633667,-0.51737976,0.24491882,0.5825043,-1.2755003,-1.9065924,2.334442
1570726902,-1.8177948,3.439865,0.23223877,-0.8209839,-0.38996887,0.31192017,0.16275537,-4.985383,2.2530432
1570726902,-1.8177948,3.439865,0.23223877,-0.8209839,-0.38996887,0.31192017,0.16275537,-4.985383,2.2530432
1570726902,-2.5444336,2.7958221,0.4159851,-1.3152618,0.016952515,-0.22070312,-0.56425273,-6.075488,1.6239552
1570726902,-2.5444336,2.7958221,0.4159851,-1.3152618,0.016952515,-0.22070312,-0.56425273,-6.075488,1.6239552
1570726902,-2.1751251,3.12323,0.8535309,-1.5837097,0.57621765,-0.41671753,-0.08075619,-5.584937,1.9605273
1570726902,-0.9403229,8.865723,-5.4061127,-0.8625183,-0.6712036,-0.04067993,0.8675349,-0.011623383,-3.9629972
1570726902,-0.9403229,8.865723,-5.4061127,-0.8625183,-0.6712036,-0.04067993,0.8675349,-0.011623383,-3.9629972
1570726902,-0.2783203,8.8567505,-4.2838287,-1.6241913,-3.6145325,-0.23774719,1.9457214,0.122011185,-4.774235
1570726902,-1.830368,6.3338623,-10.037094,-0.8763733,2.9815826,0.63150024,1.062103,-1.9628305,-12.153769
1570726902,-1.830368,6.3338623,-10.037094,-0.8763733,2.9815826,0.63150024,1.062103,-1.9628305,-12.153769
1570726902,-5.616791,11.210251,2.0428467,-0.030548096,0.7839508,1.0426941,-2.8874054,1.2181463,1.0612488
1570726902,-3.8486786,9.081207,6.289566,1.1540222,2.828186,-0.035354614,-1.9814905,0.5221176,6.867674
1570726902,-3.8486786,9.081207,6.289566,1.1540222,2.828186,-0.035354614,-1.9814905,0.5221176,6.867674
1570726902,-2.8790283,13.266266,-0.93792725,0.47651672,-3.464325,-0.64575195,-0.5211458,4.355422,-2.0062184
1570726902,-2.8790283,13.266266,-0.93792725,0.47651672,-3.464325,-0.64575195,-0.5211458,4.355422,-2.0062184
1570726902,-1.8177948,12.384613,2.190689,-1.5400391,-3.241684,0.08502197,-0.5312159,3.6215792,-3.1173034
1570726902,0.011978149,10.855911,8.6388855,-0.53656006,0.51231384,0.25120544,2.4549801,3.366602,8.42123
1570726903,0.56204224,6.625946,0.46148682,-0.3330841,3.7443237,0.40353394,2.5498893,-2.088562,0.39382288
1570726903,0.56204224,6.625946,0.46148682,-0.3330841,3.7443237,0.40353394,2.5498893,-2.088562,0.39382288
1570726903,-1.593338,6.6361237,-1.5909424,-1.6284485,2.4862366,-0.09288025,0.48991764,-2.2313004,-1.7939317
1570726903,-1.593338,6.6361237,-1.5909424,-1.6284485,2.4862366,-0.09288025,0.48991764,-2.2313004,-1.7939317
1570726903,-0.72125244,5.8717804,-2.2331848,-1.8191376,-0.19929504,-0.33361816,1.220376,-3.3531685,-2.0987225
1570726903,-0.72125244,5.8717804,-2.2331848,-1.8191376,-0.19929504,-0.33361816,1.220376,-3.3531685,-2.0987225
1570726903,-0.10534668,9.0746155,-7.316681,-1.7999573,-3.274704,-0.3442688,1.8032823,0.12951851,-9.848236
1570726903,2.0655975,8.189362,4.28862,1.9071655,-1.2794647,-0.06944275,3.885205,-0.2738762,2.569889
1570726903,-1.8351593,6.3859406,2.0608063,2.1585693,0.8244324,-0.6894226,0.49419093,-2.2003613,1.2610887
1570726903,-0.5632324,6.0417633,-4.099472,1.0783844,-0.613678,-0.442276,1.9895711,-2.686473,-4.8628035
1570726903,-1.1270752,9.830597,1.2132568,0.6331024,-1.5170288,-0.13015747,0.7884073,-0.077269554,-0.29535252
1570726903,-2.3217773,14.709976,-1.051651,1.4512329,-2.3287506,0.13189697,1.7011096,6.512535,0.534991
1570726903,-7.507614,19.387054,3.3854065,1.0453644,2.379715,0.32791138,-4.515963,8.501368,3.96411
1570726903,-7.507614,19.387054,3.3854065,1.0453644,2.379715,0.32791138,-4.515963,8.501368,3.96411
1570726903,-13.324326,9.262573,-0.9217682,1.6919861,2.191162,0.023239136,-12.031742,1.6429434,-0.71572685
1570726903,-10.697296,7.711731,1.1911163,1.2935791,2.174118,0.1382904,-10.199047,-0.16217995,1.3661304
1570726903,-3.1202393,8.106171,-0.8457489,1.4182129,-0.74684143,-1.3126068,-0.10689497,-0.2931509,2.0171633
1570726903,-3.4895477,7.996628,-0.7302246,1.3606873,-0.83950806,-1.2987518,-0.10689497,-0.2931509,2.0171633
1570726903,-1.3605042,5.0751038,-0.31184387,-0.09339905,1.076889,-0.4412079,1.8868952,-2.8383799,2.1779213
1570726903,-1.3605042,5.0751038,-0.31184387,-0.09339905,1.076889,-0.4412079,1.8868952,-2.8383799,2.1779213
1570726903,-2.7647095,4.3197327,0.97024536,-0.84228516,0.04145813,-0.1088562,0.097901344,-4.285946,3.1282713
1570726903,-2.7647095,4.3197327,0.97024536,-0.84228516,0.04145813,-0.1088562,0.097901344,-4.285946,3.1282713
1570726903,-2.545044,6.9126587,-0.38008118,-1.7339172,1.2686462,-0.25479126,0.24686766,-1.978837,1.2749861
1570726903,-2.545044,6.9126587,-0.38008118,-1.7339172,1.2686462,-0.25479126,0.24686766,-1.978837,1.2749861
1570726903,-2.6707306,9.657013,-1.4604645,-1.7424316,2.2391052,-0.20046997,0.2324245,0.6299515,0.11442268
1570726903,-4.194046,10.401016,-8.664612,-1.0297699,1.4848938,0.37371826,-1.6332867,2.2156677,-7.6820374
1570726903,-2.4881744,7.582443,-4.562744,-2.1408386,3.1829224,0.48875427,-0.5885446,-1.1876364,-4.2830186
1570726903,-2.003952,7.7428436,-4.0467987,-2.1014252,3.2010345,0.39927673,0.19827676,-1.0965567,-3.543396
1570726903,-1.3766632,9.906601,-0.8056488,-1.140564,1.3410797,-0.21005249,0.91935325,0.7892046,-1.0084174
1570726903,-4.9326477,15.694595,0.042495728,-0.59513855,0.31204224,-0.80233765,-0.96944904,6.5024548,0.3138565
1570726903,-3.5482025,5.372589,2.5390472,-0.9743805,0.51657104,0.24694824,-1.5013163,-2.442956,2.6398978
1570726903,-3.5482025,5.372589,2.5390472,-0.9743805,0.51657104,0.24694824,-1.5013163,-2.442956,2.6398978
1570726904,-1.546051,5.4408264,5.0900726,-0.5344238,2.6950378,0.4163208,0.7091956,-3.6206713,4.709728
1570726904,-1.2898712,6.0465546,4.9589844,-0.36291504,2.9134064,0.27357483,0.9514117,-3.2476168,4.7708035
1570726904,-4.513672,10.792465,1.6424255,-1.0436249,0.32269287,-0.103530884,-1.7115169,2.4994106,0.6209937
1570726904,-4.513672,10.792465,1.6424255,-1.0436249,0.32269287,-0.103530884,-1.7115169,2.4994106,0.6209937
1570726904,-3.2477417,8.207916,4.139572,-1.2747803,-0.9779968,0.24481201,-1.1486676,0.24519444,3.1133778
1570726904,-2.7186127,7.4375916,5.4492035,-0.9221802,-0.262146,0.6687927,-0.44137096,-1.4038248,5.18044
1570726904,-0.054473877,9.235626,1.8339539,-1.1991425,3.1680145,0.657074,1.7930768,0.29434776,0.9889779
1570726904,-0.054473877,9.235626,1.8339539,-1.1991425,3.1680145,0.657074,1.7930768,0.29434776,0.9889779
1570726904,0.9929962,9.637253,0.3244171,-1.558136,4.008499,0.39927673,3.0492015,0.859354,-0.89273715
1570726904,1.7543488,8.890869,0.97683716,-0.51205444,3.3725433,0.80833435,3.6024232,0.14797688,-0.05132389
1570726904,1.7543488,8.890869,0.97683716,-0.51205444,3.3725433,0.80833435,3.6024232,0.14797688,-0.05132389
1570726904,0.97024536,9.147049,1.6633759,-0.8305664,2.3040771,0.5409546,2.8161755,0.28595924,0.053302884
1570726904,0.97024536,9.147049,1.6633759,-0.8305664,2.3040771,0.5409546,2.8161755,0.28595924,0.053302884
1570726904,-1.2425842,9.804855,0.9505005,-0.70700073,2.1645355,0.19049072,0.62942433,1.0547028,-0.49748087
1570726904,-1.3347626,9.752182,0.76374817,-0.7048645,2.126175,0.18621826,0.62942433,1.0547028,-0.49748087
1570726904,-0.35794067,8.9357605,0.44232178,-1.0127258,0.007369995,0.25653076,1.2207072,0.28275013,-1.2299627
1570726904,-0.35794067,8.9357605,0.44232178,-1.0127258,0.007369995,0.25653076,1.2207072,0.28275013,-1.2299627
1570726904,1.1186981,9.695923,1.1869202,-1.0915527,0.13093567,0.07118225,2.9298666,1.0397816,-2.2601678
1570726904,0.12269592,9.42717,4.0731354,-0.66438293,1.1887512,0.16812134,2.272214,0.9386196,0.81011367
1570726904,-0.44232178,15.201981,1.5514374,3.5295563,1.5168457,1.1854401,1.2292105,5.8689632,2.3956332
1570726904,-3.0921173,13.981537,-2.9125519,2.9777527,-0.25894165,0.6634674,-1.9937682,5.0431204,-4.6377945
1570726904,-2.190094,14.580688,2.25354,2.4802704,0.47183228,-1.2220612,-0.6363895,5.578265,2.0000534
1570726904,-17.05989,9.337982,7.2592163,2.3172913,2.3722534,-2.1499023,-6.0003395,3.6397886,5.937632
1570726904,-2.525879,5.9561768,1.9716187,1.9156799,4.803192,0.30021667,-3.112031,-2.980627,6.556479
1570726904,-0.6320648,8.520966,0.65301514,1.5577545,0.25024414,-0.9365692,0.2667656,-0.6963625,3.146455
1570726904,0.6476288,8.744217,4.451416,0.7162018,0.8244324,-0.17170715,2.2908478,0.006344795,6.6172853
1570726904,2.514511,9.382278,2.2541351,0.6938324,2.2635956,0.23097229,3.7675366,0.62290764,5.8211966
1570726904,-0.3651123,7.225708,-0.06463623,0.8642731,0.7871399,0.24906921,1.3385744,-1.2430134,3.0234005
1570726904,-2.0111237,5.834671,-0.1257019,0.66293335,-0.8704071,0.2682495,0.11603892,-2.0902414,2.9346437
1570726904,-2.0111237,5.834671,-0.1257019,0.66293335,-0.8704071,0.2682495,0.11603892,-2.0902414,2.9346437
1570726904,-4.1276093,4.944031,-2.0524292,0.06851196,-0.215271,0.18621826,-2.6736383,-3.3248243,1.6514521
1570726904,-0.8457489,4.6040497,-1.5508423,-0.9733124,1.0385437,-0.2622528,0.37623858,-3.7250814,1.2409406
1570726904,-0.7870941,4.5986633,-1.4915924,-0.9850311,1.0523987,-0.29208374,0.5108446,-3.765051,1.4415162
1570726905,-1.2671356,6.391327,-2.534256,-1.3461609,1.2132568,-0.70114136,0.26188135,-2.7247782,0.22955179
1570726905,-1.2671356,6.391327,-2.534256,-1.3461609,1.2132568,-0.70114136,0.22387636,-2.2591143,0.0910635
1570726905,1.0061646,16.649872,-7.7069397,-0.80926514,0.85105896,-0.20259094,2.0050464,6.5411415,-5.1887093
1570726905,1.5999298,16.531357,-7.1209564,-0.472641,0.0904541,0.11592102,2.680753,8.202743,-5.4019933
1570726905,-3.7768555,5.309738,-2.2331848,0.4786377,-1.1239471,-0.009780884,-1.4123192,-2.8479652,-0.36350727
1570726905,-4.277237,5.173874,-1.8106079,0.44136047,-0.996109,-0.011917114,-1.4123192,-2.8479652,-0.36350727
1570726905,-11.396393,11.72261,-0.8631134,-0.8859558,0.89260864,-1.1623993,-7.534507,2.9190245,0.11114383
1570726905,-15.209763,14.058151,-3.6942596,-0.7879486,0.7700958,-1.2295074,-12.532282,4.879242,0.16630673
1570726905,0.7487793,5.318115,7.474701,-0.91259766,0.8308258,-0.11204529,2.654362,-2.784954,8.311982
1570726905,0.66319275,4.8650208,8.295303,-0.8785095,0.99061584,-0.15466309,2.654362,-2.784954,8.311982
1570726905,-2.2110443,8.862732,2.3540955,-0.3480072,3.237259,-0.8161926,0.20709395,-0.1845808,4.709922
1570726905,-2.2110443,8.862732,2.3540955,-0.3480072,3.237259,-0.8161926,0.20709395,-0.1845808,4.709922
1570726905,-0.23223877,10.33696,1.6118927,-0.5248413,-1.4808044,-0.16743469,1.7863438,2.2438889,3.8800564
1570726905,-0.23223877,10.33696,1.6118927,-0.5248413,-1.4808044,-0.16743469,1.7863438,2.2438889,3.8800564
1570726905,-1.7501678,6.7965393,-1.7136536,-3.6364746,-0.10235596,0.034957886,1.7687578,-1.2668962,-2.6755273
1570726905,-1.7501678,6.7965393,-1.7136536,-3.6364746,-0.10235596,0.034957886,1.7687578,-1.2668962,-2.6755273
1570726905,-1.3694763,7.763794,5.676651,-2.6468353,4.17894,0.72206116,0.61073947,-1.025114,5.897895
1570726905,-1.0265198,9.931747,-5.9124756,-0.7091217,3.4066315,0.9979553,0.3231436,0.383173,-5.5457673
1570726905,-1.5089417,8.664017,-2.49057,-0.27983093,-0.07359314,0.21392822,0.26459908,0.10485268,-3.232099
1570726905,-1.2880859,8.428787,-2.1535797,-0.23828125,-0.08531189,0.18089294,0.2382747,-0.15851879,-2.8940878
1570726905,1.0025787,6.011841,-0.12031555,0.5766449,1.1013947,0.21392822,2.1185584,-2.209507,-0.84423506
1570726905,-0.80384827,5.2241516,1.3395538,1.6451111,0.83187866,0.6730499,1.2061635,-3.6983843,0.79147977
1570726905,-0.80384827,5.2241516,1.3395538,1.6451111,0.83187866,0.6730499,1.2061635,-3.6983843,0.79147977
1570726905,-1.2629395,6.159088,3.138794,1.4629517,1.0023346,0.20965576,-0.2046901,-3.1280985,3.8284793
1570726905,-8.167816,7.0233917,-0.046691895,1.0357819,1.2345581,-0.6670532,-2.9621859,-1.4701881,3.1442707
1570726905,-2.3020325,7.6195526,0.27952576,-0.5738373,-1.0664215,-0.7544098,-1.4022167,-1.1951237,2.082467
1570726905,-1.7752991,7.778763,-0.02154541,-0.5536041,-1.1676178,-0.75120544,-1.4022167,-1.1951237,2.082467
1570726905,4.083908,12.317566,-0.031723022,-0.058242798,-0.34309387,-0.5136566,5.4499245,2.7973986,0.12651527
1570726905,-0.059249878,15.531189,-3.3907928,1.3383179,0.84680176,-0.30485535,2.5597553,6.4432106,0.27526546
1570726905,-2.5282745,15.969925,-6.209961,1.5716095,-2.078415,0.054138184,-0.16398,7.436966,-4.6110573
1570726905,-6.4685364,11.991364,-2.1559753,2.344986,0.565567,-0.03640747,-4.2020526,2.8435984,-0.022320032
1570726905,-6.4685364,11.991364,-2.1559753,2.344986,0.565567,-0.03640747,-4.2020526,2.8435984,-0.022320032
1570726905,-7.2753754,11.992554,-1.193512,1.3042297,0.73921204,-0.37623596,-5.769845,4.615759,2.5187285
1570726905,-2.1056976,8.634689,-2.2942505,0.71406555,0.4633026,-0.21537781,-0.6858759,0.72364473,1.7453883
1570726906,-0.39144897,6.174652,-1.0181274,-0.34906006,0.8127136,0.42803955,0.98343456,-1.6182895,3.029348
1570726906,-0.39144897,6.174652,-1.0181274,-0.34906006,0.8127136,0.42803955,0.98343456,-1.6182895,3.029348
1570726906,-0.7440033,3.4326935,1.1755524,-0.8401489,0.37594604,0.28849792,0.88709164,-4.5376463,4.9766207
1570726906,-0.48303223,1.359909,0.6105194,-1.3525391,0.12561035,-0.047073364,0.9403268,-6.7485237,3.890901
1570726906,-0.4219818,1.3898315,0.596756,-1.34935,0.08087158,-0.06517029,0.9403268,-6.7485237,3.890901
1570726906,-0.8625183,2.5510254,0.84036255,-0.86465454,-1.3338013,-0.5775757,0.82596755,-6.0965405,3.366318
1570726906,-2.4636383,7.692566,-0.66259766,-0.5749054,-3.258728,0.2725067,-0.76634264,-1.375143,2.3075848
1570726906,-2.3936005,8.0074005,-1.1360474,-0.6207123,-3.3663177,0.33642578,-0.76634264,-1.375143,2.3075848
1570726906,-2.881424,10.222641,-5.6814423,-1.4068756,-4.354889,0.6112671,-0.4717331,1.7876377,-2.705718
1570726906,-3.854065,14.876968,-0.8319855,-0.4779663,-0.95669556,1.2653351,-3.0265257,7.8705664,7.1328835
1570726906,-2.3762512,5.716156,-10.234009,-0.11683655,2.220993,0.6805115,-0.016085267,-2.4447565,-9.715049
1570726906,-8.1887665,16.871933,8.229477,0.030166626,2.9240723,0.4131317,-7.5043087,8.060251,10.346664
1570726906,-8.081024,16.323074,7.5590973,0.08023071,3.0987701,0.32363892,-6.7842746,8.210042,9.493098
1570726906,0.26815796,19.413986,-7.5016327,1.2019653,0.881958,-0.7693176,-0.8756578,8.849574,-4.726198
1570726906,1.7148438,11.824966,4.016876,1.6504364,-1.0355225,-1.4084778,5.2570524,6.6604376,2.0377018
1570726906,-1.4407043,11.813583,-0.09277344,1.2467041,0.7040558,-0.95573425,0.88477755,3.019843,3.0914536
1570726906,-0.23582458,11.416153,-0.52194214,-1.1820984,0.8723602,0.27357483,1.7209227,2.794858,1.2061756
1570726906,-0.12748718,11.544846,-0.18196106,-1.2928925,0.84147644,0.29275513,1.7209227,2.794858,1.2061756
1570726906,-0.28909302,8.977066,-0.35673523,-1.5453644,-0.08956909,0.16279602,2.083985,1.0215645,2.0472329
1570726906,-1.7399902,4.9954987,-0.47644043,-2.7128906,-0.48158264,0.34707642,1.232086,-3.7321453,-1.6103898
1570726906,-1.7399902,4.9954987,-0.47644043,-2.7128906,-0.48158264,0.34707642,1.232086,-3.7321453,-1.6103898
1570726906,-0.8924408,6.4607544,-1.7256165,3.3569336E-4,2.8239288,0.1894226,0.6365559,-2.4907675,-0.5205015
1570726906,-0.20170593,7.5561066,-3.7451324,0.41152954,0.68807983,-0.12269592,1.2630565,-1.3525915,-3.746959
1570726906,0.5596466,6.558914,0.7559662,0.9303131,0.518692,0.082901,2.6432993,-2.0361576,1.0708225
1570726906,0.44352722,6.4846954,0.7086792,0.9782562,0.5282898,0.093551636,2.412583,-2.1414967,1.4533359
1570726906,-0.70628357,6.3823395,-0.023345947,0.76945496,-0.85443115,-0.05026245,1.1673138,-2.4299192,1.1204045
1570726906,-0.70628357,6.3823395,-0.023345947,0.76945496,-0.85443115,-0.05026245,1.1673138,-2.4299192,1.1204045
1570726906,-0.38905334,7.533951,0.34477234,0.1963501,-0.14602661,-0.25904846,1.3759856,-1.1622324,1.7640553
1570726906,-0.75956726,7.9900513,-0.16819763,0.24855042,0.39405823,-0.16638184,1.1255308,-0.7206316,1.1015215
1570726906,-1.0552368,11.660965,-1.7872772,1.1646729,-0.7947693,-0.026824951,0.9836433,2.5486298,-0.15730238
1570726906,-3.4422607,16.238678,-4.284424,2.647522,0.1607666,0.5409546,-1.0371298,7.543931,-2.2803197
1570726906,-3.4422607,16.238678,-4.284424,2.647522,0.1607666,0.5409546,-1.0371298,7.543931,-2.2803197
1570726906,-7.2640076,14.709976,-0.3076477,1.8400574,0.79141235,0.5654602,-5.8713503,6.8932533,2.368723
1570726906,-4.265869,10.00177,-2.7383728,1.311676,0.97143555,0.021102905,-3.8088193,2.3489609,1.2362561
1570726907,0.6218872,7.001251,-1.5424652,0.03656006,0.18313599,0.3151245,1.5701385,-0.86658,2.5257874
1570726907,0.6218872,7.001251,-1.5424652,0.03656006,0.18313599,0.3151245,1.5701385,-0.86658,2.5257874
1570726907,-0.59317017,4.680664,0.106536865,-0.57276917,0.09791565,0.31726074,0.6593442,-3.076233,3.8965147
1570726907,-1.5263062,2.3523102,0.42437744,-1.2034149,-0.34736633,0.08822632,-0.34574425,-5.866867,3.7832344
1570726907,-1.6346436,2.7677002,0.34477234,-1.1991425,-0.73405457,-0.6617279,-0.11610341,-5.6896772,3.1353395
1570726907,-1.6346436,2.7677002,0.34477234,-1.1991425,-0.73405457,-0.6617279,-0.11610341,-5.6896772,3.1353395
1570726907,-2.0865479,4.0306396,-0.8026581,-1.013794,-2.0666962,-1.1016846,0.013644099,-4.5531454,1.5874605
1570726907,-2.0865479,4.0306396,-0.8026581,-1.013794,-2.0666962,-1.1016846,0.013644099,-4.5531454,1.5874605
1570726907,-3.1172485,11.155777,2.1709442,-1.4633331,0.6625061,0.4386902,-0.14736915,3.0133753,3.1317575
1570726907,-3.1172485,11.155777,2.1709442,-1.4633331,0.6625061,0.4386902,-0.14736915,3.0133753,3.1317575
1570726907,-2.1721344,5.3426666,-7.993042,-0.22975159,2.1986237,0.561203,0.19397259,-2.4982796,-6.8473496
1570726907,-3.9713745,13.670898,-1.0408783,-0.049728394,-1.0973053,0.305542,-2.4016187,3.194869,-0.48684144
1570726907,-3.9713745,13.670898,-1.0408783,-0.049728394,-1.0973053,0.305542,-2.4016187,3.194869,-0.48684144
1570726907,-3.1136627,14.720154,9.614517,0.015258789,-0.12579346,0.27677917,-2.5756197,6.3558426,5.523956
1570726907,-8.464706,15.325882,-6.909668,-1.1874237,-1.0163422,-0.23242188,-7.1702423,7.9529667,-9.977364
1570726907,-7.8326263,14.435837,-2.9149475,-1.2279053,-1.4030457,-0.21644592,-7.1702423,7.9529667,-9.977364
1570726907,-3.0849304,12.9322815,-1.0726013,0.40620422,0.13093567,-0.7086029,-1.2439172,3.9544353,0.30850518
1570726907,-2.676117,13.257294,-0.7553711,0.18782043,0.18313599,-0.6116638,-1.2439172,3.9544353,0.30850518
1570726907,-0.31903076,8.128906,1.0666199,-1.3653259,-0.035232544,-0.002319336,2.1415176,-0.25679684,2.5389743
1570726907,-0.2962799,7.953537,0.81222534,-1.398346,-0.045898438,0.037094116,2.1415176,-0.25679684,2.5389743
1570726907,1.4155731,5.9238586,-1.1773529,-2.5413818,0.1288147,0.23097229,3.5998726,-2.5657787,-1.1058762
1570726907,1.4155731,5.9238586,-1.1773529,-2.5413818,0.1288147,0.23097229,3.5998726,-2.5657787,-1.1058762
1570726907,0.58717346,6.2051697,-4.3143463,-0.6356201,3.7602997,0.5462799,2.099845,-2.6760235,-4.394471
1570726907,0.58717346,6.2051697,-4.3143463,-0.6356201,3.7602997,0.5462799,2.099845,-2.6760235,-4.394471
1570726907,0.19992065,5.2361145,-0.6584015,1.0986328,-0.46028137,0.1105957,1.9310542,-3.5752497,-0.8009702
1570726907,0.19992065,5.2361145,-0.6584015,1.0986328,-0.46028137,0.1105957,1.9310542,-3.5752497,-0.8009702
1570726907,-1.3263855,5.9507904,0.35913086,0.91326904,-0.4666748,0.024307251,0.71794,-2.7650738,0.16245393
1570726907,-1.1198883,8.804077,-1.8387451,0.8173981,-0.10235596,-0.2622528,0.6873965,-0.11394882,-1.0373747
1570726907,-1.1198883,8.804077,-1.8387451,0.8173981,-0.10235596,-0.2622528,0.6873965,-0.11394882,-1.0373747
1570726907,-0.046081543,9.010574,1.2467804,0.63417053,-0.44110107,-0.41351318,1.2196224,0.41390896,1.4649241
1570726907,1.7806854,15.710754,-5.5832825,2.6752167,-0.15028381,0.65068054,4.364427,6.6653194,-3.5877407
1570726907,1.7806854,15.710754,-5.5832825,2.6752167,-0.15028381,0.65068054,4.364427,6.6653194,-3.5877407
1570726907,-4.720169,18.951904,-0.64404297,3.6435394,-1.5745392,0.44615173,-1.1682405,9.713484,-0.20621347
1570726908,-4.1892548,10.607513,-1.2749176,1.8965149,0.038269043,0.78489685,-3.2380009,2.7901506,2.4392514
1570726908,-4.1892548,10.607513,-1.2749176,1.8965149,0.038269043,0.78489685,-3.2380009,2.7901506,2.4392514
1570726908,-1.320404,8.279755,-1.8447266,-0.33628845,0.23214722,0.63150024,-0.042274952,0.590847,2.0127227
1570726908,-1.320404,8.279755,-1.8447266,-0.33628845,0.23214722,0.63150024,-0.042274952,0.590847,2.0127227
1570726908,-0.83917236,7.1024017,-0.74938965,-0.7836914,0.21083069,0.6858368,0.24461937,-0.89391804,2.8881545
1570726908,-1.075592,4.9404297,0.06942749,-1.4058075,0.02015686,0.62298584,-0.08841097,-2.7142105,3.424157
1570726908,-0.8271942,2.956833,0.18554688,-1.7189941,-0.117263794,0.18835449,0.09499717,-5.270973,3.2935832
1570726908,-1.098938,2.70784,0.58477783,-1.7243195,-0.7180786,-0.5456085,-0.062648,-5.7433834,2.8893487
1570726908,-1.0049591,4.086899,0.38905334,-1.3695831,-1.1942444,-1.0867615,0.16007459,-4.7929344,2.439271
1570726908,-0.9510956,4.683655,0.020950317,-1.2939606,-1.4200897,-1.1496124,0.36368644,-4.332837,2.0457828
1570726908,-2.2643127,9.004593,1.1216888,-1.4793091,-5.030258,0.35453796,0.4054985,0.09720993,0.79782176
1570726908,-2.2643127,9.004593,1.1216888,-1.4793091,-5.030258,0.35453796,0.4054985,0.09720993,0.79782176
1570726908,-4.2365417,7.9870605,2.5079193,-0.48754883,0.6625061,0.46852112,-2.32772,-0.1938057,4.430057
1570726908,-3.245346,7.2999268,-7.561493,-0.99142456,3.9168854,0.70181274,-1.5139191,-1.3258629,-6.5731115
1570726908,-3.9462433,11.916534,0.52671814,0.3028717,1.2100525,0.5931549,-2.960722,2.1594028,0.38103208
1570726908,-3.9462433,11.916534,0.52671814,0.3028717,1.2100525,0.5931549,-2.656097,2.7858763,0.7510016
1570726908,-1.7519531,11.827362,6.9461823,0.9953003,1.8012695,-0.30699158,-1.1211767,3.6704922,6.774978
1570726908,-1.6819305,16.186005,2.858078,2.0072937,0.57089233,-0.89501953,0.24282074,6.5819845,4.4658217
1570726908,-1.8190002,16.648087,2.3516998,2.0381927,0.4164276,-0.90885925,0.24282074,6.5819845,4.4658217
1570726908,1.742981,9.815033,-3.4039612,-0.8263092,-4.6851196,-0.8619995,2.7631416,2.3838139,-5.495979
1570726908,0.8738861,9.107544,8.948334,-0.25639343,-2.9359589,-0.27183533,3.8638542,0.3540535,8.0443945
1570726908,-0.8026581,10.411789,4.577118,0.5809021,1.057724,0.43443298,1.5280762,1.0185928,7.1692276
1570726908,-2.1392212,9.7348175,-0.89842224,-0.79008484,2.5160675,0.6634674,0.5492562,1.4206038,0.5005713
1570726908,-0.952301,5.5922546,0.16400146,-2.0779877,1.3890228,0.5888977,0.3531443,-2.5606089,0.29263338
1570726908,-1.0307007,6.391922,-2.7814636,-1.3514862,1.0555878,0.1340332,0.36501336,-2.7592468,-3.3798935
1570726908,-0.91218567,6.472122,-2.387024,-1.1362915,1.1195068,0.07650757,0.36501336,-2.7592468,-3.3798935
1570726908,-0.4225769,8.000229,-2.0051422,0.80249023,0.05531311,-0.5860901,0.74837387,-0.9724331,-2.1623054
1570726908,-0.4225769,8.000229,-2.0051422,0.80249023,0.05531311,-0.5860901,0.74837387,-0.9724331,-2.1623054
1570726908,0.7745209,5.7742157,0.5117645,0.8994293,-0.28131104,-0.20365906,3.0329535,-2.8512259,1.3611735
1570726908,0.59794617,5.843048,0.40283203,0.8887787,-0.18969727,-0.17277527,3.0329535,-2.8512259,1.3611735
1570726908,0.44352722,6.66127,0.36990356,0.7225952,0.20870972,-0.0044555664,2.27106,-2.1398077,1.0039771
1570726908,-2.090744,13.469177,-0.9002228,1.2935791,0.1288147,0.017913818,0.050279617,2.4705133,0.04425788
1570726908,-1.6621704,15.304337,-1.0462646,2.6208954,-1.4829407,0.31726074,0.10853696,7.1546535,-0.50573635
1570726908,-1.7112579,15.304337,-1.0462646,2.6208954,-1.4829407,0.31726074,0.10853696,7.1546535,-0.50573635
1570726909,-4.996704,13.244125,1.1073151,2.6059723,-0.12046814,0.2906189,-2.9393005,4.6486883,3.804883
1570726909,-3.7864227,9.379883,-2.1380157,-0.0060577393,1.0385437,0.59954834,-2.9048111,1.3302107,0.9641633
1570726909,-3.7864227,9.379883,-2.1380157,-0.0060577393,1.0385437,0.59954834,-2.9048111,1.3302107,0.9641633
1570726909,-1.9117737,6.992264,-0.6177063,-0.98609924,0.17462158,0.4631958,-0.8953842,-1.4014769,1.9956324
1570726909,-1.8644867,4.9877167,1.3581085,-1.3994141,0.5890045,0.2906189,-0.73959816,-3.322856,3.7150128
1570726909,-1.9207458,4.7614746,1.3712769,-1.3908997,0.57302856,0.26611328,-0.73959816,-3.322856,3.7150128
1570726909,-1.3174133,1.6268616,-0.2238617,-1.2779694,0.073410034,-0.5914154,-0.38968205,-7.0797863,1.4440386
1570726909,-1.2342072,1.7375946,-0.24958801,-1.2886353,0.045715332,-0.62550354,-0.38968205,-7.0797863,1.4440386
1570726909,-0.65600586,4.035431,-0.0047912598,-1.2758484,-0.6882477,-0.97598267,0.6171298,-5.1828594,1.2075329
1570726909,-0.07481384,11.690292,-1.9291229,-0.4630432,-4.5594177,-0.49554443,1.6108544,2.2541084,-1.8939426
1570726909,-0.07481384,11.690292,-1.9291229,-0.4630432,-4.5594177,-0.49554443,1.6108544,2.2541084,-1.8939426
1570726909,-1.0384827,5.7927704,-3.572754,-0.18714905,1.2579956,0.5825043,1.2908498,-1.8050823,-2.8761337
1570726909,-1.7758942,4.6932373,-3.454834,-0.41297913,1.582901,0.80088806,0.04107666,-3.783595,-2.9475253
1570726909,-3.767868,11.886612,1.2090759,-0.6217804,1.4923553,1.0299225,-2.7814908,1.807972,1.2921629
1570726909,-3.8013916,14.920059,1.9817963,-0.4822235,1.4380188,0.7657318,-2.587528,5.11675,2.0401263
1570726909,-5.304352,9.347565,0.21966553,0.15267944,0.027618408,-0.22816467,-4.5135064,1.3091993,0.6258529
1570726909,-0.018554688,13.256699,1.9231415,1.0581512,-0.25468445,-0.6595917,0.5759202,2.8907013,5.3421435
1570726909,-0.018554688,13.256699,1.9231415,1.0581512,-0.25468445,-0.6595917,0.5759202,2.8907013,5.3421435
1570726909,-1.1372528,13.342285,0.86849976,0.17823792,-2.6355438,-0.5083313,-1.7147676,6.190936,-2.2849693
1570726909,1.8345642,11.085159,1.8195953,0.65760803,0.29286194,0.2671814,2.803855,1.7748232,2.6134408
1570726909,2.111679,11.1073,1.7531586,0.55641174,0.40045166,0.2863617,3.3854704,2.1926394,2.5914187
1570726909,-0.48303223,6.9994507,0.8134308,-0.8859558,0.6209564,0.6134033,1.1487142,-1.6402521,1.5106685
1570726909,-0.43814087,6.7073517,0.89723206,-1.1959534,0.7924652,0.6378937,0.86686265,-2.0387163,1.543462
1570726909,-1.2270355,6.6229553,-2.498352,-2.0907745,0.4909973,0.27464294,-0.17731678,-2.2558851,-2.1055074
1570726909,-0.16879272,6.537964,-3.5212708,-2.4476318,0.16929626,0.15213013,0.73129654,-2.3133917,-3.6512365
1570726909,-2.9466705,6.0142365,-1.8722687,1.341507,1.3261719,-0.52430725,-1.0527301,-2.8276024,-1.4889164
1570726909,-3.0849304,6.0633087,-2.178131,1.2658691,1.2942047,-0.4923401,-1.5400604,-2.8112745,-1.922965
1570726909,-0.90740967,5.748474,0.5207367,0.5947571,-0.60835266,-0.3677063,0.6381955,-2.5848608,-0.3124516
1570726909,0.5817871,7.400482,0.34057617,0.8685303,-0.9812012,-0.39434814,1.7719874,-1.7736292,1.0695418
1570726909,0.70329285,7.557892,-0.032913208,0.8546753,-0.9694824,-0.4103241,2.0940661,-1.3710518,0.7993543
1570726909,0.7440033,8.2677765,-1.3760681,0.3252411,-0.519928,-0.44441223,2.269898,-0.40736866,-1.4938635
1570726909,-2.2804718,15.1540985,-4.865616,1.8187408,1.0214996,0.10420227,-0.3669927,6.0764513,-3.4177876
1570726909,-2.4253235,15.363586,-4.928467,1.836853,0.82229614,0.10206604,-0.3669927,6.0764513,-3.4177876
1570726910,-7.800308,16.967102,-3.462616,2.2043762,0.56877136,0.35453796,-5.67591,7.8379374,-1.6404755
1570726910,-7.800308,16.967102,-3.462616,2.2043762,0.56877136,0.35453796,-5.67591,7.8379374,-1.6404755
1570726910,-4.22995,9.567825,-2.7252045,0.5159302,1.3538666,-0.119506836,-3.7046518,1.928791,0.05516815
1570726910,-3.9749756,9.261368,-2.6892853,0.4434967,1.2270966,-0.11418152,-3.0850685,1.3646994,0.41400456
1570726910,-1.074997,5.8951263,-0.27592468,-0.8785095,1.4209747,0.31192017,0.13923007,-2.1516256,2.732013
1570726910,-1.0797882,5.724533,-0.29029846,-0.8859558,1.3709106,0.29808044,-0.07998639,-2.5025883,2.6820505
1570726910,-1.3844452,2.379242,0.9229584,-1.0947571,1.0396118,-0.020431519,-0.74936235,-5.9595804,3.6310298
1570726910,-0.7972717,1.0923615,-0.48721313,-1.3014069,0.6571808,-0.6617279,-0.13751423,-7.55398,1.7498224
1570726910,-0.7972717,1.0923615,-0.48721313,-1.3014069,0.6571808,-0.6617279,-0.13751423,-7.55398,1.7498224
1570726910,0.90200806,3.4374695,0.19392395,-1.0872955,-1.6246185,-1.0271149,2.2651253,-5.8467503,1.5529599
1570726910,0.41000366,11.703461,-4.896744,-1.396225,-4.67659,0.4397583,1.789673,1.2376328,-3.8588612
1570726910,0.41000366,12.494141,-3.8414917,-1.396225,-4.5871124,0.52072144,1.789673,1.2376328,-3.8588612
1570726910,-1.4951782,7.826645,-9.009384,-2.1994324,5.8141327,1.3399048,-0.6105056,-1.4043436,-6.995316
1570726910,-1.4969788,7.826645,-9.009384,-2.1994324,5.8141327,1.3399048,-0.6105056,-1.4043436,-6.995316
1570726910,-3.6002808,16.194382,-0.22744751,-0.042266846,0.8670349,0.24162292,-2.818845,6.9058123,-0.893538
1570726910,-3.6002808,16.194382,-0.22744751,-0.042266846,0.8670349,0.24162292,-2.818845,6.9058123,-0.893538
1570726910,-3.3249512,16.312897,4.447235,-0.023101807,1.3325653,-0.34960938,-4.255924,7.093032,1.6778786
1570726910,-3.2639008,16.312897,4.447235,-0.023101807,1.3325653,-0.34960938,-4.255924,7.093032,1.6778786
1570726910,-1.7914581,11.6358185,3.2824554,0.85362244,0.23001099,-0.39860535,-0.8549379,2.8392887,3.4206522
1570726910,-1.7914581,11.6358185,3.2824554,0.85362244,0.23001099,-0.39860535,-0.8549379,2.8392887,3.4206522
1570726910,6.0932465,11.083954,4.5166626,-1.4356384,-1.2272644,0.47491455,6.507387,2.6494913,1.9570005
1570726910,6.0932465,11.083954,4.5166626,-1.4356384,-1.2272644,0.47491455,6.507387,2.6494913,1.9570005
1570726910,-0.67277527,5.3354797,4.171295,-1.3589325,4.464432,0.4429474,0.21266109,-3.85015,3.5204644
1570726910,-0.67277527,5.3354797,4.171295,-1.3589325,4.464432,0.4429474,0.21266109,-3.85015,3.5204644
1570726910,0.76434326,10.196304,2.331955,-1.0766449,6.4042816,0.34495544,1.6566017,1.3455915,1.353682
1570726910,0.8637085,10.205887,2.2433624,-1.0446777,6.299881,0.30659485,1.6566017,1.3455915,1.353682
1570726910,1.4107819,10.162781,1.7758942,-0.3288269,4.4601746,0.044540405,2.486971,1.2446947,0.63653946
1570726910,2.466629,11.001358,1.2731171,0.31033325,2.8335114,-0.104599,3.653472,1.9983301,0.39567983
1570726910,2.25354,7.416046,-2.9616241,-2.4210052,-1.0461731,-0.4859619,4.1410007,-1.2676945,-5.298597
1570726910,2.25354,7.416046,-2.9616241,-2.4210052,-1.0461731,-0.4859619,4.1410007,-1.2676945,-5.298597
1570726910,2.8460999,8.862137,2.269699,-2.2473602,-1.8515167,-0.05026245,4.034877,-0.4369068,-0.61148584
1570726910,0.47045898,8.845383,4.7453003,-1.3291168,1.2281647,0.26611328,2.0196848,0.1976223,1.7526956
1570726910,-0.87986755,12.345703,5.2582703,0.08129883,2.2604065,0.7561493,0.59255445,2.3573647,3.001287
1570726911,-1.1881256,12.164932,-1.4891968,1.4427032,0.6571808,1.3132782,0.19623911,4.316512,-3.5680056
1570726911,-3.162735,10.888824,-0.7440033,1.3063507,0.97676086,0.78596497,-2.19788,2.0015507,-3.0247407
1570726911,-3.6577454,11.483795,0.71406555,4.3093414,-0.5731964,-1.4979553,-2.4595175,1.794776,0.22811326
1570726911,-3.6577454,11.483795,0.71406555,4.3093414,-0.5731964,-1.4979553,-2.4595175,1.794776,0.22811326
1570726911,-13.727753,8.00441,8.155853,0.7747803,5.0737762,0.81365967,-12.966909,-1.6458158,8.53614
1570726911,-10.853516,8.00441,8.155853,0.7747803,5.0737762,0.81365967,-9.575828,-0.79169846,9.441542
1570726911,-0.8840637,8.037338,-1.5861511,1.3830566,-0.7447052,-1.4660034,0.67423403,0.03528309,0.5208571
1570726911,-0.6201019,7.308304,0.10714722,0.7982178,-1.0994415,-1.1549377,1.0948281,-0.33526516,0.53347754
1570726911,1.663971,7.3597717,-2.6827087,1.1785278,2.2465515,-0.16317749,4.2826195,-0.84160423,0.64789486
1570726911,1.663971,7.3597717,-2.6827087,1.1785278,2.2465515,-0.16317749,4.2826195,-0.84160423,0.64789486
1570726911,-3.1968536,6.7546387,-2.7263947,0.15054321,0.77223206,-0.29740906,-1.3528942,-1.5617514,0.519413
1570726911,-3.1968536,6.7546387,-2.7263947,0.15054321,0.77223206,-0.29740906,-1.3528942,-1.5617514,0.519413
1570726911,-1.537674,6.1973877,-1.3353729,-0.71232605,0.19805908,0.056259155,0.32372928,-1.7803574,1.1181755
1570726911,-1.537674,6.1973877,-1.3353729,-0.71232605,0.19805908,0.056259155,0.32372928,-1.7803574,1.1181755
1570726911,-2.1092987,5.5162354,-1.7280121,-1.335495,0.79141235,-0.3645172,-0.2867725,-2.8050337,0.5928557
1570726911,-2.222412,5.5162354,-1.7280121,-1.335495,0.79141235,-0.3645172,-0.2867725,-2.8050337,0.5928557
1570726911,-2.7826538,5.189438,-1.7136536,-1.3504181,0.98101807,-0.33894348,-0.9130169,-3.1734915,0.748271
1570726911,-2.000351,13.025055,-4.522644,-1.206604,1.8204498,0.21498108,-0.34130526,4.29058,-2.8381553
1570726911,-1.5682068,13.2764435,-4.471176,-1.1522827,1.8183136,0.21498108,-0.34130526,4.29058,-2.8381553
1570726911,-0.28970337,6.6349335,-2.2637177,-0.011383057,-0.3494873,0.20753479,1.5384032,-1.640811,-1.0861331
1570726911,-0.28970337,6.6349335,-2.2637177,-0.011383057,-0.3494873,0.20753479,1.5384032,-1.640811,-1.0861331
1570726911,-2.434311,9.051285,-2.810196,-0.9967499,1.041748,-0.40286255,-0.39899147,0.09709358,-0.4959333
1570726911,-5.885544,14.968552,-2.5647888,-2.2995605,1.1259003,-1.3221893,-3.73532,4.853513,-2.4387026
1570726911,-1.6938934,4.269455,4.985321,-0.14241028,0.66464233,0.056259155,0.8489163,-3.3655958,4.4553328
1570726911,-1.6938934,4.269455,4.985321,-0.14241028,0.66464233,0.056259155,0.8489163,-3.3655958,4.4553328
1570726911,-2.0841522,3.6876678,4.66391,0.4147339,1.645752,-0.21963501,-0.45125878,-5.7684345,5.5721173
1570726911,-2.151184,8.206131,2.5408478,-0.20526123,2.3264465,-0.6009979,-0.0048007965,-1.1206827,3.5057707
1570726911,-3.7050323,11.48439,2.7252045,-0.29580688,0.97569275,-0.3549347,-1.5804284,2.3712025,3.6218963
1570726911,0.46087646,8.388687,2.857483,-1.0904846,-2.2584534,0.09780884,2.0267344,0.17568588,2.6745336
1570726911,0.46087646,8.388687,2.857483,-1.0904846,-2.2584534,0.09780884,2.0267344,0.17568588,2.6745336
1570726911,-1.1629791,9.472656,-1.4341278,-1.4644012,1.3208466,0.57611084,0.60139,0.30814743,-0.7697565
1570726911,-1.1629791,9.472656,-1.4341278,-1.4644012,1.3208466,0.57611084,0.60139,0.30814743,-0.7697565
1570726911,-1.5502472,9.472656,3.8929749,-2.6191406,4.895874,0.77319336,0.23298502,0.75004196,2.6511695
1570726912,0.83018494,9.298477,-0.14125061,-0.9754486,4.4271545,1.0000916,2.1798368,0.21987724,-1.0102805
1570726912,0.83018494,9.298477,-0.14125061,-0.9754486,4.4271545,1.0000916,2.1798368,0.21987724,-1.0102805
1570726912,1.8764496,10.477631,-1.5706024,-0.8486786,3.1339264,0.5835724,3.2359757,1.6875429,-2.5660315
1570726912,0.9606781,9.76355,-2.0326843,-0.78157043,1.2462769,0.28103638,2.5685554,1.2292337,-3.3724196
1570726912,0.6183014,8.838196,-0.2340393,-0.5280304,-0.22805786,0.46105957,1.9825487,0.086211205,-1.9295923
1570726912,-0.9929962,8.364746,1.4191589,0.058929443,0.35357666,0.6144562,0.45073032,-0.120845795,-0.31968844
1570726912,-1.332367,5.885544,0.7577667,1.2861176,1.6564026,0.58143616,-0.48325843,-2.7924175,-0.06852937
1570726912,-1.332367,5.885544,0.7577667,1.2861176,1.6564026,0.58143616,-0.48325843,-2.7924175,-0.06852937
1570726912,-0.8996277,5.154114,-0.44651794,1.341507,1.3719788,0.060531616,0.04824257,-3.7952394,-0.6243928
1570726912,-2.9233246,5.309738,1.5706024,0.9537506,0.5229645,-1.1336365,-1.4166945,-3.2401466,1.2170519
1570726912,-2.9233246,5.309738,1.5706024,0.9537506,0.5229645,-1.1336365,-1.4166945,-3.2401466,1.2170519
1570726912,-0.2346344,7.1688385,0.61531067,0.18144226,1.0555878,-0.7139282,0.8767961,-1.480793,0.23431465
1570726912,-0.013168335,7.2514343,0.84814453,0.1686554,1.1195068,-0.69155884,1.3484273,-1.5339088,0.9098435
1570726912,2.7904358,8.942947,1.8800507,0.989975,1.5232391,-0.44334412,4.0685434,-0.24651623,3.1638794
1570726912,1.9524689,13.996506,-4.1371765,1.8421783,2.0974274,0.124435425,4.4312334,3.5072775,-1.0298274
1570726912,0.042495728,18.130096,-7.13472,2.8818817,-1.5095673,0.74443054,1.8499112,9.8408375,-5.7533164
1570726912,-4.8692017,14.632767,4.7961884,3.4837494,-1.9239502,0.47277832,-2.644218,7.1762,6.057495
1570726912,-5.0505676,14.049774,5.7053833,2.4110413,0.46437073,0.6528168,-3.4377148,6.112015,9.761578
1570726912,-3.8049927,10.116699,-1.4317322,-0.54507446,0.014831543,0.3140564,-2.697322,1.9046164,1.9517169
1570726912,-3.707428,10.186737,-1.3694763,-0.5141754,0.09791565,0.30659485,-2.697322,1.9046164,1.9517169
1570726912,-2.0937347,9.933548,0.099365234,-0.21697998,0.6720886,0.82751465,-1.6257467,2.0143747,3.373983
1570726912,-1.5891571,7.7925262,0.11552429,-0.08061218,0.3322754,0.7188568,-1.0168574,0.53006935,3.708076
1570726912,-1.6543884,2.6198578,-0.29388428,-0.3000641,-0.32392883,0.11378479,-0.9790924,-5.5379734,3.0338435
1570726912,-1.7112579,2.4331055,-0.6901245,-0.94241333,-0.039505005,-0.20153809,-1.2581115,-6.202875,2.4377766
1570726912,-1.074997,3.320755,0.13946533,-1.2683868,0.057434082,-0.35173035,-0.41434646,-5.3022585,2.7888389
1570726912,-0.9067993,3.6373901,1.6914978,-1.6667938,0.7743683,-1.1954193,0.1839763,-4.7958994,3.6503465
1570726912,-0.9067993,3.6373901,1.6914978,-1.6667938,0.7743683,-1.1954193,0.1839763,-4.7958994,3.6503465
1570726912,-0.6212921,8.868729,-5.245102,-0.49287415,-3.6156006,-0.38049316,0.44024408,0.4387827,-2.4985309
1570726912,-0.5051727,8.796295,-5.747284,-0.58981323,-3.877655,-0.35386658,1.0546591,0.3729353,-3.49702
1570726912,0.52493286,9.26915,-4.2089996,-2.8119507,-4.727722,0.044540405,2.5642083,0.35103703,-5.0360417
1570726912,3.8217468,9.129684,-2.8993835,-0.79008484,5.695877,1.264267,2.9759374,1.8666162,5.533493
1570726912,-2.834137,8.77356,3.5440216,0.5979614,-0.6658783,0.80088806,-0.9737067,-0.64594173,2.9226494
1570726912,-3.1417847,9.080612,3.8085785,0.6949005,-0.6712036,0.74868774,-1.5422859,-0.07077408,3.908785
1570726913,-7.0700836,16.80011,-5.581482,-0.82203674,-0.82566833,0.27145386,-7.274463,6.379057,-5.268489
1570726913,-7.0700836,16.80011,-5.581482,-0.82203674,-0.82566833,0.27145386,-7.274463,6.379057,-5.268489
1570726913,-2.2499542,9.120712,12.424713,0.63630676,0.087265015,0.040283203,-1.1853966,2.1889887,12.065025
1570726913,-1.7788849,12.31398,-9.650421,0.16226196,-1.1953125,-1.2561493,0.5761732,6.387618,-13.896802
1570726913,-1.7788849,12.31398,-9.650421,0.16226196,-1.1953125,-1.2561493,-0.27573013,4.0852623,-9.70447
1570726913,-0.3028717,10.945694,4.5244446,0.20806885,-0.8416443,-0.10246277,0.87801385,1.7764015,5.7257957
1570726913,0.084991455,11.142014,4.6076355,0.098342896,-0.52952576,0.017913818,1.393921,2.0752888,5.684538
1570726913,-1.3970184,7.221512,-0.92596436,-1.9725342,0.802063,1.0693359,0.22744393,-1.2975731,-0.37209743
1570726913,-1.3730774,6.902481,-0.54766846,-2.1216736,0.7775574,1.0874329,0.016492724,-1.868639,0.01208657
1570726913,-1.5628204,5.984314,-3.099289,-2.097168,0.7615814,0.6208496,0.19460887,-3.0740204,-0.2799462
1570726913,-1.5628204,5.984314,-3.099289,-2.097168,0.7615814,0.6208496,0.19460887,-3.0740204,-0.2799462
1570726913,-0.73083496,8.757385,-5.9029083,-1.0649261,-1.1186066,-0.1876831,-0.18376201,-0.28342724,-8.285228
1570726913,-0.16819763,5.486908,-1.0929565,1.2413788,1.8129883,-0.47103882,0.9019295,-3.517542,-1.7089655
1570726913,-0.16819763,5.486908,-1.0929565,1.2413788,1.8129883,-0.47103882,0.9019295,-3.517542,-1.7089655
1570726913,-0.37887573,6.7019653,1.0809784,1.1082153,0.18634033,-0.3922119,1.5633581,-2.499117,1.7735946
1570726913,-0.46746826,6.921036,1.0821838,1.1071472,0.124557495,-0.39753723,1.1738999,-2.1152992,1.8146756
1570726913,-0.5129547,10.476425,-1.9464874,0.12284851,-1.4328613,-0.54348755,0.530843,1.7249031,-0.6255185
1570726913,-0.5129547,10.476425,-1.9464874,0.12284851,-1.4328613,-0.54348755,0.530843,1.7249031,-0.6255185
1570726913,1.1659698,13.888763,-6.023819,2.315155,0.9330902,0.19155884,3.5656173,5.254196,-3.3785088
1570726913,0.7398071,13.842682,-6.5834503,2.3897247,0.8105774,0.22669983,3.5656173,5.254196,-3.3785088
1570726913,-7.1568604,17.026367,-0.08380127,2.8318176,0.030807495,0.43336487,-5.515978,10.780936,0.8219056
1570726913,-7.1568604,17.026367,-0.08380127,2.8318176,0.030807495,0.43336487,-5.515978,10.780936,0.8219056
1570726913,-3.8804016,6.728302,-1.8890228,0.9494934,-0.5231323,0.012588501,-2.5445266,-1.057559,2.2761462
1570726913,-3.6535492,6.637924,-2.040451,0.88131714,-0.66799927,0.02217102,-2.5445266,-1.057559,2.2761462
1570726913,-0.38127136,7.261612,-0.30944824,-0.7879486,0.46862793,0.40248108,1.1407512,-0.54258585,3.547036
1570726913,-0.38127136,7.261612,-0.30944824,-0.7879486,0.46862793,0.40248108,1.1407512,-0.54258585,3.547036
1570726913,-1.5813751,3.861847,0.45429993,-1.6135406,0.1053772,0.042419434,-0.24641454,-4.2270107,3.7721245
1570726913,-1.5813751,3.861847,0.45429993,-1.6135406,0.1053772,0.042419434,-0.24641454,-4.2270107,3.7721245
1570726913,-2.2810822,4.521454,0.6769562,-1.7339172,-0.83206177,-0.5775757,0.08628404,-4.754408,2.9956143
1570726913,-2.2810822,4.521454,0.6769562,-1.7339172,-0.83206177,-0.5775757,0.08628404,-4.754408,2.9956143
1570726913,-1.5813751,14.60643,6.8563995,-1.413269,-2.1700287,0.42910767,0.8543781,2.2669783,-2.2959852
1570726913,-1.5813751,14.60643,6.8563995,-1.413269,-2.1700287,0.42910767,0.8543781,2.2669783,-2.2959852
1570726913,-2.6898804,3.9935303,-3.9851532,-0.20526123,0.9884796,0.5121918,-1.240307,-4.154318,-3.4613698
1570726913,-2.5761566,3.8331146,-3.4733887,-0.23188782,0.86491394,0.52497864,-1.240307,-4.154318,-3.4613698
1570726914,-2.565979,8.65744,3.5200806,-0.25212097,0.07022095,0.17770386,-1.1565503,-0.75392723,4.585229
1570726914,-2.5947113,9.236832,3.1196442,-0.22335815,0.09365845,0.15640259,-1.1565503,-0.75392723,4.585229
1570726914,-5.0966644,16.732483,-1.2066803,-1.1096649,-1.1079559,-0.2899475,-3.835047,8.693946,-0.31546915
1570726914,-4.9033203,16.029175,-1.1994934,-1.1671906,-1.1825256,-0.2942047,-3.835047,8.693946,-0.31546915
1570726914,-1.8447266,19.612701,0.8774719,0.5020752,1.4476013,0.034957886,-0.21441281,9.966445,2.7668839
1570726914,-1.8447266,19.612701,0.8774719,0.5020752,1.4476013,0.034957886,-0.21441281,9.966445,2.7668839
1570726914,-0.93852234,7.9673004,3.4799652,1.2520294,-1.7236786,-0.26332092,1.1924968,-0.54766273,3.8861613
1570726914,-1.1396332,7.930191,3.6242218,1.311676,-1.7481842,-0.26971436,1.1924968,-0.54766273,3.8861613
1570726914,-1.992569,8.344986,1.6472168,-0.3799591,0.9543915,0.27571106,-0.42493296,-0.26564884,2.5659733
1570726914,-1.992569,8.344986,1.6472168,-0.3799591,0.9543915,0.27571106,-0.42493296,-0.26564884,2.5659733
1570726914,-0.43754578,5.8999176,1.0767975,-1.3972931,1.7149963,0.13615417,1.006374,-2.7647762,1.2508798
1570726914,-0.39204407,5.8173065,1.0959473,-1.3930206,1.6968842,0.12231445,1.006374,-2.7647762,1.2508798
1570726914,-0.86790466,6.2871704,-2.4373016,-1.1085968,1.0289612,-0.24520874,0.8820685,-3.3539486,0.20764762
1570726914,-0.86790466,6.2871704,-2.4373016,-1.1085968,1.0289612,-0.24520874,0.82810175,-2.9295034,-0.2535024
1570726914,-0.7487793,11.417343,-9.917984,-2.1951752,-3.3929596,-0.17489624,-0.16356814,2.0992384,-17.075476
1570726914,-1.3928223,7.2472534,0.9714508,1.7271271,1.4848938,-0.28781128,-1.2770606,-2.1693707,1.6299237
1570726914,-0.9870148,7.3615723,0.7799072,1.6493683,1.3570557,-0.27609253,-1.2770606,-2.1693707,1.6299237
1570726914,0.8744812,7.1933746,-1.8016357,0.3529358,-1.2304688,-0.3314972,2.7865562,-2.0124683,-1.4130418
1570726914,0.8744812,7.1933746,-1.8016357,0.3529358,-1.2304688,-0.3314972,2.7865562,-2.0124683,-1.4130418
1570726914,1.3030396,14.826691,-3.8612518,1.7441711,-0.48051453,0.114852905,3.0582547,5.133008,-1.694669
1570726914,1.3030396,14.826691,-3.8612518,1.7441711,-0.48051453,0.114852905,3.0582547,5.133008,-1.694669
1570726914,-1.6071014,13.074142,-0.2962799,1.6728058,-1.664032,0.24588013,1.0161808,4.605201,1.2059233
1570726914,-6.395508,14.993683,1.0396881,1.470398,0.8670349,0.7689209,-4.156576,6.047305,2.7103405
1570726914,-6.395508,15.048157,0.94929504,1.3606873,1.1280365,0.75720215,-4.454034,6.4203234,3.2248158
1570726914,-3.7606964,7.994232,-1.8644867,0.45733643,0.41537476,-0.014038086,-2.5698895,-0.2363205,0.8983209
1570726914,-3.7606964,7.994232,-1.8644867,0.45733643,0.41537476,-0.014038086,-2.5698895,-0.2363205,0.8983209
1570726914,-0.6033325,5.4881134,1.8453369,-1.0319061,0.6060486,0.53030396,0.17233348,-3.022581,4.271453
1570726914,-0.55426025,5.37558,1.8160095,-1.0574646,0.65504456,0.5335083,0.52882266,-3.086275,4.345422
1570726914,-1.1725616,3.0807343,0.63087463,-1.1853027,-0.013931274,-0.05558777,-0.01970458,-5.418561,2.7585068
1570726914,-1.1725616,3.0807343,0.63087463,-1.1853027,-0.013931274,-0.05558777,-0.01970458,-5.418561,2.7585068
1570726914,-1.2449799,2.4444733,1.5011597,-1.1842346,0.030807495,-0.73309326,0.090846896,-6.468704,2.3564355
1570726914,-1.2449799,2.4444733,1.5011597,-1.1842346,0.030807495,-0.73309326,0.090846896,-6.468704,2.3564355
1570726914,-2.6647491,6.3625946,2.889801,-0.51631165,-0.5401764,-0.7299042,-1.0231597,-2.7023287,4.063744
1570726915,0.2567749,12.424713,4.450226,-0.8060608,-6.681427,-0.45187378,2.3247404,2.1637754,-9.844257
1570726915,0.2567749,12.424713,4.450226,-0.8060608,-6.681427,-0.45187378,2.3247404,2.1637754,-9.844257
1570726915,-2.6306305,6.218338,-6.6504974,0.9303131,-0.6424408,0.12550354,-0.46410275,-1.4318914,-6.205101
1570726915,-4.823715,6.158478,-3.174118,-1.1767731,3.2063599,0.97665405,-2.9108486,-2.930688,-4.067556
1570726915,-1.7651215,16.755219,3.541031,-0.6047363,2.7035522,1.2344513,-1.3848047,5.6988955,3.7807367
1570726915,-2.3576965,14.141357,6.284775,1.6600189,1.3229675,-0.36238098,-0.70452714,4.141899,7.78193
1570726915,-2.458252,15.052948,5.280411,1.674942,1.4838257,-0.41671753,-0.70452714,4.141899,7.78193
1570726915,-3.3099823,9.3984375,0.4734497,0.75561523,-1.3167572,-0.4923401,-0.86624825,2.52421,-2.1753504
1570726915,-4.8883667,12.145187,-1.1079102,0.46159363,0.94374084,-0.16105652,-3.0171337,3.3908892,1.1095885
1570726915,-4.8883667,12.145187,-1.1079102,0.46159363,0.94374084,-0.16105652,-3.0171337,3.3908892,1.1095885
1570726915,0.70329285,9.683945,2.3780365,-1.2438812,-0.25468445,0.38755798,2.313384,1.3820915,3.1317887
1570726915,0.5351105,7.7254944,1.4018097,-0.890213,-1.0056915,0.4823761,2.1216187,-0.5987339,2.7588
1570726915,1.8034363,5.8316803,-1.7717133,-1.8841095,-0.97480774,0.22244263,3.3366432,-2.897253,-1.1772293
1570726915,1.8034363,5.8316803,-1.7717133,-1.8841095,-0.97480774,0.22244263,3.3366432,-2.897253,-1.1772293
1570726915,0.18016052,7.0251923,4.7650604,-2.1578827,3.2670746,0.21179199,0.6299305,-1.9499979,2.9270592
1570726915,0.54467773,6.1890106,2.1595764,-0.9104614,4.382416,0.09887695,1.9428017,-1.9120893,3.3983586
1570726915,0.8271942,6.760025,1.7705078,0.9228668,-0.92900085,-0.31124878,2.1667764,-1.9383745,0.5078706
1570726915,0.6799469,6.399109,1.7705078,0.9622803,-0.92900085,-0.31124878,2.1667764,-1.9383745,0.5078706
1570726915,-2.0207062,8.190567,-0.35554504,0.7811737,-0.1918335,-0.41246033,-0.6446396,-0.87948227,-0.2858051
1570726915,-2.0207062,8.190567,-0.35554504,0.7726593,-0.18437195,-0.42097473,-0.6446396,-0.87948227,-0.2858051
1570726915,0.4590912,6.312912,-0.08558655,1.1849213,-0.48371887,-0.38475037,1.978486,-2.3015175,0.16260314
1570726915,0.9361267,7.637497,-0.40701294,1.4309845,-0.81288147,-0.36984253,2.748896,-1.752346,0.5475134
1570726915,1.8602905,13.846268,-0.63386536,1.3606873,-1.8429871,-0.16638184,3.3530056,4.587673,0.2849393
1570726915,-3.8007965,16.054916,-4.459793,1.7601624,1.3400116,1.1087494,-1.6732697,7.0588045,-2.0468516
1570726915,-4.09169,16.238068,-4.775238,1.8091583,1.3645172,1.1439056,-1.6732697,7.0588045,-2.0468516
1570726915,-6.4440002,17.086227,-3.9151154,1.4959717,1.5818329,1.0118103,-5.2255783,8.666127,-1.8092098
1570726915,-5.636551,12.950836,-1.608902,1.311676,1.6681213,0.2725067,-4.477395,5.9268007,0.6601038
1570726915,-3.3027954,7.1957703,-2.7509308,1.00914,-0.6988983,-0.16531372,-2.4541824,-0.9885483,0.14344049
1570726915,-1.1498108,6.3308716,-0.048477173,-0.2862091,-0.0064849854,0.3662567,0.15973032,-2.1114168,3.1852117
1570726915,-1.1498108,6.3308716,-0.048477173,-0.2862091,-0.0064849854,0.3662567,0.15973032,-2.1114168,3.1852117
1570726915,-1.5807648,5.194824,0.33937073,-1.0958099,0.21403503,0.47810364,-0.43138862,-2.9919987,2.8052511
1570726915,-0.9283447,2.8838196,1.3730774,-1.3291168,-0.4229889,-0.07476807,-0.011237919,-5.72676,3.4664142
1570726915,-0.9283447,2.8838196,1.3730774,-1.3291168,-0.4229889,-0.07476807,-0.011237919,-5.72676,3.4664142
1570726915,-0.93792725,3.4817657,1.7393951,-1.3173981,-0.037368774,-0.60739136,0.085113764,-5.487571,3.0743394
1570726916,-1.6591797,7.763199,-1.411377,-0.58555603,-2.271225,-0.52430725,-0.5129037,-0.69467926,0.46804
1570726916,-1.3395538,7.4896545,-2.4360962,-0.66438293,-2.9647217,-0.37197876,-0.28622758,-0.9585047,-0.5401776
1570726916,-1.3191986,6.496063,-2.356491,-1.5442963,-4.4571533,0.27996826,0.09968257,-2.025259,-1.7651216
1570726916,-2.2493591,7.3304443,-6.877945,-0.5184479,4.765915,1.2706604,-1.2022743,-0.8071041,-6.5470963
1570726916,-2.2493591,7.3304443,-6.877945,-0.5184479,4.765915,1.2706604,-1.2022743,-0.8071041,-6.5470963
1570726916,-4.537018,7.7422485,-3.4578247,-0.8529358,3.048706,0.736969,-2.8174374,-1.1031017,-4.0561066
1570726916,-3.5051117,13.257294,0.8924408,0.4786377,-0.6051636,-0.05239868,-2.4933994,4.0490665,-0.2311588
1570726916,-1.0372925,10.117889,6.281189,1.1263275,0.24919128,-0.5338898,-0.43712187,2.6905937,5.8325377
1570726916,-0.33099365,9.648041,5.9244537,1.3010254,0.47821045,-0.5338898,-0.21005005,1.4804735,6.3105817
1570726916,-0.6039429,14.855423,-2.5701752,0.112197876,-1.4861298,-0.65426636,1.3323034,7.185094,-4.5320854
1570726916,-0.6039429,14.855423,-2.5701752,0.112197876,-1.4861298,-0.65426636,1.3323034,7.185094,-4.5320854
1570726916,-0.32740784,12.060791,0.28431702,-0.38635254,1.2483978,0.3609314,0.90369713,3.2226639,1.7045076
1570726916,-0.32740784,12.060791,0.28431702,-0.38635254,1.2483978,0.3609314,0.90369713,3.2226639,1.7045076
1570726916,-0.7188568,7.4339905,1.0330963,-1.3259125,1.1163177,0.39395142,0.23606026,-1.2435427,1.3157467
1570726916,-0.7188568,7.4339905,1.0330963,-1.3259125,1.1163177,0.39395142,0.23606026,-1.2435427,1.3157467
1570726916,-1.1127014,4.918289,-4.0701447,-1.9394989,0.4909973,0.089279175,0.31616473,-3.8819208,-4.6479406
1570726916,-1.2635345,4.9152985,-4.201828,-1.9618835,0.42388916,0.07118225,-0.10708511,-3.9367867,-4.6479406
1570726916,-1.5251007,6.258438,-1.940506,1.1678772,2.1528168,-0.5317688,-0.23980224,-2.8735743,-1.9607646
1570726916,-1.4125824,6.3907166,-2.0620117,1.1146088,2.108078,-0.51472473,-0.38262308,-2.6011963,-2.5059757
1570726916,-0.034713745,6.131546,1.1653748,0.9516144,0.87449646,-0.49873352,1.1042397,-2.4111643,0.22609669
1570726916,0.375885,6.9545593,2.6904907,1.0336456,0.5506592,-0.50193787,1.7942218,-2.373685,2.4512281
1570726916,0.95648193,7.945755,-0.93014526,0.10154724,-0.6104889,-0.39860535,2.1714396,-0.7926245,-0.9536718
1570726916,1.8938141,8.253418,-0.4052124,-0.19993591,-0.48051453,-0.30059814,3.2214942,-0.5060072,-0.6707247
1570726916,1.0839691,13.859436,-4.9901123,0.98890686,0.12774658,0.032821655,3.4443495,5.127309,-3.2601542
1570726916,0.7404022,13.81694,-5.301361,0.98890686,0.12774658,0.032821655,2.8287277,5.1760445,-4.3533106
1570726916,-3.2662964,15.380951,-1.9099731,2.346054,-0.13644409,0.38755798,-1.0632734,6.13208,-1.44998
1570726916,-4.1365814,15.735886,-1.2030792,2.6049194,0.22149658,0.338562,-2.2601855,6.8086586,-0.28181815
1570726916,-6.774994,14.52742,-2.5210876,2.0019684,1.1141815,0.21179199,-5.4434533,6.0357704,-0.571007
1570726916,-3.3650513,9.894043,-0.20350647,1.3702698,0.37062073,0.032821655,-2.8013854,2.1523466,2.2049468
1570726916,0.044296265,6.217743,0.18435669,-0.22763062,0.19059753,0.5643921,1.059524,-2.0381813,2.5149705
1570726916,0.044296265,6.217743,0.18435669,-0.22763062,0.19059753,0.5643921,1.059524,-2.0381813,2.5149705
1570726916,-1.4125824,4.523239,1.1587982,-0.9029999,0.06808472,0.3428192,-0.17358828,-4.0064936,3.6309133
1570726916,-1.2084808,4.1485596,1.4245453,-1.1480103,0.09472656,0.2682495,-0.37721974,-4.3055677,3.6991763
1570726917,-1.4808197,3.3692474,-0.16520691,-1.7094116,0.3056488,-0.08753967,-0.55964434,-5.3395443,2.0506783
1570726917,-1.4215546,3.2046356,-0.26875305,-1.8489532,0.108566284,-0.15145874,-0.6322524,-5.455846,1.2935426
1570726917,-0.40821838,4.30896,0.9283447,-1.9938354,-0.47732544,-0.4934082,0.3885687,-4.688162,1.7610536
1570726917,-1.7357941,7.4148407,0.3244171,-1.3131256,-2.3085175,-0.6244354,-0.4805267,-0.9300823,1.4902326
1570726917,-4.584305,12.623428,-7.1371155,-2.050293,-4.010803,0.22244263,-2.2868156,2.7005482,-6.6583543
1570726917,-4.584305,12.623428,-7.1371155,-2.050293,-4.010803,0.22244263,-2.2868156,2.7005482,-6.6583543
1570726917,-5.2091827,5.965149,-2.4797974,-1.3014069,4.5720367,1.2110138,-3.9291587,-2.900632,-4.314156
1570726917,-5.3773804,6.1291504,-0.6655884,-1.1512146,4.5230255,1.3537598,-4.2858095,-2.7598057,-2.971332
1570726917,-2.9322968,11.368271,3.3578644,0.20806885,1.5445404,-1.9836426E-4,-2.6645746,2.6349745,1.5605285
1570726917,-2.9322968,11.368271,3.3578644,0.20806885,1.5445404,-1.9836426E-4,-2.6645746,2.6349745,1.5605285
1570726917,1.1827393,12.594696,-2.1889038,1.8315277,-1.363617,-1.2284393,1.6518357,1.8912449,0.2000382
1570726917,2.276886,16.047134,-4.3544617,0.5020752,-2.4896088,-1.2912903,4.171356,7.8268013,-7.491036
1570726917,1.7088623,13.640961,3.9707794,0.7023468,-0.93751526,-0.50619507,3.1275773,5.2292986,3.5945957
1570726917,-0.9325409,12.1302185,2.0841522,1.0624084,1.965332,0.12657166,-0.19274962,2.3652153,3.2941017
1570726917,-1.9003906,10.024521,-0.8720856,0.19741821,1.7671814,0.47065735,-0.39951372,1.7528477,-0.61503077
1570726917,-0.881073,7.1299286,2.0231018,-1.0052643,3.2479095,-0.06304932,0.22957367,-1.5796766,2.2359428
1570726917,-0.881073,7.1299286,2.0231018,-1.0052643,3.2479095,-0.06304932,0.22957367,-1.5796766,2.2359428
1570726917,-2.111679,7.5764465,-0.1149292,-0.9690552,2.3584137,-0.25372314,-1.3480301,-1.7404785,0.6245612
1570726917,3.9246979,7.712326,3.7535095,-0.44281006,-0.42726135,-0.5882263,4.2971444,-0.9152155,1.3568603
1570726917,3.9246979,7.712326,3.7535095,-0.44281006,-0.42726135,-0.5882263,4.2971444,-0.9152155,1.3568603
1570726917,1.663971,5.8167114,-3.28125,1.2914429,0.124557495,-0.8843689,3.4010768,-2.8160896,-2.6228836
1570726917,0.38905334,6.712738,-2.3128052,0.063186646,-1.4595032,-0.47743225,2.6054964,-2.276618,-3.594216
1570726917,-0.9971924,6.9557495,1.6741486,-0.027359009,-0.11407471,0.040283203,1.0050031,-1.7048845,1.1327229
1570726917,-0.9971924,6.9557495,1.6741486,-0.027359009,-0.11407471,0.040283203,1.0050031,-1.7048845,1.1327229
1570726917,-5.1212006,15.940002,-1.5287018,1.4373779,0.65504456,0.46426392,-3.2501414,6.766218,-2.8273442
1570726917,-5.1212006,15.940002,-1.5287018,1.4373779,0.65504456,0.46426392,-3.2501414,6.766218,-2.8273442
1570726917,-5.5126495,16.518799,1.3012543,2.5324707,0.52508545,0.561203,-4.2522573,7.6441183,1.6986003
1570726917,-7.7057343,13.530838,0.4112091,0.8323059,3.4982452,-0.38581848,-4.501132,6.9285088,1.9850477
1570726917,-9.99939,8.44136,-0.5680237,0.003540039,4.2194214,0.3918152,-9.680486,-0.05951786,1.298189
1570726917,-1.4957733,9.001007,-0.3896637,0.8216553,0.64120483,-0.75653076,0.35076785,0.31879997,1.8806454
1570726917,-1.4957733,9.001007,-0.3896637,0.8216553,0.64120483,-0.75653076,0.35076785,0.31879997,1.8806454
1570726917,-1.9752197,5.9549713,0.3429718,-0.44599915,1.3517303,0.19049072,-0.73366046,-2.5913792,2.2694683
1570726917,-1.9752197,5.9549713,0.3429718,-0.44599915,1.3517303,0.19049072,-0.73366046,-2.5913792,2.2694683
1570726918,-0.6398468,3.5003204,-1.4119873,0.006729126,-0.6957092,0.0317688,0.2737521,-5.1501875,0.4556967
1570726918,-0.6398468,3.5003204,-1.4119873,0.006729126,-0.6957092,0.0317688,0.2737521,-5.1501875,0.4556967
1570726918,-1.1534119,5.8639984,0.48721313,-1.1778412,0.5229645,-0.13761902,0.06856954,-3.4634457,1.1604023
1570726918,-1.1534119,5.8639984,0.48721313,-1.1778412,0.5229645,-0.13761902,0.06856954,-3.4634457,1.1604023
1570726918,-1.3742676,12.149384,-2.135025,-0.43641663,2.413803,0.05519104,-0.36496568,2.9850798,-0.70843637
1570726918,-1.3191986,12.17392,-2.561203,-0.39486694,2.4468231,0.103134155,-0.36496568,2.9850798,-0.70843637
1570726918,1.2593536,9.102158,-5.357025,-0.05079651,0.060638428,0.45999146,2.1549902,0.46677876,-5.084532
1570726918,-0.5518646,5.922058,1.1127014,-0.41297913,-0.14283752,0.13935852,0.40509772,-2.4943867,1.4669566
1570726918,-0.5518646,5.922058,1.1127014,-0.41297913,-0.14283752,0.13935852,0.40509772,-2.4943867,1.4669566
1570726918,-1.1168976,12.665924,0.11431885,-1.8841095,3.317154,-0.97065735,-0.00684613,1.8771496,0.5767941
1570726918,-10.69191,19.612701,-0.90919495,-1.3482819,2.5522919,-0.90141296,-9.286179,10.701198,2.553032
1570726918,-0.17477417,4.201233,5.4641724,0.13243103,-0.9076843,0.20965576,1.6690419,-3.478857,2.8504424
1570726918,-0.17477417,4.201233,5.4641724,0.13243103,-0.9076843,0.20965576,1.6690419,-3.478857,2.8504424
1570726918,-2.3696594,1.4502869,5.143936,0.833374,0.77542114,0.30233765,-1.2821273,-7.0163746,5.9450846
1570726918,-2.0338745,7.818268,3.0561981,-0.18821716,1.5381622,-0.39967346,-0.693166,-3.1177664,1.9414686
1570726918,-2.1565704,12.646774,0.2813263,0.1260376,0.21510315,-0.026824951,-1.5309604,4.836377,2.0769525
1570726918,-2.1565704,12.646774,0.2813263,0.1260376,0.21510315,-0.026824951,-1.5309604,4.836377,2.0769525
1570726918,-0.34954834,8.280945,2.4612427,-0.7378845,-2.4842834,0.5121918,0.57199633,-0.24914455,0.703611
1570726918,0.42077637,7.5213776,4.2718506,-0.5738373,-2.2829437,0.6123352,1.0832864,-1.2896748,4.4459667
1570726918,-1.1593933,6.851013,4.000717,-1.2417603,1.6105957,0.62831116,0.12835401,-2.0392962,3.1571288
1570726918,0.19572449,8.229477,4.2323456,-0.40126038,4.278015,1.2301788,0.77053183,-1.2989044,3.623219
1570726918,0.27772522,9.779114,2.482788,0.014190674,4.7637787,1.121521,0.7877117,0.44812965,2.2921147
1570726918,0.14425659,9.422974,0.893631,-0.2585144,5.151535,0.6485443,0.7358962,0.6726999,0.26070583
1570726918,0.38008118,9.2643585,2.2391815,-0.71125793,4.8383484,0.44828796,0.67232084,0.12618446,0.9477569
1570726918,0.38008118,9.2643585,2.2391815,-0.71125793,4.8383484,0.44828796,0.67232084,0.12618446,0.9477569
1570726918,1.2994537,9.252991,2.7359772,-0.06037903,4.0266113,0.32258606,1.6166008,0.4749298,1.675586
1570726918,1.1336517,8.738831,-0.70329285,-0.042266846,2.2167358,-0.30485535,1.890727,-0.040772438,-1.4534162
1570726918,1.1336517,8.738831,-0.70329285,-0.042266846,2.2167358,-0.30485535,1.890727,-0.040772438,-1.4534162
1570726918,1.0133514,8.811264,0.18554688,-0.5312195,0.26516724,-0.27183533,1.7597791,-0.09124088,-0.9962925
1570726918,2.443283,9.8138275,-1.2402039,-0.7229767,-1.187851,-0.14613342,3.15254,0.9660187,-2.3317647
1570726918,2.443283,9.8138275,-1.2402039,-0.7229767,-1.187851,-0.14613342,3.15254,0.9660187,-2.3317647
1570726918,1.8710632,11.391617,-0.31243896,-1.1320343,-1.5138245,-0.0342865,2.8797855,1.8630524,-2.3607886
1570726918,1.0468597,11.64061,3.8373108,-0.54081726,-0.1492157,0.95321655,2.097664,3.348899,1.2740948
1570726918,-2.355301,9.7348175,-0.9624634,2.6453857,3.9403229,1.3942413,-2.086894,0.7159691,-0.057480574
1570726919,-1.42276,13.3159485,-2.0105286,3.9641876,1.7906189,0.24269104,-1.7502414,3.8219366,-4.2858696
1570726919,-0.33998108,15.215149,-0.3214264,3.8821716,1.5573273,-0.522171,-0.35902143,5.633561,-0.6980518
1570726919,-2.5588074,15.538971,0.6973114,3.0075836,1.5243073,-2.1403046,-0.8222444,7.1426687,0.74709255
1570726919,-6.3230896,8.426392,1.5646057,1.4096832,3.5387268,0.78170776,-10.824164,-1.4817047,4.241814
1570726919,3.312378,9.998779,3.4560242,0.98464966,0.94799805,0.05519104,3.3891997,0.62131786,4.3957596
1570726919,3.348297,9.114731,0.058654785,1.9700165,-0.05973816,0.22244263,5.4677315,1.5478458,1.5002499
1570726919,3.348297,9.114731,0.058654785,1.9700165,-0.05973816,0.22244263,5.4677315,1.5478458,1.5002499
1570726919,0.4698639,5.0613403,-1.3748779,1.9124908,-0.707428,-0.030029297,0.57552,-2.7409058,2.0930479
1570726919,-0.383667,2.9795837,-1.2378082,1.3894501,-1.3817291,-0.59780884,-0.026353866,-5.1849194,2.0039232
1570726919,-2.3977966,3.4901428,-0.40701294,0.40834045,-0.7947693,-0.75653076,-1.506739,-4.8420277,3.3680322
1570726919,-3.6954498,4.277237,-1.0887604,-0.458786,-0.025650024,-0.70539856,-2.8949695,-4.0684566,2.582117
1570726919,-3.2860413,4.680664,-1.1970978,-0.824173,0.10430908,-0.7597351,-2.3900602,-3.4904518,2.2545645
1570726919,-2.8335419,5.0984497,-0.50038147,-1.4857025,0.60498047,-0.744812,-1.6881702,-3.0655785,2.5680902
1570726919,-1.4951782,10.568008,-4.2622833,-1.6923676,1.9887695,-0.027893066,-0.43315375,1.4052,-1.5297303
1570726919,-1.4951782,10.568008,-4.2622833,-1.6923676,1.9887695,-0.027893066,-0.43315375,1.4052,-1.5297303
1570726919,-1.6753387,13.4344635,-9.7043,-1.2588043,3.5973053,0.98197937,-2.0767608,4.11882,-6.456025
1570726919,12.931686,13.160324,-8.179184,-1.3014069,0.8446655,1.1183319,12.391778,5.103346,-7.498761
1570726919,3.0304565,8.357559,-0.93673706,-0.3842163,0.79992676,-0.3677063,3.5420756,-1.2894573,0.98432565
1570726919,-11.802216,16.572662,-3.4284973,-0.4065857,-0.082107544,-3.5091705,-6.2531543,8.667177,-2.79706
1570726919,-11.802216,16.572662,-3.4284973,-0.4065857,-0.082107544,-3.5091705,-6.2531543,8.667177,-2.79706
1570726919,-3.881607,3.7295685,3.198059,-0.18182373,0.4313507,0.75401306,-5.1315827,-4.608075,4.0770855
1570726919,-1.4407043,5.9424133,5.1882324,-0.16796875,3.7315369,-0.82896423,0.2905178,-3.8210058,6.860674
1570726919,-2.4803925,8.1732025,4.3496704,-0.034820557,3.891327,-0.90567017,-0.4918201,-1.1397972,6.089267
1570726919,-0.07841492,10.49678,0.19154358,0.38597107,0.60391235,-0.17810059,0.6322415,1.6015034,2.2145038
1570726919,2.482193,9.689926,1.7346039,-0.4811554,-4.959961,-0.76078796,4.5430827,1.0140562,2.5231724
1570726919,1.7160492,9.519348,-0.18675232,-2.942978,-0.93218994,0.13722229,4.325774,1.3337307,-0.41621554
1570726919,1.427536,9.2200775,0.46627808,-2.942978,-0.93218994,0.13722229,4.325774,1.3337307,-0.41621554
1570726919,0.49620056,10.1214905,-9.852737,-1.3759766,6.566208,1.6435089,1.6953003,1.190485,-7.943325
1570726919,0.49620056,10.1214905,-9.852737,-1.3759766,6.566208,1.6435089,1.6953003,1.190485,-7.943325
1570726919,-0.4806366,9.487625,0.462677,1.3351135,-1.2943878,-0.070495605,0.32779956,0.39201736,-0.6799093
1570726919,-0.4806366,9.487625,0.462677,1.3351135,-1.2943878,-0.070495605,0.32779956,0.39201736,-0.6799093
1570726919,1.6286621,5.6191864,0.40222168,1.1007538,-0.6158142,0.03388977,2.790461,-3.2641115,0.8283062
1570726919,1.6286621,5.6191864,0.40222168,1.1007538,-0.6158142,0.03388977,2.790461,-3.2641115,0.8283062
1570726920,0.5117645,4.609436,0.27293396,0.69595337,0.3929901,0.1425476,2.1052146,-3.904459,0.796534
1570726920,-1.8004456,7.6548615,1.8525085,0.7992859,1.5765076,0.5707855,-1.4923239,-2.0907297,2.238042
1570726920,-3.4266968,7.15567,-0.6763611,0.27198792,0.1053772,-0.39753723,-2.2740848,-1.1964912,0.24441075
1570726920,-3.4560242,7.0628967,-0.54289246,0.2506714,-0.009674072,-0.4060669,-2.2740848,-1.1964912,0.24441075
1570726920,-0.42796326,8.441956,1.5089417,-0.01777649,-0.71487427,-0.5211029,0.126768,-0.377079,2.6456804
1570726920,2.8532867,10.280701,0.59436035,-0.089141846,1.4603882,-0.16638184,4.093326,1.339221,2.2845201
1570726920,2.6473846,10.341751,-0.6488342,0.1026001,1.8034058,-0.093933105,4.0001917,1.6615324,1.1646506
1570726920,-1.4018097,13.1106415,-1.9967651,1.6728058,-1.7780151,0.14042664,0.035381317,3.7774134,-0.4314593
1570726920,-1.4844055,13.523056,-1.9153595,1.7590942,-1.7854767,0.15959167,0.035381317,3.7774134,-0.4314593
1570726920,-2.1242523,14.434036,-2.5013428,2.6240845,-1.4765472,0.40673828,-1.0442201,5.812767,-0.20924401
1570726920,-3.4518433,14.560944,-3.2621002,2.6688232,-1.5670929,0.47384644,-1.7088083,6.0916643,-1.2116737
1570726920,-5.419876,14.237122,0.9067993,2.1308746,0.6571808,0.40460205,-4.134979,6.159623,3.7669241
1570726920,-0.7050934,8.1414795,0.6829529,0.6416321,-0.43151855,0.13189697,0.16120386,0.1816225,4.248454
1570726920,-0.5793915,8.070847,0.6985016,0.61180115,-0.30155945,0.17451477,0.16120386,0.1816225,4.248454
1570726920,0.16101074,5.0661316,-0.049682617,-0.19247437,0.23640442,0.27145386,1.3224955,-2.481161,3.6844277
1570726920,-0.1550293,4.0013123,0.29148865,-0.49394226,0.36317444,0.30126953,0.83264166,-3.8917055,4.121501
1570726920,-0.6380615,3.2585144,0.9750366,-1.7062073,0.54000854,0.12124634,0.059856474,-5.112959,4.136841
1570726920,-0.6380615,3.2585144,0.9750366,-1.7062073,0.54000854,0.12124634,0.059856474,-5.112959,4.136841
1570726920,-1.5137329,3.4512482,1.1204834,-1.7232513,0.4345398,-0.37091064,-0.73806596,-4.987005,4.1548653
1570726920,-1.7549438,6.2865753,-1.9991608,-1.110733,-2.7250366,-0.52323914,-0.7565726,-2.2529612,0.47892475
1570726920,-1.7549438,6.2865753,-1.9991608,-1.110733,-2.7250366,-0.52323914,-0.7565726,-2.2529612,0.47892475
1570726920,-0.72184753,7.0706787,-6.3967133,-1.9352417,-4.9514313,0.025375366,0.63896763,-1.459609,-4.135243
1570726920,-2.5791473,15.157684,8.327026,-1.717926,-1.1303253,0.62405396,-0.85138965,4.296006,6.857084
1570726920,-2.952057,6.5224,-0.93792725,-0.31285095,0.060638428,0.5878296,-1.6044945,-2.399025,-1.3804309
1570726920,-2.952057,6.5224,-0.93792725,-0.31285095,0.060638428,0.5878296,-1.6044945,-2.399025,-1.3804309
1570726920,-3.4410706,12.325348,8.256409,1.1199341,0.64227295,-0.55200195,-1.6048877,5.9994154,8.901863
1570726920,-3.4410706,12.325348,8.256409,1.1199341,0.64227295,-0.55200195,-1.6048877,5.9994154,8.901863
1570726920,-1.7465668,8.127716,7.4896545,-0.40446472,-2.3894806,-0.7416229,0.18917918,2.4358444,0.48229313
1570726920,-2.1577759,5.012863,14.963165,0.4243164,-2.0475311,-0.45399475,-0.44381535,-1.422143,10.560534
1570726920,-1.328186,10.8810425,2.7467499,2.3843994,0.94374084,-0.442276,0.6274717,0.8048868,4.9606133
1570726920,-0.25737,9.874878,0.2962799,-1.7349701,0.83721924,0.38116455,0.88956594,2.1796465,1.2559114
1570726920,-0.25737,9.874878,0.2962799,-1.7349701,0.83721924,0.38116455,0.88956594,2.1796465,1.2559114
1570726920,2.5480347,4.938034,-1.948883,-2.1259308,-0.5412445,0.3651886,2.8453255,-3.7936287,-0.5934621
1570726920,2.928711,4.983536,-2.3271637,-2.1738586,-0.6147461,0.3151245,3.5029197,-3.8572035,-1.1601365
1570726921,-3.2992096,5.71257,0.17417908,-2.3251343,0.7509308,-0.22923279,-1.0545745,-3.6384068,-4.9594135
1570726921,1.3024445,6.8180847,-2.7988281,1.5556335,3.4545593,0.056259155,2.0702462,-2.3497744,-2.7692232
1570726921,1.4311371,7.6075745,-5.901703,1.4736023,2.2593384,-0.13973999,2.4982653,-1.8156128,-2.8345604
1570726921,-0.7481842,5.77063,1.7794952,0.8014221,-0.4155426,-0.50086975,0.39701438,-2.699376,2.108002
1570726921,0.5626373,6.028595,1.7699127,0.929245,0.14904785,-0.49661255,1.8433938,-2.6641932,3.3137076
1570726921,0.5087738,6.518814,-1.9273376,0.80249023,-0.726593,-0.39860535,1.8708222,-2.3311977,-0.22158253
1570726921,1.9321136,7.703949,-0.058059692,0.26985168,-1.5777435,-0.46891785,3.4322486,-1.0166178,0.25630617
1570726921,1.6334381,13.350662,-0.30885315,1.1465607,-0.9897156,-0.019363403,3.721519,4.094552,1.1791015
1570726921,1.0821838,14.975128,-1.735199,1.5289917,-0.5305939,0.5835724,2.882834,6.198432,-0.2795397
1570726921,-5.2271423,16.86296,-2.252945,2.6059723,-1.1761322,1.3601532,-3.5511937,8.877176,-2.9614844
1570726921,-7.6746063,17.525558,-0.059249878,1.866684,1.9557343,0.91593933,-5.678604,9.8145275,3.5536158
1570726921,-2.5318756,8.545502,-2.4283142,1.7441711,0.05104065,-0.37409973,-1.2280397,0.54643154,1.4504886
1570726921,-3.0137024,8.113953,-2.2517395,1.5620117,-0.3132782,-0.36026,-1.2280397,0.54643154,1.4504886
1570726921,-1.2796936,7.628525,-0.27893066,0.5169983,-0.49969482,0.09461975,-0.8499617,-0.42630005,3.0539792
1570726921,-0.52433777,4.632187,-0.056869507,-0.21484375,0.40898132,0.51646423,0.3057449,-3.2691288,3.9200835
1570726921,-0.7380066,3.3584595,0.4297638,-1.0233765,0.6582489,0.4663849,-0.122683406,-4.687565,3.5932882
1570726921,-0.5973511,2.0578156,1.0109558,-1.2918243,0.14797974,0.14468384,-0.24179888,-5.989195,4.0661764
1570726921,0.034118652,1.0917511,0.66677856,-1.2939606,-0.35588074,-0.18235779,0.34752983,-7.1327686,3.3448985
1570726921,1.4784241,3.4428558,-0.29388428,-0.8987427,-1.9250183,-0.95573425,2.0917678,-5.7161236,2.1066878
1570726921,0.49320984,10.7816925,-3.6858673,-1.6071472,-5.294449,0.2725067,1.2763407,2.025528,-1.7515066
1570726921,1.2288208,10.803238,-3.9528198,-1.7445679,-5.3573,0.3343048,2.123557,2.258482,-2.084897
1570726921,-2.6635437,5.391739,-4.8093567,-0.9317627,3.0071564,1.3462982,-1.5725874,-2.7610245,-3.389307
1570726921,-2.3894196,5.391739,-4.8093567,-0.9317627,3.0071564,1.3462982,-1.5725874,-2.7610245,-3.389307
1570726921,-2.7425537,19.437927,3.5158844,0.6224518,-1.3881226,-0.2856903,-3.0731921,8.391882,2.5824656
1570726921,-2.4917603,19.612701,4.0061035,0.64482117,-1.4371338,-0.46359253,-3.0731921,8.391882,2.5824656
1570726921,-11.422134,8.8489685,6.5134277,0.68637085,0.49420166,-0.30273438,-11.067322,0.87348366,8.205354
1570726921,-1.4173737,13.791199,1.9614563,0.28050232,2.1932983,0.044540405,-2.9900985,2.9150457,3.9715788
1570726921,1.0205231,11.953049,0.83618164,0.80888367,-1.743927,-0.54241943,2.2880476,4.250332,0.23218709
1570726921,1.2042847,11.991959,1.0744019,1.1742554,-2.6728363,-0.7128601,2.7586212,3.0204477,2.0929332
1570726921,-1.8177948,9.794678,2.3115997,-0.13388062,-1.2219391,-0.3357544,-0.12414682,1.1488552,3.175931
1570726921,-0.06643677,7.8128815,2.1086884,-1.0787659,1.6010132,0.6165924,1.3081094,-0.7223177,2.940799
1570726921,-0.06643677,7.8128815,2.1086884,-1.0787659,1.6010132,0.6165924,1.3081094,-0.7223177,2.940799
1570726922,-0.16041565,5.7424927,-4.154541,-2.081192,1.7693176,0.082901,1.713662,-2.9680834,-3.7247345
1570726922,-0.16041565,5.7424927,-4.154541,-2.081192,1.7693176,0.082901,1.713662,-2.9680834,-3.7247345
1570726922,0.23643494,5.458786,0.833786,-0.7421417,2.794098,0.05732727,1.3462839,-3.0244007,0.34936315
1570726922,0.26576233,5.424057,-0.888855,0.5755768,2.3520203,0.038146973,1.5061358,-3.4890642,-0.5662145
1570726922,1.5472565,7.578842,-1.8261719,0.896225,0.12774658,-0.45399475,3.1291018,-0.7307987,-2.602088
1570726922,2.0548248,5.564728,0.8134308,0.59262085,-1.5500488,-0.47424316,3.3452873,-3.3567924,0.77207226
1570726922,2.087143,5.902313,0.86790466,0.6288452,-1.650177,-0.47956848,3.5087113,-3.164689,0.8034074
1570726922,-0.19033813,6.391327,0.4225769,1.3308563,0.26623535,-0.22923279,1.7267511,-2.0194635,1.0186552
1570726922,-0.19033813,6.391327,0.4225769,1.3308563,0.26623535,-0.22923279,1.7267511,-2.0194635,1.0186552
1570726922,-1.7519531,10.754761,-0.952301,1.3361816,-2.015564,-0.13334656,-0.08043063,1.4094791,-0.73381037
1570726922,-0.13227844,14.404114,0.881073,1.3894501,-0.24510193,0.49621582,1.7016058,6.18647,2.025765
1570726922,-0.15681458,14.249695,0.79307556,1.5087585,0.06915283,0.54415894,1.7016058,6.18647,2.025765
1570726922,-6.431427,17.603363,3.8899841,1.8624268,2.3818512,0.5835724,-4.809099,10.07603,7.0966187
1570726922,-6.431427,17.603363,3.8899841,1.8624268,2.3818512,0.5835724,-4.809099,10.07603,7.0966187
1570726922,-4.260483,11.573578,-5.0529633,1.2083435,2.8004913,0.39395142,-4.9358196,3.5192013,-1.4418724
1570726922,1.1504211,6.605606,0.5524597,-0.010314941,-0.5263214,0.4855652,1.9407907,-1.5858479,4.405484
1570726922,1.1504211,6.605606,0.5524597,-0.010314941,-0.5263214,0.4855652,1.9407907,-1.5858479,4.405484
1570726922,-0.6386566,4.830902,1.6843262,-1.2140656,0.2619629,0.6176605,-0.018872857,-3.293311,4.4476004
1570726922,-0.3818817,4.54718,1.4215546,-1.3365631,0.31948853,0.62724304,-0.0438357,-3.529171,4.5695434
1570726922,-0.41838074,2.0626068,0.90740967,-1.9000854,-0.08850098,-0.3080597,0.038073003,-6.420226,2.6285543
1570726922,-0.41838074,2.0626068,0.90740967,-1.9000854,-0.08850098,-0.3080597,0.038073003,-6.420226,2.6285543
1570726922,-2.7305908,7.8847046,1.945282,-0.6398773,-1.4733429,-0.6574707,-1.9248687,-0.9157419,4.145837
1570726922,-2.4911652,8.045715,1.0827789,-0.5290985,-1.7215576,-0.585022,-1.9248687,-0.9157419,4.145837
1570726922,-1.3808594,10.252563,-6.8845215,-1.4750519,-4.959961,-0.24839783,-0.13960028,1.7469482,-6.3186703
1570726922,-0.7948761,9.54509,-4.9865265,-2.5243378,-6.377823,0.1691742,0.13348472,0.82908154,-3.9910328
1570726922,-4.574127,4.4693756,-1.0767975,-0.81565857,2.3413696,0.69755554,-3.4850712,-4.68524,-3.118575
1570726922,-4.574127,4.4693756,-1.0767975,-0.81565857,2.3413696,0.69755554,-3.4850712,-4.68524,-3.118575
1570726922,-2.921524,12.274475,2.000351,0.5244446,3.1253967,0.66026306,-2.4630368,2.1396713,3.949867
1570726922,-2.8479004,15.810104,0.252594,0.35081482,1.9866333,-0.044937134,-2.4856691,7.0401754,-0.207905
1570726922,-1.1061249,9.364914,3.2034454,1.0006256,2.4052887,-0.22496033,-0.8088938,-0.36483955,3.553619
1570726922,-0.9026184,9.968262,3.1830902,1.0570831,2.3381653,-0.25585938,-0.46043122,0.37399006,3.5907328
1570726922,0.9732361,19.600128,-8.952515,1.485321,-0.519928,-1.3530884,1.4847589,10.291792,-2.259635
1570726922,4.639969,11.352112,-3.4877472,-2.1365814,-7.3259125,-0.615921,5.661663,2.7066698,-3.9080775
1570726922,0.8319855,8.452728,12.25293,-0.61325073,-1.5319366,-0.42736816,3.6102772,0.36941433,12.685529
1570726923,0.27053833,8.989624,1.1976929,0.50527954,2.3392334,0.95428467,1.1781791,0.41581535,2.2569547
1570726923,0.27053833,8.989624,1.1976929,0.50527954,2.3392334,0.95428467,1.1781791,0.41581535,2.2569547
1570726923,-0.22685242,5.984314,-0.26815796,-1.2321777,2.3115387,-0.06944275,1.0024792,-2.4388866,-0.32089892
1570726923,-0.22685242,5.984314,-0.26815796,-1.2321777,2.3115387,-0.06944275,1.0024792,-2.4388866,-0.32089892
1570726923,-0.47644043,4.071335,0.029922485,-1.3504181,1.2686462,-0.40925598,0.9927672,-4.6920366,-0.6390457
1570726923,-2.9466705,9.233841,-10.998367,-1.5325775,-0.9268646,0.27783203,-2.129681,-0.7461071,-11.4758
1570726923,0.33877563,6.080673,3.04422,2.185196,-1.0056915,-1.0707855,2.3221831,-2.5311584,3.3186169
1570726923,-0.0975647,5.8945312,2.5995026,2.2310028,-1.0397797,-1.0952911,1.9083483,-2.5632744,2.4672413
1570726923,-0.9295502,7.7105255,-0.37768555,1.0016937,-1.8046417,-1.1538696,1.348063,-0.25516796,0.12806205
1570726923,-0.9295502,7.7105255,-0.37768555,1.0016937,-1.8046417,-1.1538696,1.348063,-0.25516796,0.12806205
1570726923,-3.6583405,6.8803406,-3.1166534,0.03656006,-1.089859,-0.89501953,-1.738261,-1.8265762,-3.8425758
1570726923,-0.7008972,12.173325,2.629425,1.3191376,0.92137146,-0.22816467,1.2282908,2.6125622,2.8984728
1570726923,-2.21344,15.182831,-2.339737,2.598526,-1.1633606,-0.0854187,0.14923549,6.3466167,-1.0372114
1570726923,-3.8636475,14.313141,-3.186676,2.1021118,-0.7969055,-0.06411743,-0.39723992,6.6280155,-1.918902
1570726923,-11.399994,15.619766,-7.53096,0.7492218,5.6511383,0.87864685,-9.984967,9.167908,-0.25271058
1570726923,-11.399994,15.619766,-7.53096,0.7492218,5.6511383,0.87864685,-9.984967,9.167908,-0.25271058
1570726923,-2.4516602,9.598358,-2.4378967,0.50102234,-1.7183533,-0.19407654,-1.249271,1.8297615,-0.16591358
1570726923,-2.4516602,9.598358,-2.4378967,0.50102234,-1.7183533,-0.19407654,-1.249271,1.8297615,-0.16591358
1570726923,-1.8435364,6.7259064,-0.4914093,-0.027359009,-3.035019,-0.8651886,0.12195587,-1.2444229,1.7810416
1570726923,0.27772522,3.2285767,1.4245453,-0.38954163,-2.254181,-0.7299042,2.861964,-4.602186,3.2394018
1570726923,0.27772522,3.2285767,1.4245453,-0.38954163,-2.254181,-0.7299042,2.861964,-4.602186,3.2394018
1570726923,0.15083313,-0.53330994,1.8160095,-0.9967499,0.48887634,-0.3218994,2.948648,-8.967646,3.1514106
1570726923,0.15083313,-0.53330994,1.8160095,-0.9967499,0.48887634,-0.3218994,2.948648,-8.967646,3.1514106
1570726923,-6.1656647,5.869385,-0.3651123,-2.718216,1.5370941,-1.1442871,2.1372037,-3.0011168,0.0017161369
1570726923,-16.16446,9.40921,3.842102,-2.180252,-0.47306824,0.36839294,-11.576971,0.29532623,3.016416
1570726923,-3.1441803,9.835388,2.6018982,-1.1235199,-2.5663147,0.8914337,-0.10426879,2.0668192,2.2044547
1570726923,-5.241501,2.6809082,-9.028534,-2.1237946,-4.8449097,1.0128784,-2.6339157,-4.4115973,-13.671714
1570726923,-5.5078583,-1.4239502,-3.5296478,1.1465607,0.2033844,0.75720215,-1.0928175,-9.49836,-3.5938075
1570726923,-6.858185,-1.4520874,-2.9035645,1.1305847,-0.2749176,0.9095459,-1.0928175,-9.49836,-3.5938075
1570726923,-6.4841003,1.656784,8.665817,0.9260559,-0.8799896,2.5564423,-4.774598,-8.12524,8.428908
1570726923,3.3339233,16.973099,8.003815,-1.0840912,1.4508057,1.1130066,5.655337,9.608175,5.608187
1570726923,-0.5105591,17.228668,-2.3858185,0.28475952,1.6137848,1.309021,0.29556966,7.461981,-3.1446478
1570726923,-0.5213318,17.516571,-2.2439728,0.2986145,1.4593201,1.2269897,0.29556966,7.461981,-3.1446478
1570726924,-2.2631226,9.950302,4.9470215,1.4917145,1.20047,1.5348511,-2.835858,1.0475769,4.814776
1570726924,-1.91716,9.950302,4.9470215,1.4917145,1.20047,1.5348511,-2.835858,1.0475769,4.814776
1570726924,4.3227386,9.046494,0.35075378,0.9676056,2.4713287,1.1172638,2.407686,0.28634357,2.8509521
1570726924,9.123703,10.04068,-0.26576233,-0.23934937,3.400238,0.8434906,7.930724,1.1108084,0.30263966
1570726924,6.2949524,13.208817,-4.8674164,-0.53656006,2.9496307,1.4400482,5.2057443,5.0470095,-5.419656
1570726924,7.613556,14.894333,-1.901001,1.7175446,-0.13323975,0.17770386,5.8094053,6.128806,-0.8262409
1570726924,7.613556,14.894333,-1.901001,1.7175446,-0.13323975,0.17770386,5.8094053,6.128806,-0.8262409
1570726924,1.9261322,11.434708,0.6985016,0.96865845,-0.016067505,-0.7309723,-0.068701506,2.9296913,1.7107035
1570726924,1.9261322,11.434708,0.6985016,0.96865845,-0.016067505,-0.7309723,-0.068701506,2.9296913,1.7107035
1570726924,0.30586243,10.955872,2.7042542,1.0666656,0.42921448,-1.1943512,-1.3655058,2.556326,4.40982
1570726924,-4.6226044,12.572556,-2.794632,-0.23402405,0.9874115,-0.12908936,-6.397826,4.4556065,-0.9255165
1570726924,-1.9626465,10.165176,0.038909912,-0.19993591,0.6443939,0.091415405,-4.229001,2.0679798,0.43380272
1570726924,-1.4395142,6.38533,1.4838104,0.73643494,-0.36973572,0.5846405,-4.218521,-2.5039797,3.500266
1570726924,-0.7380066,3.6511536,-0.2633667,-1.2470856,0.74346924,1.501831,-2.387115,-2.9517298,1.0700809
1570726924,-0.7380066,3.6511536,-0.2633667,-1.2470856,0.74346924,1.501831,-2.387115,-2.9517298,1.0700809
1570726924,5.3354797,6.8174896,-1.7645264,-1.4164581,1.1120453,2.1164856,1.9322655,-1.9472694,-0.6560166
1570726924,5.2828064,7.165848,-1.8764496,-1.4398956,1.1812897,1.9982452,1.9322655,-1.9472694,-0.6560166
1570726924,3.8486786,5.04039,-2.6000977,-1.9597473,1.1855469,-0.2569275,0.026484728,-2.7877254,-2.2099283
1570726924,3.8486786,5.04039,-2.6000977,-1.9597473,1.1855469,-0.2569275,0.026484728,-2.7877254,-2.2099283
1570726924,5.403717,5.796356,-1.5598297,-2.0481567,-0.35588074,-0.37730408,1.7816317,-1.773181,-3.3364081
1570726924,5.0541534,5.380371,-1.1025238,-2.019394,-0.5497589,-0.3868866,1.7816317,-1.773181,-3.3364081
1570726924,9.3116455,7.934387,0.964859,-0.54293823,0.6305542,-0.64575195,5.454044,-1.3372045,-0.19535649
1570726924,9.3116455,7.934387,0.964859,-0.54293823,0.6305542,-0.64575195,5.7577786,-0.6087928,-0.4979725
1570726924,8.270767,11.198883,0.2741394,-0.42790222,1.9291077,-2.2457733,4.800103,2.0684385,-1.6969104
1570726924,2.7072449,11.60051,3.7182007,-0.08807373,-0.85336304,-5.1645966,2.1741066,2.8949356,0.8498802
1570726924,2.4576416,11.486176,3.916916,-0.19673157,-0.9151459,-5.108139,2.0899725,2.923195,1.5320394
1570726924,0.2633667,12.443863,7.091034,-3.053772,0.47502136,-2.8380585,1.2541505,4.231715,3.7677338
1570726924,0.33518982,12.443863,7.091034,-3.053772,0.47502136,-2.8380585,1.2541505,4.231715,3.7677338
1570726924,-3.7415314,9.0698395,8.161835,-0.72190857,2.7802582,-1.8921051,-1.4255579,1.6376252,5.0531855
1570726924,-3.7415314,9.0698395,8.161835,-0.72190857,2.7802582,-1.8921051,-1.4255579,1.6376252,5.0531855
1570726924,-1.3748779,7.5764465,6.669052,0.055740356,-2.4800262,-1.3839722,2.210199,0.46294832,2.837705
1570726924,-1.3215942,7.5674744,7.099411,0.0024719238,-3.0254364,-1.2135315,2.24452,0.3140335,2.6336236
1570726924,-1.6789398,5.467163,10.559021,-0.2574463,-2.2371368,0.37477112,1.6793106,-1.3743229,5.678367
1570726924,-1.6789398,5.467163,10.559021,-0.2574463,-2.2371368,0.37477112,1.6793106,-1.3743229,5.678367
1570726925,-1.6675568,3.5039215,6.509842,-1.5112762,-1.4626923,2.5276794,0.028928041,-3.7285757,1.1121063
1570726925,-1.6675568,3.5039215,6.509842,-1.5112762,-1.4626923,2.5276794,0.028928041,-3.7285757,1.1121063
1570726925,-0.683548,5.328293,7.468109,-2.41568,-2.794281,2.8131714,-0.9925339,-1.2201195,1.4404039
1570726925,-0.683548,5.328293,7.468109,-2.41568,-2.794281,2.8131714,-0.9925339,-1.2201195,1.4404039
1570726925,0.57341003,5.6401367,6.359604,-4.1137085,-1.2869263,1.2759857,-1.0942743,0.44864082,-0.7787123
1570726925,0.57341003,5.6401367,6.359604,-4.1137085,-1.2869263,1.2759857,-1.0942743,0.44864082,-0.7787123
1570726925,0.008972168,3.5924988,7.803894,-3.467102,-0.30900574,-0.08753967,-2.2835891,0.11672568,-0.15070152
1570726925,0.5009918,2.7359772,7.834427,-3.0314026,-0.027786255,-0.3922119,-1.6227366,-0.32565784,-0.3803482
1570726925,1.7794952,3.7840424,9.368515,-1.7871704,0.67529297,-0.9663849,-0.5180453,0.5597205,0.9244547
1570726925,-2.521698,2.7054443,9.453506,-0.8561249,-1.952713,-1.7142029,-3.544801,0.43053675,-1.1053553
1570726925,-2.5474243,2.533661,10.796051,-0.8795624,-2.222229,-1.7110138,-3.544801,0.43053675,-1.1053553
1570726925,-0.061050415,2.9640198,11.369461,-0.23402405,-0.8682709,-0.32722473,-2.293141,0.24141765,4.644084
1570726925,0.1765747,2.8479004,10.716446,-0.3938141,-0.6477661,-0.3038025,-2.293141,0.24141765,4.644084
1570726925,0.43574524,1.0773926,8.454529,-0.3096466,-0.36653137,-0.32722473,-1.3279893,-1.356971,-0.38076115
1570726925,0.43574524,1.0773926,8.454529,-0.3096466,-0.36653137,-0.32722473,-1.3279893,-1.356971,-0.38076115
1570726925,-0.74279785,0.5506592,9.50618,-0.51205444,0.3599701,-0.43269348,-3.0427866,-1.8758135,1.0440884
1570726925,0.47705078,1.6442108,8.753799,-0.5035248,0.4494629,-0.7544098,-1.0804092,-0.3623333,-0.076848984
1570726925,0.47705078,1.6442108,8.753799,-0.5035248,0.4494629,-0.7544098,-1.0804092,-0.3623333,-0.076848984
1570726925,0.019744873,0.34477234,10.095154,-1.0894318,1.0193787,-0.69688416,-0.99630296,-1.5209252,1.1695747
1570726925,0.019744873,0.34477234,10.095154,-1.0894318,1.0193787,-0.69688416,-0.99630296,-1.5209252,1.1695747
1570726925,-0.80384827,-0.42018127,11.734589,-1.0563965,1.0694427,-0.45825195,-1.3811731,-1.6304275,2.7342253
1570726925,-0.8050537,-0.38127136,11.678909,-1.0052643,1.0183105,-0.44441223,-1.3811731,-1.6304275,2.7342253
1570726925,0.3262024,1.0247192,9.570221,-0.049728394,-0.5625458,-0.3038025,-0.112274885,0.12344211,0.478343
1570726925,0.3262024,1.0247192,9.570221,-0.049728394,-0.5625458,-0.3038025,-0.112274885,0.12344211,0.478343
1570726925,0.3471527,0.7338257,10.245392,-0.06890869,-0.8608246,-0.3400116,-0.030099839,-0.048291385,0.9578905
1570726925,1.0007782,1.0809784,10.860092,0.0791626,-0.82992554,-0.17170715,0.11134976,0.0636279,1.702899
1570726925,0.6859436,1.1953125,10.779297,0.08236694,-0.7159424,-0.14401245,-0.21720874,0.22818226,1.7626953
1570726925,1.2204437,1.2360077,10.244186,-0.05718994,-0.15881348,-0.0854187,0.009884715,0.2967924,1.2604017
1570726925,1.2204437,1.2360077,10.244186,-0.05718994,-0.15881348,-0.0854187,0.009884715,0.2967924,1.2604017
1570726925,1.4478912,0.97802734,10.744583,-0.08061218,-0.053344727,-0.2068634,0.14906669,0.07027668,1.5800104
1570726925,1.4478912,0.97802734,10.744583,-0.08061218,-0.053344727,-0.2068634,0.14906669,0.07027668,1.5800104
1570726925,1.4927826,1.1438293,11.061218,-0.11897278,0.15118408,-0.17277527,0.083307505,0.009169102,1.5135117
1570726925,1.5963287,0.7811127,10.544662,-0.04119873,0.009506226,-0.19300842,0.4692514,0.02975583,1.2023592
1570726926,1.624466,0.9642639,11.159378,-0.16690063,0.20657349,-0.21218872,0.43691695,0.12692809,1.8141947
1570726926,1.6136932,0.9816284,11.200668,-0.15945435,0.21083069,-0.21005249,0.43691695,0.12692809,1.8141947
1570726926,1.5957336,1.324585,11.320389,-0.011383057,0.20018005,-0.16210938,0.43538523,0.4871149,2.4220743
1570726926,1.1342468,1.470047,11.055832,0.12817383,0.11709595,-0.103530884,0.17769611,0.49006718,1.7926607
1570726926,1.0953522,1.4802094,11.077972,0.11645508,0.096847534,-0.10246277,0.17769611,0.49006718,1.7926607
1570726926,0.66677856,0.9917908,11.551422,-0.28515625,-0.38252258,-0.035354614,-0.3159603,0.17616451,2.2194843
1570726926,0.69311523,0.6506195,12.201447,-0.41723633,-0.39956665,0.044540405,-0.5998522,-0.26081836,2.8733711
1570726926,0.4118042,0.557251,10.760147,-0.091278076,-0.564682,-0.0129852295,-0.9001472,-0.16363525,1.497468
1570726926,0.26156616,0.4925995,10.115509,0.14628601,-0.40808105,-0.1131134,-1.401924,-0.26279503,1.1170263
1570726926,0.26156616,0.4925995,10.115509,0.14628601,-0.40808105,-0.1131134,-1.401924,-0.26279503,1.1170263
1570726926,0.3501587,0.3549347,9.442139,0.10899353,-0.13644409,-0.105651855,-1.2552775,-0.37423736,0.15922642
1570726926,0.41659546,0.18914795,9.509766,-0.0060577393,0.00630188,-0.119506836,-1.2267421,-0.57580966,0.15799236
1570726926,0.9582825,-0.5680237,10.442917,0.2709198,-0.43151855,-0.12908936,-0.8040465,-1.2442986,1.510788
1570726926,0.9151764,-0.67396545,10.313019,0.26452637,-0.40275574,-0.12483215,-0.8040465,-1.2442986,1.510788
1570726926,0.9911957,-0.7769165,10.518921,-0.1519928,-0.037368774,0.070114136,-0.82513857,-1.6015136,1.131258
1570726926,0.893631,-0.8206177,11.421539,-0.23934937,0.033996582,0.17024231,-0.8766866,-1.6140559,1.9587517
1570726926,1.3407593,-0.39982605,11.508331,-0.17010498,-0.037368774,0.4152527,-0.44740498,-1.0395584,2.2914944
1570726926,1.4933777,-0.29508972,10.543472,0.20167542,-0.5582886,0.6219177,-0.41608667,-0.9610452,1.4629784
1570726926,1.5556335,0.5590515,9.908997,0.577713,-1.1100922,0.68370056,-0.5688207,-0.19467294,0.80835724
1570726926,1.9393005,0.63505554,9.543884,0.46266174,-0.8938446,0.7912903,-0.7715728,-0.32051438,0.5416889
1570726926,1.8130035,0.9337311,10.71286,0.18249512,-0.035232544,0.8072815,-0.38188124,-1.1705266,-0.358181
1570726926,1.8411407,0.10235596,11.191696,-0.332016,1.5008698,1.0703888,-0.3414476,-0.19588268,2.1156874
1570726926,1.8411407,0.10235596,11.191696,-0.332016,1.5008698,1.0703888,-0.3414476,-0.19588268,2.1156874
1570726926,1.3413544,-0.1765747,11.009735,0.37850952,0.003112793,0.9936981,-0.4626944,-0.75066525,1.6590004
1570726926,1.4173737,-0.123306274,10.970825,0.39341736,-0.02671814,1.0128784,-0.41433394,-0.70042133,1.6460409
1570726926,2.13443,-0.059249878,11.011536,0.43603516,-0.049087524,1.1556091,0.21978617,-0.6173067,1.6348953
1570726926,2.4067688,0.26934814,10.899597,0.47651672,0.16609192,1.328186,0.6075443,-0.38279533,1.602664
1570726926,1.9476776,0.37948608,10.647614,0.57984924,0.23320007,1.6200714,0.31349397,-0.34879017,1.2688503
1570726926,1.9476776,0.37948608,10.647614,0.57984924,0.23320007,1.6200714,0.31349397,-0.34879017,1.2688503
1570726926,2.1787262,0.06643677,10.426147,0.5393677,0.32481384,1.7148743,0.116593,-0.4822588,1.2050228
1570726926,1.3479309,-0.24360657,11.312012,-0.124298096,0.82655334,1.7170105,-0.20083141,-1.0881851,1.5101061
1570726926,1.1785431,-0.19213867,11.423935,-0.12962341,0.8031311,1.6999664,0.028341651,-1.0176814,1.784172
1570726926,1.074997,-0.45310974,10.967239,0.27838135,0.24812317,1.3963623,-0.022096992,-1.0532147,1.6419287
1570726926,1.074997,-0.45310974,10.967239,0.27838135,0.24812317,1.3963623,-0.022096992,-1.0532147,1.6419287
1570726927,-0.26576233,0.0796051,9.466675,0.36997986,0.36743164,1.2110138,0.18434072,-0.58739763,-0.16410732
1570726927,-0.26576233,0.0796051,9.466675,0.36997986,0.36743164,1.2110138,0.18434072,-0.58739763,-0.16410732
1570726927,0.69311523,0.08081055,10.241791,0.1260376,0.36849976,0.9915619,-0.24850792,-0.6582847,0.74745846
1570726927,0.69311523,0.08081055,10.241791,0.1260376,0.36849976,0.9915619,-0.24850792,-0.6582847,0.74745846
1570726927,0.715271,0.09037781,10.839157,-0.13813782,0.2577057,0.79556274,-0.0785597,-0.6466171,1.2619734
1570726927,0.715271,0.09037781,10.839157,-0.13813782,0.2577057,0.79556274,-0.0785597,-0.6466171,1.2619734
1570726927,0.8451538,-0.32202148,11.313202,0.20167542,-0.6882477,0.72631836,0.23081946,-0.9763877,1.096508
1570726927,0.79307556,0.15322876,11.888412,0.38064575,-0.73831177,0.77319336,0.011901975,-0.982522,1.8840113
1570726927,0.97683716,0.79367065,10.225632,0.32951355,-0.25042725,0.6709137,-0.009082913,-0.19227767,0.59421444
1570726927,1.2054749,0.9008179,10.511139,-0.061447144,0.7466583,0.72950745,0.21517241,0.043266952,0.8931656
1570726927,1.2054749,0.9008179,10.511139,-0.061447144,0.7466583,0.72950745,0.21517241,0.043266952,0.8931656
1570726927,0.76194763,0.8433533,9.776123,-0.33840942,0.9117737,0.6357727,0.22251666,0.052470982,0.08756828
1570726927,0.62368774,-0.028137207,10.808029,-0.4449463,0.8393402,0.6144562,-0.04140514,-0.014511168,0.61395454
1570726927,1.7076569,-0.39265442,10.5686035,0.11326599,-0.109802246,0.42485046,0.85355526,0.1909988,1.2199478
1570726927,1.154602,1.0779877,10.81221,0.121780396,-0.11619568,0.37158203,0.85355526,0.1909988,1.2199478
1570726927,0.6404419,0.57221985,10.660782,0.12924194,0.063827515,0.37904358,0.26602212,0.15390879,1.0253239
1570726927,0.6404419,0.57221985,10.660782,0.12924194,0.063827515,0.37904358,0.26602212,0.15390879,1.0253239
1570726927,0.6404419,0.57221985,10.660782,0.12924194,0.063827515,0.37904358,0.26602212,0.15390879,1.0253239
1570726927,0.6404419,0.57221985,10.660782,0.12924194,0.063827515,0.37904358,0.26602212,0.15390879,1.0253239
1570726927,0.6404419,0.57221985,10.660782,0.12924194,0.063827515,0.37904358,0.26602212,0.15390879,1.0253239
1570726927,0.6404419,0.57221985,10.660782,0.12924194,0.063827515,0.37904358,0.26602212,0.15390879,1.0253239
1570726927,0.39624023,-0.48362732,10.308838,-0.59939575,0.5804901,-0.016174316,0.23713082,-1.349225,0.302186
1570726927,0.39624023,-0.48362732,10.308838,-0.59939575,0.5804901,-0.016174316,0.23713082,-1.349225,0.302186
1570726927,0.39624023,-0.48362732,10.308838,-0.59939575,0.5804901,-0.016174316,0.23713082,-1.349225,0.302186
1570726927,0.39624023,-0.48362732,10.308838,-0.59939575,0.5804901,-0.016174316,0.23713082,-1.349225,0.302186
1570726927,0.39624023,-0.48362732,10.308838,-0.59939575,0.5804901,-0.016174316,0.23713082,-1.349225,0.302186
1570726927,0.39624023,-0.48362732,10.308838,-0.59939575,0.5804901,-0.016174316,0.23713082,-1.349225,0.302186
1570726927,1.296463,-0.14245605,12.746735,1.5162048,1.5530701,-0.21218872,1.1050671,-0.4924463,4.0313253
1570726927,-0.31604004,-1.3413544,8.790314,1.8517761,5.0663147,0.6538696,-0.3030371,-2.9027424,0.48613644
1570726927,3.5643616,1.9650421,6.1914062,-0.51524353,0.49952698,0.92019653,3.0816312,0.08645022,-7.9963427
1570726927,3.5643616,1.9650421,6.1914062,-0.51524353,0.49952698,0.92019653,3.0816312,0.08645022,-7.9963427
1570726927,3.5643616,1.9650421,6.1914062,-0.51524353,0.49952698,0.92019653,3.0816312,0.08645022,-7.9963427
1570726927,3.5643616,1.9650421,6.1914062,-0.51524353,0.49952698,0.92019653,3.0816312,0.08645022,-7.9963427
1570726928,3.5643616,1.9650421,6.1914062,-0.51524353,0.49952698,0.92019653,3.0816312,0.08645022,-7.9963427
1570726928,0.108932495,0.8457489,10.57399,0.2986145,-0.1918335,0.21072388,0.72793233,-0.5427226,0.78255844
1570726928,0.5207367,1.2048798,10.512344,0.2155304,0.16929626,0.2362976,1.2888082,-0.12566113,0.81350994
1570726928,0.12869263,1.2509766,10.539871,0.17184448,0.17887878,0.19793701,0.9648785,-0.1015861,0.7892132
1570726928,0.12869263,1.2509766,10.539871,0.17184448,0.17887878,0.19793701,0.9648785,-0.1015861,0.7892132
1570726928,0.12869263,1.2509766,10.539871,0.17184448,0.17887878,0.19793701,0.9648785,-0.1015861,0.7892132
1570726928,0.12869263,1.2509766,10.539871,0.17184448,0.17887878,0.19793701,0.9648785,-0.1015861,0.7892132
1570726928,-0.60154724,1.4532776,10.241791,0.35720825,0.741333,0.17451477,0.81100154,-0.28678346,0.7825098
1570726928,-0.76075745,1.8806458,10.29985,0.28475952,0.5346832,0.20646667,0.70175636,0.06950021,0.59747887
1570726928,-0.96665955,1.7866669,10.458466,0.34335327,0.44093323,0.20007324,0.79375863,-0.048262358,0.94620705
1570726928,-1.0839691,1.7543488,10.355515,0.33163452,0.47927856,0.19688416,0.6879916,-0.09861779,0.89980507
1570726928,-1.0839691,1.7543488,10.355515,0.33163452,0.47927856,0.19688416,0.6879916,-0.09861779,0.89980507
1570726928,-1.0839691,1.7543488,10.355515,0.33163452,0.47927856,0.19688416,0.6879916,-0.09861779,0.89980507
1570726928,-1.0839691,1.7543488,10.355515,0.33163452,0.47927856,0.19688416,0.6879916,-0.09861779,0.89980507
1570726928,-1.6340485,1.4610596,9.94252,-0.36398315,0.31948853,-0.044937134,0.2921338,-0.5028994,0.39894676
1570726928,-1.3024445,1.7968445,10.449493,-0.26704407,0.15544128,-0.026824951,0.59274876,-0.14922798,0.92990303
