time,ax,ay,az,gx,gy,gz,la_x,la_y,la_z,fox,foy,foz
1570727044,-6.253662,-6.320099,4.88118,1.9124908,4.4090424,-1.6098175,1.6006703,0.9712453,5.475624
1570727044,-8.8962555,-7.435791,1.9129639,3.1013184,4.781891,-1.014328,-1.5482287,0.067326546,2.2536402
1570727044,-9.181763,-7.7817535,-1.1246796,3.318634,4.543274,-0.41671753,-2.0377264,-0.12900877,-0.010703206
1570727044,-11.194092,-8.43837,-3.7068176,2.9287567,2.380783,-0.45825195,-3.7271862,-0.7069993,-3.1292331
1570727044,-13.589493,-8.469482,-4.633972,1.8954468,-0.6839905,-0.21430969,-6.494402,-0.6214061,-4.790673
1570727044,-15.142136,-10.509354,-1.7333984,1.0038147,-2.030487,0.47277832,-8.079845,-2.3208566,-3.3823419
1570727044,-14.513046,-10.236404,-1.9351196,1.2893066,-2.3308868,1.15242,-7.847529,-2.8119035,-0.013785362
1570727044,-10.888824,-8.394669,-2.1380157,-0.29792786,-4.6212006,0.6112671,-3.1968813,-0.78003883,-5.738727
1570727044,-10.559631,-6.566101,-0.1490326,-0.22335815,-4.5690002,0.9904938,-3.3374538,-0.44497395,-2.7726145
1570727044,-4.431671,-6.8911133,5.2193604,-0.25,-0.4229889,1.5146179,2.768762,0.04643202,1.1147277
1570727044,-9.056671,-9.467865,6.142929,0.8099365,4.39946,0.82432556,-0.62838364,-1.8042521,5.137295
1570727044,-5.657501,-6.163269,2.581543,2.6464539,3.0902405,2.093048,-0.7016363,-2.1307993,1.3666935
1570727044,-5.8951263,-4.8404846,4.584305,1.3340454,2.174118,1.0650635,3.0788794,0.45207882,4.1056557
1570727044,-6.9982452,-2.1170654,3.2602997,1.3713379,1.0289612,1.1343079,1.74436,2.6780171,1.3168311
1570727044,-5.9663544,-1.8626862,2.182907,0.48291016,0.5133667,1.5998383,2.065772,2.6504793,-0.15012956
1570727044,-2.8311462,-3.454239,5.3294983,0.95695496,1.1610565,1.1960907,7.6405334,2.3982625,5.0305176
1570727044,-3.250122,-2.1871033,4.3065643,1.0794525,3.4343262,1.2408447,5.271699,1.0634432,3.6853287
1570727044,-6.2829895,-4.01268,-1.672348,1.4895782,3.0039673,0.04774475,4.7913065,0.066184044,-0.6240831
1570727044,-7.376541,-8.28035,-1.019928,-0.12748718,-0.52526855,-1.157074,2.0142756,-3.070676,-3.4459124
1570727044,-8.508987,-5.649719,1.3724823,-1.2108612,-0.2940979,-1.5970306,1.3144798,-3.6037154,0.6482824
1570727044,-7.183197,-1.5664062,-1.2910767,-1.3323059,0.49632263,-1.8335114,1.7247257,2.9713001,-0.62139595
1570727044,-5.5317993,-3.6583405,-1.0588379,0.06851196,-1.8035736,-2.955246,2.724576,2.5464582,-3.2404585
1570727044,-7.563278,-9.212891,-0.29089355,0.1537323,-3.829712,-4.0524597,1.4948978,-2.573617,-4.282218
1570727044,-11.857285,-8.448532,3.8169556,0.16545105,-3.5463562,-2.6963806,-4.149293,-1.4819927,1.4581215
1570727044,-7.4782867,-2.300232,4.6597137,-1.9522858,2.0345764,-1.4340363,-1.9512949,2.8155174,2.5278425
1570727044,-3.3746338,-3.802597,4.0803223,-1.7797089,4.6636353,-3.4740295,2.688848,5.4355717,3.418345
1570727044,-4.115036,-9.592377,5.039795,0.94096375,2.6407013,-4.7161255,1.4960556,0.81275654,4.6881533
1570727044,-5.6233826,-16.812683,-10.684128,0.9995575,2.489441,-0.115249634,-3.561893,-10.202874,-3.3248105
1570727044,2.0063477,-7.135315,-6.66127,-0.63243103,-1.1910553,-2.2180786,5.6397295,0.91376495,-8.643448
1570727044,2.1841125,-4.03244,-1.9686279,-0.96798706,-2.1487274,-4.5755005,5.92488,5.28788,-2.10341
1570727045,1.4053955,-4.2592773,-2.7928314,-1.7637329,-1.9814758,-4.7108,3.1693065,6.26589,-1.4645839
1570727045,1.6526031,-7.5171967,0.10774231,-2.126999,-0.7819824,-4.5126495,2.0876908,3.0896473,-0.694399
1570727045,1.3072357,-17.128723,7.7620087,-0.8912811,2.9592133,-3.4484558,-1.4438896,-1.5142202,6.607357
1570727045,13.26268,-19.612701,-7.889496,-1.3717194,7.000839,-0.90353394,15.723788,-9.584908,1.0322478
1570727045,-0.39265442,-7.360977,3.8845978,-1.2087402,-1.8344727,-0.08753967,-1.9832823,2.8316498,4.2324286
1570727045,1.1522064,-8.689758,5.2157745,-0.16903687,-1.1867828,0.060531616,-1.243932,1.1514587,8.643842
1570727045,0.37887573,-8.853165,1.3036499,0.25920105,-1.0067596,0.067977905,-0.8747989,1.1478128,4.02645
1570727045,0.28251648,-7.9349823,-0.09576416,0.4711914,-0.87254333,0.15640259,-1.5901809,1.6482744,2.1302915
1570727045,3.708023,-8.782532,1.177948,0.8099365,-0.49116516,-0.104599,1.7767559,1.2154436,3.0232763
1570727045,4.027054,-8.608948,0.62667847,0.9122009,-0.07785034,-0.20791626,2.4608896,1.2423325,2.5568635
1570727045,1.7794952,-9.015366,-1.3144226,0.9217987,0.54533386,-0.40499878,0.5324799,1.26793,0.27467704
1570727045,-0.85772705,-10.950485,-2.778473,0.8642731,-0.28663635,0.008331299,-2.4090762,-0.86675835,-1.510099
1570727045,-1.8387451,-9.818619,-2.3708649,0.8173981,-0.9705353,0.32577515,-3.2683387,-0.075754166,-1.7834319
1570727045,-0.84695435,-7.7973175,-2.937683,0.61286926,-0.6253967,0.4131317,-2.510819,1.9414749,-2.3860044
1570727045,-0.84695435,-7.7973175,-2.937683,0.61286926,-0.6253967,0.4131317,-2.510819,1.9414749,-2.3860044
1570727045,-0.17358398,-6.0303955,-1.9596558,0.19528198,-0.1960907,0.3332367,-1.5866694,3.5637026,-1.8276049
1570727045,0.5991516,-5.341461,-1.296463,-0.21591187,0.056365967,0.19900513,-0.8498304,4.752599,-0.93536127
1570727045,2.1416168,-7.5519104,1.5723877,-0.18289185,0.18101501,0.15426636,0.7670753,2.9131212,1.7707032
1570727045,2.6659393,-9.812042,2.0075378,0.21446228,0.8446655,0.15107727,1.4668995,0.5597515,2.4491935
1570727045,2.451065,-11.399399,-0.24360657,0.4008789,2.141098,0.07757568,1.3197511,-1.3956833,0.46725208
1570727045,2.0183105,-11.953644,-2.323578,0.3028717,1.2452087,0.22137451,0.8282671,-1.522048,-2.1068025
1570727045,3.2076263,-16.44577,-2.102707,0.7012787,-1.410492,0.32896423,1.9612004,-5.788454,-2.566241
1570727045,3.3423004,-13.306381,-1.4718323,0.58410645,-2.5556488,0.338562,2.2177022,-4.712433,-1.6128253
1570727045,5.304947,-9.416397,3.4284973,-0.21165466,-1.6416626,-0.035354614,4.748226,-0.26347256,2.0176501
1570727045,-3.0962982,-19.612701,2.991562,0.24002075,3.7624207,-1.5405731,-2.3469725,-9.487935,5.218052
1570727045,-8.251022,-16.404465,-3.7618866,1.1220703,3.2947845,-1.2412262,-7.6969776,-9.331264,-1.0761846
1570727045,-4.7890015,-9.0698395,-5.070923,-0.032684326,0.741333,0.6922302,-7.578516,0.7502918,-6.468536
1570727045,2.9388885,-10.162781,1.7232208,-0.038009644,-2.029419,1.0959625,1.1825876,-0.066140175,1.2149906
1570727045,3.6822815,-8.218094,2.3822327,1.1135406,-3.6262512,0.24162292,2.7278862,2.1175547,1.974489
1570727045,4.3742065,-8.568253,5.1373596,2.4792175,-1.0962372,0.13615417,3.0510526,1.2290173,5.338543
1570727045,4.672287,-7.699753,-3.494934,2.2299347,1.9525452,-0.22816467,3.9593863,2.309657,-2.5013728
1570727045,2.64859,-7.2484436,-11.795639,-1.9586792,3.8508453,-1.2635956,1.6439381,2.7754965,-14.484476
1570727045,0.964859,-8.268967,-3.3231506,-1.5592041,-0.3217926,-1.588501,-0.56037533,2.1482525,-5.1009336
1570727046,-1.1270752,-10.05864,-0.6799469,-0.43322754,-3.0552673,-0.70433044,-3.3614244,-0.073129654,-1.4179995
1570727046,1.4640503,-9.107544,2.9071655,-0.7826233,-2.4256897,-0.27503967,-1.1156731,0.66541195,3.3170216
1570727046,-0.77093506,-10.511139,5.0571594,-0.7655792,-0.17585754,-0.42416382,-2.2090776,-0.6438303,5.501565
1570727046,-3.8253326,-10.715851,3.210617,0.04827881,0.35464478,-0.22177124,-5.39624,-0.8293104,4.8520327
1570727046,-3.5045166,-13.0047,-12.35527,-0.71551514,-2.5332794,0.2639923,-7.205385,-2.7950191,-12.657499
1570727046,1.3180084,-18.610733,1.0576324,-1.9032898,0.1373291,-0.12057495,-1.0567954,-8.353551,1.6249887
1570727046,4.3466797,-13.652939,-4.355057,-2.2857208,2.2742462,0.013656616,1.4616084,-5.37352,-0.99189246
1570727046,6.5074463,-19.599533,-6.186615,-3.2401886,0.92349243,-0.11097717,3.3416677,-9.562091,-4.669297
1570727046,4.6465454,-11.835144,2.1685486,-1.9576111,-1.4360657,-0.030029297,2.6026366,-3.2317734,5.0220914
1570727046,4.009094,-9.545685,3.5559845,-1.5336456,-0.40914917,-0.105651855,2.3372445,-0.5436115,7.427451
1570727046,1.2910767,-7.328644,1.8848419,0.2474823,-0.11619568,0.43336487,-1.4676626,1.2009096,6.6424565
1570727046,1.6914978,-6.6151733,1.7058716,0.27838135,-0.019256592,0.41952515,-0.9754348,1.7460518,6.1652946
1570727046,2.5803528,-5.272629,1.2671356,0.65760803,0.12774658,0.21925354,0.37106323,3.9294538,5.8501444
1570727046,2.7174225,-4.735733,1.0576324,1.0315094,-0.09170532,-0.093933105,0.7319441,4.562277,4.83429
1570727046,1.8052216,-5.125992,1.0827789,1.1945038,-0.0032806396,-0.42416382,-0.056297302,4.310156,4.2385855
1570727046,-0.64105225,-9.004593,2.8999786,1.548172,1.1525269,-0.15359497,-2.3714767,2.033821,4.8992596
1570727046,-0.64105225,-9.004593,2.8999786,1.548172,1.1525269,-0.15359497,-2.3714767,2.033821,4.8992596
1570727046,0.48243713,-12.270889,-6.969528,2.647522,3.1733398,0.95640564,-1.8784726,-1.6114111,-1.6907289
1570727046,0.48243713,-12.270889,-6.969528,2.647522,3.1733398,0.95640564,-1.8784726,-1.6114111,-1.6907289
1570727046,1.2060852,-12.0386505,-12.195465,0.92819214,-1.7236786,0.86479187,-0.78010464,-2.5649414,-13.954745
1570727046,3.4033508,-10.124481,-3.538025,0.4147339,-2.541809,0.9883728,1.4076833,-0.15439892,-4.2818727
1570727046,6.2781982,-11.4179535,-0.6548157,0.6192627,-0.73191833,0.85414124,4.1235657,-0.8282623,-0.93133366
1570727046,10.204681,-14.041397,-5.063141,-0.2862091,1.2068634,-0.25904846,9.059527,-3.1996298,-3.775698
1570727046,8.393478,-15.47612,0.6542206,-0.9243164,-0.15988159,-0.5402832,7.1348724,-6.0512943,-0.00735718
1570727046,1.8022308,-10.430344,1.3114166,-0.48329163,-1.8429871,-0.62231445,1.7257674,-0.56935406,1.3476288
1570727046,2.4516602,-15.889725,5.8610077,-1.9022217,-1.1804047,-1.635376,0.5851681,-5.194972,6.557658
1570727046,-0.3429718,-17.602768,7.1293335,-1.3067322,0.40045166,-1.8462982,-1.9223917,-7.4950895,8.634859
1570727046,-3.6697083,-14.870987,2.1374207,1.3127441,0.33547974,0.6655884,-6.8923264,-6.46945,3.8509798
1570727046,0.16758728,-11.4496765,0.99897766,1.4714661,-0.25149536,1.1470947,-2.8349278,-2.5070028,2.0036967
1570727046,1.3527222,-9.909607,1.4425049,1.6973114,-0.8416443,0.9510803,-0.89532447,-0.070747375,1.7081044
1570727046,0.1490326,-8.244431,1.4778137,2.4536438,-0.7223358,0.59529114,-1.552923,1.7079592,1.4649758
1570727046,4.459198,-8.18219,-5.048767,2.6752167,-0.8842621,0.75294495,1.7178762,1.8734665,-4.9385376
1570727046,8.117538,-7.7183075,-15.123581,2.232071,-1.347641,0.46105957,5.218545,2.0233536,-11.828393
1570727047,1.2467804,-7.9391785,-14.972733,-0.51631165,-3.304535,-0.27290344,0.052417755,2.1018333,-17.71261
1570727047,-7.37294,-13.615829,4.3628387,-1.2886353,-2.4075775,-0.3442688,-7.292984,-2.9487486,1.6278685
1570727047,-0.7164612,-6.7702026,-0.69132996,-2.338974,-0.80862427,0.049865723,-4.0649056,2.6607485,-3.0921953
1570727047,1.0510559,-5.635956,4.7345276,-2.5818634,-0.7766571,-0.107788086,-1.2782711,4.242182,3.2859886
1570727047,1.1845245,-6.0232086,6.1369324,-2.2345886,0.263031,-0.2068634,-0.452065,3.7202826,5.8990316
1570727047,1.9309235,-8.332428,5.157715,-0.6537323,3.146698,-0.3911438,-0.26995683,2.24969,7.827667
1570727047,0.98521423,-11.608887,2.1218567,-0.6441498,2.84523,-0.6361542,-1.0873537,-0.8745594,3.55486
1570727047,-2.7024536,-19.612701,-19.374481,-1.7211304,-1.8366089,1.0810547,-6.981546,-9.74274,-18.349398
1570727047,-2.7024536,-19.612701,-19.374481,-1.7211304,-1.8366089,1.0810547,-6.981546,-9.74274,-18.349398
1570727047,12.704834,-14.060547,-3.391388,-1.7914276,-0.56573486,0.5239105,11.600156,-4.711421,-0.1207428
1570727047,12.131424,-13.713989,-3.0807343,-1.7637329,-0.7180786,0.40567017,11.600156,-4.711421,-0.1207428
1570727047,5.21817,-10.4028015,1.6292572,-1.9277954,-0.033111572,-0.35173035,4.8639035,-1.1260157,4.1380067
1570727047,-0.8487396,-12.073959,3.9546204,-0.74108887,0.49525452,0.1340332,-2.494929,-2.8247871,7.936308
1570727047,0.925354,-7.700348,1.6107025,0.2517395,-0.05973816,0.6890259,-1.1022668,1.4830027,4.7769423
1570727047,2.66893,-4.6902466,1.4993744,1.1955719,0.122421265,0.19581604,1.187909,4.8021526,4.7923064
1570727047,2.66893,-4.6902466,1.4993744,1.1955719,0.122421265,0.19581604,1.187909,4.8021526,4.7923064
1570727047,1.6897125,-4.3149567,1.9985657,1.4309845,0.34292603,-0.3165741,0.20070922,5.53253,4.3787794
1570727047,0.1777649,-8.392273,2.7934418,1.0155334,1.522171,-0.42523193,-1.2440733,2.4225245,4.259697
1570727047,0.026931763,-8.768158,2.9598389,1.0080872,1.6414795,-0.3868866,-1.6954389,1.6362486,4.5367274
1570727047,-0.11671448,-11.213837,2.716217,1.661087,3.1360474,0.58143616,-2.1808426,-1.2464266,3.906075
1570727047,2.1948853,-19.576187,-19.466064,1.3521576,-1.3955841,1.3633423,0.25570428,-9.424952,-19.944359
1570727047,2.1948853,-19.576187,-19.466064,1.3521576,-1.3955841,1.3633423,0.25570428,-9.424952,-19.944359
1570727047,5.972336,-7.6632385,-2.0446472,0.8291168,-3.7050781,1.1364441,4.550589,2.2425652,-3.811497
1570727047,7.6865845,-8.931564,0.046081543,-0.39060974,-0.8288574,0.547348,6.078806,1.4100132,-0.44451866
1570727047,7.6865845,-8.931564,0.046081543,-0.39060974,-0.8288574,0.547348,6.078806,1.4100132,-0.44451866
1570727047,7.182007,-14.489105,2.024292,-0.54933167,-0.4698639,-0.27609253,6.358959,-4.0425043,1.9980308
1570727047,2.8598785,-13.984528,1.3227997,-1.7456207,-1.6523132,-1.0132599,1.7466563,-3.250368,0.97771096
1570727047,-1.916565,-14.702789,0.82839966,-0.3831482,2.5671997,-0.6926117,-4.449494,-5.454941,2.4652941
1570727047,0.6296692,-13.866623,-1.3760681,-0.54400635,2.4169922,-0.5860901,-2.1446848,-3.7899141,0.12776726
1570727047,-0.05506897,-16.525375,1.6962891,-0.4310913,0.37062073,-0.70007324,-1.5862488,-6.5806246,2.0122747
1570727047,-2.691681,-12.794617,1.8309631,0.63204956,-0.9108887,0.35453796,-4.4588785,-2.6112595,2.2168524
1570727047,-2.691681,-12.794617,1.8309631,0.63204956,-0.9108887,0.35453796,-4.4588785,-2.6112595,2.2168524
1570727047,0.09277344,-9.539093,1.905777,1.3191376,-0.86187744,0.547348,-1.6769363,0.19730568,2.4558895
1570727047,0.39624023,-7.523773,1.3658905,1.7324677,-0.59877014,0.43762207,-1.1464269,2.5320072,1.3498816
1570727048,1.1234741,-7.187393,0.058654785,2.1809387,-0.095962524,0.305542,-0.6335969,2.9628582,0.38528657
1570727048,2.285263,-7.257431,-13.822327,1.7654877,-0.60835266,-0.07902527,1.5522393,3.3078346,-10.804084
1570727048,-0.25558472,-9.17099,-2.3367462,-1.7466888,-1.3508453,-0.2931366,-1.7765208,1.1891794,-5.576298
1570727048,-0.76135254,-8.146866,4.616623,-1.0755768,0.99913025,-0.2420044,-2.9102364,1.0599918,4.920932
1570727048,0.18016052,-7.9792786,1.3239899,-1.2151337,2.011139,-0.32403564,-1.4327649,2.5938435,1.3479438
1570727048,0.1083374,-7.863159,0.6542206,-0.855072,1.6510773,-0.36131287,-1.504426,2.1497002,0.6860414
1570727048,2.4809875,-9.687546,-3.5984802,-0.10725403,-0.57640076,-0.29634094,0.39218342,1.0629091,-2.3868937
1570727048,2.4809875,-9.687546,-3.5984802,-0.10725403,-0.57640076,-0.29634094,0.39218342,1.0629091,-2.3868937
1570727048,-0.4507141,-15.710754,-3.9695892,-1.6135406,0.7562561,-0.15785217,-2.0488324,-5.2159576,-2.273583
1570727048,-0.4507141,-15.710754,-3.9695892,-1.6135406,0.7562561,-0.15785217,-2.0488324,-5.2159576,-2.273583
1570727048,1.6023254,-19.612701,-1.9393005,-3.5395355,-0.46774292,0.87332153,-0.5227914,-9.711987,0.009306192
1570727048,1.9871826,-19.612701,-1.4089813,-3.4298096,-0.7191467,0.97132874,-0.5227914,-9.711987,0.009306192
1570727048,5.205597,-10.457275,5.0505676,-1.7424316,0.27474976,0.0030059814,5.4634485,-1.0531015,8.435423
1570727048,5.205597,-10.457275,5.0505676,-1.7424316,0.27474976,0.0030059814,5.4634485,-1.0531015,8.435423
1570727048,-1.2755127,-9.361923,0.4985962,0.753479,-0.81288147,0.71139526,-2.3746395,0.40501595,3.8274708
1570727048,-1.2755127,-9.361923,0.4985962,0.753479,-0.81288147,0.71139526,-2.3746395,0.40501595,3.8274708
1570727048,1.194107,-4.474762,2.0655975,2.3172913,-1.1793365,0.75187683,0.49772245,4.639741,5.441681
1570727048,1.194107,-4.474762,2.0655975,2.3172913,-1.1793365,0.75187683,0.49772245,4.639741,5.441681
1570727048,1.5191193,-2.9789886,1.5568237,2.2853394,-0.5678711,-1.0036774,1.4406121,7.347601,2.3405194
1570727048,1.5191193,-2.9789886,1.5568237,2.2853394,-0.5678711,-1.0036774,1.4406121,7.347601,2.3405194
1570727048,1.217453,-11.441895,4.6148224,0.75668335,3.609024,-0.25160217,0.019080877,-0.7387266,4.3552275
1570727048,1.217453,-11.441895,4.6148224,0.75668335,3.609024,-0.25160217,0.019080877,-0.7387266,4.3552275
1570727048,3.3315277,-11.343735,-19.608505,-0.6675873,4.1704254,0.33642578,3.8209634,-4.7238827,-20.021585
1570727048,3.296814,-10.120895,-19.612701,-0.73469543,3.2990417,0.42803955,2.6397176,-1.7682428,-20.086203
1570727048,5.8993073,-6.6666565,-4.7375336,0.55215454,-3.6305084,0.6261749,5.2729225,3.9848938,-6.1247234
1570727048,6.7109528,-9.917984,-0.9397278,0.2709198,-5.327469,0.5324402,5.8477583,1.642992,-2.081139
1570727048,8.991425,-15.802933,6.9078674,-0.3245697,-0.8927765,-0.18447876,8.5846405,-5.4905014,7.3112607
1570727048,0.5345001,-11.889008,1.359314,-1.9011536,0.7967377,-0.9962158,0.05420041,-2.174758,0.6748995
1570727048,-3.052002,-10.759537,5.246887,-1.4835663,2.014328,-1.0185852,-3.7996235,-0.45152092,6.5602145
1570727048,-3.5990906,-14.564529,5.606018,-0.14241028,2.538437,-0.7544098,-5.2972302,-1.4703617,6.2939124
1570727048,-1.4676514,-13.764862,-2.245758,-0.32136536,-2.6057281,0.6208496,-3.0569205,-3.8480644,-4.2259674
1570727048,-1.4676514,-13.764862,-2.245758,-0.32136536,-2.6057281,0.6208496,-3.0569205,-3.8480644,-4.2259674
1570727049,1.6609802,-11.131241,2.316391,0.6565399,-0.77560425,0.38116455,0.19505286,-1.0464516,3.2256684
1570727049,1.7357941,-9.702499,2.142807,1.1742554,-1.3764038,0.09780884,0.8222761,0.41279125,2.4359908
1570727049,1.7357941,-9.702499,2.142807,1.1742554,-1.3764038,0.09780884,0.8222761,0.41279125,2.4359908
1570727049,-0.72784424,-9.05188,0.7296295,2.072281,0.085128784,-0.19940186,-1.8493812,1.2489395,0.57975954
1570727049,-0.9355316,-8.738831,-0.7410126,2.0605621,0.39086914,-0.19619751,-2.0763888,1.478075,-0.80819005
1570727049,-1.9273376,-7.039551,-8.300095,-0.9775696,-2.3628387,0.28529358,-3.5677304,3.2202559,-12.263615
1570727049,-1.9273376,-7.039551,-8.300095,-0.9775696,-2.3628387,0.28529358,-3.5677304,3.2202559,-12.263615
1570727049,1.1450195,-8.614929,3.8031921,-0.78689575,-0.52845764,0.32151794,-0.27719164,2.0617294,3.5819707
1570727049,2.1470032,-7.9403687,4.4214935,-0.8987427,0.037200928,-0.30273438,1.0490732,2.044034,3.854975
1570727049,2.1470032,-7.9403687,4.4214935,-0.8987427,0.037200928,-0.30273438,1.0490732,2.044034,3.854975
1570727049,-4.0252533,-12.594101,-9.781509,-1.4974213,0.4345398,-0.5093994,-4.9897785,-1.6541042,-9.978582
1570727049,-4.0252533,-12.594101,-9.781509,-1.4974213,0.4345398,-0.5093994,-4.9897785,-1.6541042,-9.978582
1570727049,1.3084259,-16.390701,-5.1810455,-2.8119507,0.3791504,0.305542,-0.60510266,-6.154147,-3.4193394
1570727049,1.3084259,-16.390701,-5.1810455,-2.8119507,0.3791504,0.305542,-0.60510266,-6.154147,-3.4193394
1570727049,5.23732,-15.73111,-1.1336517,-2.2196655,-1.1377869,0.19793701,4.28216,-7.1712513,1.6460624
1570727049,5.23732,-15.73111,-1.1336517,-2.2196655,-1.1377869,0.19793701,4.28216,-7.1712513,1.6460624
1570727049,2.0075378,-11.435898,4.3981476,-1.3461609,-0.6882477,0.10739136,1.3230932,-1.9684896,7.8838716
1570727049,1.617279,-7.6237335,1.4029999,0.7449646,-0.5742645,0.40141296,0.7891771,2.0229216,5.070335
1570727049,1.617279,-7.6237335,1.4029999,0.7449646,-0.5742645,0.40141296,0.7891771,2.0229216,5.070335
1570727049,1.2557526,-5.446213,2.1218567,1.4746704,-0.3399048,0.31298828,0.4814782,3.9632416,5.241189
1570727049,1.5041504,-4.490326,1.3587036,1.8933105,0.15757751,-0.13868713,0.93544537,5.5083427,3.9776037
1570727049,1.5041504,-4.490326,1.3587036,1.8933105,0.15757751,-0.13868713,0.93544537,5.5083427,3.9776037
1570727049,1.5939331,-6.498459,0.94869995,1.850708,0.7125702,-0.9386902,0.5824858,4.1505203,2.2043095
1570727049,1.4538727,-6.498459,0.94869995,1.850708,0.7125702,-0.9386902,0.5824858,4.1505203,2.2043095
1570727049,-1.9039917,-11.880035,1.8351593,1.2807922,2.68544,-0.25904846,-3.362503,-2.05554,2.689124
1570727049,1.9141693,-10.182541,-13.603256,1.1976929,1.3751678,0.49942017,0.7137493,-0.39387608,-13.933011
1570727049,1.9141693,-10.182541,-13.603256,1.1976929,1.3751678,0.49942017,0.7137493,-0.39387608,-13.933011
1570727049,2.9801788,-8.137894,-7.1927795,0.6554718,-1.9654999,0.6112671,2.0251331,1.9669447,-8.263642
1570727049,5.1918335,-10.977417,-3.5200806,0.5074005,-2.7676392,0.8296509,3.711535,0.020149231,-4.4366946
1570727049,7.587219,-16.85817,-3.2567139,-0.9029999,0.216156,-0.20579529,7.3216004,-6.288454,-2.7576735
1570727049,7.587219,-16.85817,-3.2567139,-0.9029999,0.216156,-0.20579529,7.3216004,-6.288454,-2.7576735
1570727049,0.26156616,-14.194031,5.8520203,-1.3557434,-1.8376617,-0.8204498,0.62893367,-5.484288,6.855164
1570727049,0.26156616,-14.194031,5.8520203,-1.3557434,-1.8376617,-0.8204498,0.62893367,-5.484288,6.855164
1570727050,-4.6070404,-17.246033,2.7808685,-0.41404724,1.3986053,-0.37730408,-5.6747775,-7.7823687,3.690149
1570727050,-4.6070404,-17.246033,2.7808685,-0.41404724,1.3986053,-0.37730408,-5.6747775,-7.7823687,3.690149
1570727050,-2.178131,-12.233765,3.3638458,0.7907715,-0.28344727,0.25227356,-3.667626,-2.2480116,4.597662
1570727050,-1.6178894,-12.282257,1.1695709,1.5694733,-0.66267395,0.5100708,-3.1941237,-1.8794804,2.4243722
1570727050,1.6932983,-9.162018,-2.6982727,2.4855957,-1.4424591,0.6176605,0.09997809,0.7303715,-1.994414
1570727050,1.6932983,-9.162018,-2.6982727,2.4855957,-1.4424591,0.6176605,0.09997809,0.7303715,-1.994414
1570727050,3.8319244,-7.5608826,-5.811325,1.2861176,-1.3593597,0.1659851,3.1574202,2.802929,-7.1913075
1570727050,-0.794281,-8.887283,-3.154358,0.10473633,-0.062942505,-0.42630005,-0.85445666,1.5577545,-3.466796
1570727050,-0.794281,-8.887283,-3.154358,0.10473633,-0.062942505,-0.42630005,-0.85445666,1.5577545,-3.466796
1570727050,-3.031662,-6.893509,-1.7501678,-1.2406921,-1.0962372,0.44934082,-5.0214586,2.9256039,-3.199446
1570727050,-3.031662,-6.893509,-1.7501678,-1.2406921,-1.0962372,0.44934082,-5.0214586,2.9256039,-3.199446
1570727050,2.4097595,-5.8472443,4.336502,-0.9775696,0.7892761,-0.1322937,1.5811024,4.490884,4.850367
1570727050,2.4097595,-5.8472443,4.336502,-0.9775696,0.7892761,-0.1322937,1.5811024,4.490884,4.850367
1570727050,-0.7589569,-11.40239,1.5029602,0.088760376,1.5892944,-0.57118225,-0.8588767,-0.6052208,3.7190776
1570727050,-0.7589569,-11.40239,1.5029602,0.088760376,1.5892944,-0.57118225,-0.8588767,-0.6052208,3.7190776
1570727050,-1.5424652,-16.010025,0.683548,-1.9885101,0.0052337646,0.6485443,-2.963172,-5.6961975,1.2963803
1570727050,-1.5424652,-16.010025,0.683548,-1.9885101,0.0052337646,0.6485443,-2.963172,-5.6961975,1.2963803
1570727050,2.1517944,-19.612701,-10.351334,-2.8439178,1.8343048,1.0192566,0.24288863,-9.329757,-8.237214
1570727050,10.919952,-12.5408325,-1.3251953,-1.858551,-2.030487,0.2948761,11.301531,-3.0722227,0.6762173
1570727050,10.919952,-12.5408325,-1.3251953,-1.858551,-2.030487,0.2948761,11.301531,-3.0722227,0.6762173
1570727050,4.3029785,-10.495575,5.534195,-2.0236664,0.17887878,-0.4103241,5.0409646,-0.66086197,8.313239
1570727050,-2.229599,-11.706451,-0.9708557,-0.7101898,-1.0930481,0.291687,-2.5908906,-2.093813,0.7006662
1570727050,1.2677307,-7.8200684,1.0971375,0.03869629,-1.1495056,0.35346985,0.5957706,1.252451,4.9687862
1570727050,1.0390778,-4.6357727,2.4289246,0.44029236,-0.15135193,-0.15359497,1.0801368,4.9879656,5.9720154
1570727050,1.2294159,-3.763092,2.427124,0.5745239,-0.06826782,-0.26437378,1.1336195,5.668977,5.991269
1570727050,4.261673,-2.6282349,0.6290741,1.5417786,-1.1069031,-0.6840973,3.8399634,7.296527,3.5445793
1570727050,4.304779,-2.7257996,0.5213318,1.5609589,-1.155899,-0.72032166,3.9675326,7.3052645,3.3294225
1570727050,3.727768,-3.3925781,0.9044037,1.5982361,-1.441391,-1.1517487,3.3770492,6.8096523,2.9277287
1570727050,2.8640594,-4.9308624,1.0582428,1.4075623,-1.204895,-1.6460266,2.428607,5.487547,2.807776
1570727050,1.5352783,-12.831726,-10.9002075,1.534317,0.8159027,0.5324402,-0.75003004,-2.9361677,-5.5856013
1570727050,1.5352783,-12.831726,-10.9002075,1.534317,0.8159027,0.5324402,-0.75003004,-2.9361677,-5.5856013
1570727050,-5.6341553,-13.558365,-5.732315,2.6251526,-7.492096,0.19155884,-4.620089,-1.8936892,-5.679842
1570727050,-8.81485,-16.254242,-4.510071,2.6368713,-6.6537323,0.32896423,-7.401259,-4.2927046,-4.9228616
1570727050,-8.510193,-16.967712,-6.3230896,2.1116943,-1.8983917,1.5902405,-10.034022,-6.4986906,-3.6445796
1570727051,9.593567,-13.055588,7.621338,-2.3879852,-2.5684357,0.2160492,8.490384,-3.2989397,6.137864
1570727051,8.719086,-14.026428,9.659409,-0.30859375,3.639923,-0.6936798,8.77657,-3.138546,17.272552
1570727051,8.723877,-12.801193,-2.1960754,0.1920929,-4.2696686,-0.4699707,8.799994,-0.51898384,-3.3454719
1570727051,8.723877,-12.801193,-2.1960754,0.1920929,-4.2696686,-0.4699707,8.799994,-0.51898384,-3.3454719
1570727051,5.885544,-18.479645,6.1692657,-0.49287415,-5.6587677,-0.73202515,6.0649357,-8.445095,5.4115505
1570727051,1.6478119,-9.627686,8.916611,1.7452393,1.948288,-0.18554688,0.81745017,0.18438816,11.153866
1570727051,1.6478119,-9.627686,8.916611,1.7452393,1.948288,-0.18554688,0.81745017,0.18438816,11.153866
1570727051,-2.1152802,-8.781326,6.7223206,0.7481537,-3.4195862,-0.36238098,-3.066823,1.9100504,4.338482
1570727051,-2.1152802,-8.781326,6.7223206,0.7481537,-3.4195862,-0.36238098,-3.066823,1.9100504,4.338482
1570727051,-5.8526306,-11.802811,3.1376038,0.92819214,-2.8709717,0.35879517,-7.0589,-1.5752964,2.4493575
1570727051,-5.8526306,-11.802811,3.1376038,0.92819214,-2.8709717,0.35879517,-7.0589,-1.5752964,2.4493575
1570727051,-6.491272,-10.6949005,-0.9684601,2.1617584,-7.331238,0.22669983,-7.855968,-0.5773897,-3.2053661
1570727051,-5.43544,-9.76355,1.0510559,0.83125305,-4.917343,0.3140564,-7.35198,0.50312996,-0.6154156
1570727051,-5.43544,-9.76355,1.0510559,0.83125305,-4.917343,0.3140564,-7.35198,0.50312996,-0.6154156
1570727051,-4.205414,-12.597092,0.50338745,1.7814636,-4.1056213,0.90208435,-6.2329903,-2.215189,-1.0697775
1570727051,-1.6298523,-11.83873,-2.568985,0.3486786,-2.8975983,0.27996826,-3.696088,-2.2690163,-5.981942
1570727051,-1.6436157,-11.671738,-2.1727448,0.27198792,-2.7015991,0.25546265,-3.696088,-2.2690163,-5.981942
1570727051,-2.5647888,-12.469009,0.38606262,-0.5472107,0.8766327,-0.027893066,-3.7097907,-1.4672432,-1.8243384
1570727051,-6.3661804,-16.734879,2.3038177,-1.1320343,2.2668,0.32791138,-7.5667915,-6.035411,-0.0023771524
1570727051,0.53749084,-12.493546,-1.8333588,-0.6792908,0.6763611,1.5465698,-1.6775823,-2.8748817,-2.9774199
1570727051,10.207672,-10.630249,-6.446991,-2.48172,-0.77560425,-0.3687744,10.189163,-0.16485405,-9.561247
1570727051,9.583389,-10.630249,-6.446991,-2.48172,-0.77560425,-0.3687744,10.189163,-0.16485405,-9.561247
1570727051,4.695633,-14.120407,2.6270447,-2.960022,-0.32818604,0.11911011,3.3447175,-3.3763924,3.5282276
1570727051,4.838684,-14.316727,2.6988678,-2.8492432,-0.52420044,0.15319824,3.3447175,-3.3763924,3.5282276
1570727051,7.1089783,-13.698425,1.7890625,-1.5357666,-3.4920197,0.35772705,6.3063493,-3.896881,3.9004538
1570727051,5.9280396,-9.608536,4.4639893,-1.0617218,-3.0211792,0.39395142,5.560325,0.2561388,6.2231407
1570727051,-3.3303375,-11.3389435,-0.7344208,-0.10192871,-0.1918335,0.1851654,-3.1808572,-0.90970516,4.023671
1570727051,-3.3303375,-11.3389435,-0.7344208,-0.10192871,-0.1918335,0.1851654,-3.1808572,-0.90970516,4.023671
1570727051,-0.8355713,-9.439133,0.11791992,-0.7496033,-2.1828156,0.92019653,-1.2194875,0.52486515,2.1278048
1570727051,1.4437103,-6.7737885,2.5528107,-0.46624756,1.217514,0.18089294,1.5930562,3.0121822,6.013343
1570727051,1.4437103,-6.7737885,2.5528107,-0.46624756,1.217514,0.18089294,1.5930562,3.0121822,6.013343
1570727051,3.787033,-5.3624115,1.351532,0.7737274,-0.344162,-0.313385,3.8855326,4.686121,4.0480328
1570727051,3.815155,-5.4563904,1.3479309,0.84935,-0.4517517,-0.34214783,3.8855326,4.686121,4.0480328
1570727051,3.6894684,-6.6546783,2.324768,1.468277,-0.85336304,-0.5647888,3.9158368,3.941287,4.777917
1570727052,-6.42305,-19.600723,-16.239273,1.3553619,-1.9228821,0.25334167,-3.926158,-8.994096,-13.436593
1570727052,-6.42305,-19.600723,-16.239273,1.3553619,-1.9228821,0.25334167,-3.926158,-8.994096,-13.436593
1570727052,0.65301514,-13.575119,-1.2348022,-0.48754883,-2.5460663,-0.23028564,0.2518502,-1.0059433,-1.7457403
1570727052,0.65301514,-13.575119,-1.2348022,-0.48754883,-2.5460663,-0.23028564,0.2518502,-1.0059433,-1.7457403
1570727052,6.0220184,-19.612701,7.171829,-1.0105896,-1.0717468,-0.60206604,5.665127,-9.18479,6.7523823
1570727052,4.034836,-5.590454,1.122879,-0.5503998,0.6795502,0.028564453,3.9491978,4.8544083,2.6399894
1570727052,4.034836,-5.590454,1.122879,-0.5503998,0.6795502,0.028564453,3.9491978,4.8544083,2.6399894
1570727052,3.2639008,-11.909363,1.829773,-0.004989624,-2.3596497,-1.1879578,3.0624452,-0.24619198,3.2456677
1570727052,3.114853,-12.604874,1.953064,-0.025222778,-2.3777618,-1.2124634,3.0490932,-1.2945576,3.3825312
1570727052,-1.1252747,-11.646591,7.561493,0.23576355,3.5493774,-0.33042908,-1.8868463,-1.3598557,10.299889
1570727052,-1.1252747,-11.646591,7.561493,0.23576355,3.5493774,-0.33042908,-1.8868463,-1.3598557,10.299889
1570727052,-1.8878326,-10.120285,-7.1802063,2.697586,0.29393005,0.011520386,-2.9424162,0.081474304,-6.5568905
1570727052,-1.8878326,-10.120285,-7.1802063,2.6624298,-0.10021973,0.046676636,-2.9424162,0.081474304,-6.5568905
1570727052,0.5895691,-9.829987,-5.1002502,0.54681396,-4.02359,0.60380554,-0.3038509,0.79670334,-5.9023294
1570727052,0.5895691,-9.829987,-5.1002502,0.54681396,-4.02359,0.60380554,-0.3038509,0.79670334,-5.9023294
1570727052,0.36930847,-9.793488,-3.9001617,0.20593262,-2.9167786,0.467453,-0.22624004,0.5992193,-4.2911067
1570727052,-1.130661,-8.016983,-5.843048,-1.0425568,-1.601181,0.49195862,-1.5691259,2.1919632,-5.8803897
1570727052,2.8221588,-7.195175,0.020950317,-2.1206055,0.37382507,0.29382324,1.9697492,3.1165447,0.7671511
1570727052,2.8221588,-7.195175,0.020950317,-2.1206055,0.37382507,0.29382324,1.9697492,3.1165447,0.7671511
1570727052,4.182663,-8.384491,3.0448303,-1.638031,-0.72979736,-0.12483215,4.1459117,1.9240398,4.0083957
1570727052,1.7633362,-8.960297,6.3937225,-0.42469788,1.4081879,-0.8470764,1.5930287,1.2330799,8.838603
1570727052,1.7633362,-8.960297,6.3937225,-0.42469788,1.4081879,-0.8470764,1.5930287,1.2330799,8.838603
1570727052,-3.1405945,-13.642761,-3.5110931,0.577713,2.9645386,-0.77571106,-2.252826,-2.215191,3.7610204
1570727052,-3.4033508,-16.680405,-5.2522736,-2.2335205,-1.3018341,1.0661316,-6.2613993,-7.247307,-4.6060586
1570727052,-3.4033508,-16.680405,-5.2522736,-2.2335205,-1.3018341,1.0661316,-6.2613993,-7.247307,-4.6060586
1570727052,12.881409,-18.61612,-1.5909424,-2.2985077,-1.4211426,0.6922302,12.368888,-9.837644,1.9261708
1570727052,12.881409,-18.61612,-1.5909424,-2.2985077,-1.4211426,0.6922302,12.368888,-9.837644,1.9261708
1570727052,-0.4920044,-11.841721,5.9280396,-0.6718445,-0.25149536,0.12976074,0.32496673,-2.1218576,11.134227
1570727052,-0.4920044,-11.841721,5.9280396,-0.6718445,-0.25149536,0.12976074,0.32496673,-2.1218576,11.134227
1570727052,0.025741577,-8.722076,-1.0450745,0.2506714,-0.6104889,0.46105957,0.27695107,0.5199108,3.5200973
1570727052,1.0612335,-6.4918823,2.0548248,0.65760803,-0.88212585,0.4131317,1.4410527,2.5097494,6.4650674
1570727052,1.0779877,-2.47081,1.067215,1.2147369,-0.5028839,-0.52537537,1.7629604,7.1873026,4.86555
1570727052,1.0779877,-2.47081,1.067215,1.2147369,-0.5028839,-0.52537537,1.7629604,7.1873026,4.86555
1570727053,0.6428375,-3.4404755,1.8794556,1.2349854,0.9000702,-1.0675964,0.7528665,6.5041084,5.1350183
1570727053,0.61650085,-3.837906,1.9841919,1.2339172,1.1077881,-1.1112671,0.69893944,6.2450275,5.1118374
1570727053,-1.0630188,-11.877029,-1.7741089,1.7921143,4.45166,0.12550354,-2.4930274,-1.8085003,1.6742308
1570727053,-1.0630188,-11.877029,-1.7741089,1.7921143,4.45166,0.12550354,-2.4930274,-1.8085003,1.6742308
1570727053,1.161789,-13.421295,-17.715897,1.3937073,1.7235107,0.43336487,0.2837429,-3.3464756,-16.49404
1570727053,0.8032532,-9.457092,-3.3854065,1.0677338,-3.113861,0.7689209,0.2063961,0.7693815,-2.3065784
1570727053,4.6932373,-15.072693,-2.3097992,0.8759918,-0.5231323,0.92126465,3.8098423,-4.253356,-1.2350146
1570727053,5.1319733,-15.454575,-2.4540558,0.8035431,-0.2749176,0.88397217,3.8098423,-4.253356,-1.2350146
1570727053,6.901886,-16.879715,-4.1653137,-0.49926758,1.3229675,-0.10032654,7.397675,-6.4939947,-4.2421565
1570727053,5.5599365,-12.853867,0.7745209,-0.9232483,-1.5638885,-0.2846222,4.849179,-3.55968,2.28316
1570727053,3.6828766,-9.998779,1.0235138,-0.74108887,-2.6142426,-0.5456085,3.9851313,-0.3816023,1.7189692
1570727053,-0.2280426,-12.486359,5.846634,-1.5624084,0.38554382,-1.2433624,-0.57848406,-0.4378767,6.998006
1570727053,-5.762848,-16.175232,2.5881348,0.22085571,1.5274963,-0.73309326,-5.9589424,-6.2845755,5.034101
1570727053,-0.888855,-9.886856,0.85832214,0.9217987,-1.650177,0.54522705,-2.1022124,0.15776062,2.0640807
1570727053,-0.888855,-9.886856,0.85832214,0.9217987,-1.650177,0.54522705,-2.1022124,0.15776062,2.0640807
1570727053,0.1370697,-9.440338,1.608902,1.5854492,-1.9399261,0.4386902,-0.5335242,0.8574934,2.8057613
1570727053,0.3645172,-9.0542755,-1.1845245,2.36203,-1.5148926,0.41099548,-0.6793635,1.3066788,1.1457381
1570727053,0.6314697,-7.099411,3.2327728,-1.6465607,-1.1963806,-0.36238098,1.3786563,3.6531277,-1.1615347
1570727053,0.6314697,-7.099411,3.2327728,-1.6465607,-1.1963806,-0.36238098,1.3786563,3.6531277,-1.1615347
1570727053,0.0035858154,-7.977478,0.7338257,-0.9562683,0.15011597,-0.45187378,-0.36202347,2.5246792,3.4443486
1570727053,-4.0300446,-8.20433,1.9991608,-0.4023285,0.112838745,0.058395386,-5.4068546,1.5328627,3.2400494
1570727053,-4.0300446,-8.20433,1.9991608,-0.4023285,0.112838745,0.058395386,-5.4068546,1.5328627,3.2400494
1570727053,0.42915344,-9.621094,-0.2956848,-0.46517944,0.15330505,0.09674072,-0.729081,0.72155094,1.4456383
1570727053,0.16459656,-11.0707855,-0.58358765,-0.35972595,-0.3164673,-0.04386902,-0.47537833,-0.6322441,0.89662755
1570727053,-0.61950684,-15.242081,-5.2995605,-1.2481537,1.8183136,-0.14720154,-1.2720065,-4.750188,-3.1154943
1570727053,-0.61950684,-15.242081,-5.2995605,-1.2481537,1.8183136,-0.14720154,-1.2720065,-4.750188,-3.1154943
1570727053,-0.74160767,-19.612701,-3.344101,-2.511551,1.8119354,1.1268616,-2.651988,-9.577445,-0.0845387
1570727053,-0.74160767,-19.612701,-3.344101,-2.511551,1.8119354,1.1268616,-2.651988,-9.577445,-0.0845387
1570727053,6.8450165,-12.094315,-1.411377,-1.7296448,-1.1676178,0.82751465,5.9508677,-2.9401064,1.3965499
1570727053,6.151306,-10.660187,1.5987244,-1.2556,-0.70635986,0.038146973,6.352282,-1.0587473,6.0514774
1570727053,-0.73083496,-7.7536163,0.47225952,-0.11576843,-0.3367157,0.7380371,-1.0532907,1.0374575,4.8170505
1570727053,-0.73083496,-7.7536163,0.47225952,-0.11576843,-0.3367157,0.7380371,-1.0532907,1.0374575,4.8170505
1570727053,1.4496918,-3.8211517,2.5157013,0.9345703,-0.5731964,-0.057724,1.90169,5.79922,6.831359
1570727053,1.4496918,-3.8211517,2.5157013,0.9345703,-0.5731964,-0.057724,1.90169,5.79922,6.831359
1570727054,1.3449402,-4.890152,1.9381104,1.7889252,-0.38038635,-0.29208374,1.5639005,4.8905754,5.6585655
1570727054,1.7381897,-4.893753,1.1953125,1.7857208,-0.31860352,-0.29634094,1.7943456,4.895829,5.0743065
1570727054,2.3582916,-4.0180664,0.20410156,1.2275238,-0.0011444092,-0.7160492,2.67544,5.9298964,2.8277907
1570727054,1.572998,-5.6389465,2.1218567,1.00914,0.7839508,-1.141098,1.7245717,5.174411,4.0653048
1570727054,-1.9548645,-12.777847,4.546585,1.3979645,4.323822,-0.7533417,-2.694292,-2.7991781,7.013343
1570727054,1.0761871,-13.530228,-19.612701,2.1362,3.8721466,0.014724731,0.31716686,-3.0971346,-14.861824
1570727054,0.8373718,-9.179367,-6.1375427,0.56492615,-2.717575,0.42910767,-0.18310499,0.8180914,-7.2745543
1570727054,3.2549133,-17.328033,-4.5005035,-0.061447144,0.1565094,0.6016846,2.8167908,-6.502695,-3.8229756
1570727054,3.2549133,-17.328033,-4.5005035,-0.061447144,0.1565094,0.6016846,2.8167908,-6.502695,-3.8229756
1570727054,9.694717,-19.607315,4.2880096,-0.2766266,-1.5202179,-0.0033874512,8.253872,-9.242666,7.1825037
1570727054,9.694717,-19.607315,4.2880096,-0.2766266,-1.5202179,-0.0033874512,8.253872,-9.242666,7.1825037
1570727054,-2.629425,-14.735718,3.5206757,-1.8510895,2.8729248,-1.0558777,-2.8449347,-3.5159397,5.034253
1570727054,-2.6671448,-14.652512,2.059616,0.8983612,-0.22911072,0.3140564,-4.965678,-5.2839537,5.077264
1570727054,-2.6671448,-14.652512,2.059616,0.8983612,-0.22911072,0.3140564,-4.965678,-5.2839537,5.077264
1570727054,-0.12748718,-10.742783,1.0396881,1.4799957,-2.2169037,0.28315735,-0.97324145,-0.59159374,2.4487123
1570727054,-0.36871338,-9.333801,2.158371,1.8709412,-1.9974518,0.3343048,-1.006269,0.7954302,3.3098707
1570727054,0.37409973,-6.9048767,1.012146,2.758316,0.11495972,0.20965576,-0.33373877,3.632948,1.4973704
1570727054,0.37409973,-6.9048767,1.012146,2.758316,0.11495972,0.20965576,-0.33373877,3.632948,1.4973704
1570727054,0.45788574,-8.781937,-8.429382,-1.4846344,-1.6597748,-0.4337616,0.08993858,2.3210402,-12.39191
1570727054,0.45788574,-8.781937,-8.429382,-1.4846344,-1.6597748,-0.4337616,0.08993858,2.3210402,-12.39191
1570727054,-1.5173187,-9.498398,1.877655,-1.032959,-0.90449524,-0.019363403,-2.7014318,-0.21502876,1.7956767
1570727054,0.17118835,-6.827072,3.178299,-1.6209869,-0.6893158,-0.020431519,-0.6868593,3.5405197,3.210123
1570727054,1.2653351,-8.711899,3.7894287,-0.8540039,0.18527222,-0.36026,0.5137442,1.6690197,4.998667
1570727054,1.2653351,-8.711899,3.7894287,-0.8540039,0.18527222,-0.36026,0.5137442,1.6690197,4.998667
1570727054,-1.9728241,-11.612473,-0.3657074,-0.203125,2.6428375,-0.8161926,-2.3714776,-0.80362225,2.185533
1570727054,-9.206299,-18.806458,-11.341339,-0.48754883,1.1951447,-0.64894104,-8.66201,-6.9935226,-7.8696823
1570727054,-3.241745,-19.612701,-4.8907623,-2.9802704,1.7075348,1.1066132,-4.7652674,-7.463072,-2.0736182
1570727054,-3.241745,-19.612701,-4.8907623,-2.9802704,1.7075348,1.1066132,-4.7652674,-7.463072,-2.0736182
1570727054,10.213669,-19.612701,-3.2537231,-2.4774628,-1.5830688,1.7457733,7.7064657,-9.62646,-3.2041056
1570727054,4.2197876,-9.047089,5.6461334,-1.7466888,0.66571045,0.10739136,5.3177476,-0.22673321,9.814453
1570727054,4.2197876,-9.047089,5.6461334,-1.7466888,0.66571045,0.10739136,5.3177476,-0.22673321,9.814453
1570727054,-0.7541809,-11.383835,-4.675873,-0.01777649,0.6870117,0.32363892,-0.5283047,-1.5651712,-0.3974843
1570727054,-2.3074188,-12.260712,-3.2112274,0.025909424,0.07022095,0.467453,-2.0229497,-2.5639753,0.53868103
1570727055,1.7010803,-7.3867035,1.438324,0.7939606,-0.45495605,0.8935547,1.6458212,1.4768639,5.509076
1570727055,1.9584503,-5.5090637,1.6232758,0.86320496,0.015899658,0.65174866,2.4076128,3.7499704,5.743021
1570727055,0.87628174,-4.123413,1.6837158,0.9516144,0.40151978,0.2874298,1.421799,5.4340496,5.417082
1570727055,2.2559357,-4.4699707,1.1366425,2.0829315,-0.74256897,-0.0811615,2.544344,5.634368,4.397793
1570727055,2.2559357,-4.4699707,1.1366425,2.0829315,-0.74256897,-0.0811615,2.544344,5.634368,4.397793
1570727055,-0.4405365,-12.23497,2.3738556,1.2669373,-0.50502014,-1.5160675,0.8182151,0.081214905,3.3767211
1570727055,-0.4405365,-12.23497,2.3738556,1.2669373,-0.50502014,-1.5160675,0.8182151,0.081214905,3.3767211
1570727055,0.15982056,-7.229889,5.111618,0.55747986,3.0273895,-0.4859619,-0.34200588,2.5497274,6.1584353
1570727055,-1.9303284,-10.797256,-18.845367,-0.41937256,-1.6842651,0.6112671,-4.084259,-1.8354435,-19.262894
1570727055,-0.7757263,-10.120285,-15.942398,-0.4342804,-2.2275543,0.5899658,-4.084259,-1.8354435,-19.262894
1570727055,0.19572449,-15.029007,-4.656128,0.35188293,-3.6624603,-0.002319336,0.88589513,-1.8606558,-5.935271
1570727055,6.930023,-12.828735,3.9318848,-2.5680084,-0.8054199,0.94789124,5.6486993,-2.5379553,4.2855873
1570727055,6.930023,-12.828735,3.9318848,-2.5680084,-0.8054199,0.94789124,5.6486993,-2.5379553,4.2855873
1570727055,1.0336914,-12.050018,-1.493988,0.5319061,1.8843689,-0.29847717,1.4236977,-3.0750256,2.0601106
1570727055,4.2562866,-15.006851,0.61172485,-2.2186127,3.6324615,-1.3605347,3.5573194,-3.0378008,0.9801805
1570727055,1.6681671,-18.939926,2.4678192,-1.2971497,3.2510986,-1.4169922,2.7207434,-8.410245,4.0269976
1570727055,-2.6976624,-14.795563,0.07362366,1.2062225,-0.4751892,0.030700684,-3.8153749,-4.8853188,2.2897878
1570727055,-2.6120758,-12.23497,0.07241821,1.4160767,-2.1380768,0.2821045,-3.459882,-2.2289505,1.271256
1570727055,-0.43275452,-9.549271,1.5735931,1.9060974,-1.408371,0.4152527,-1.3874271,0.64249325,2.5042372
1570727055,0.99838257,-7.8446045,-5.412689,2.2533722,-0.5923767,-0.028961182,0.24409592,2.680891,-4.5377045
1570727055,0.99838257,-7.8446045,-5.412689,2.2533722,-0.5923767,-0.028961182,0.24409592,2.680891,-4.5377045
1570727055,0.7799072,-6.154892,-8.279755,0.110061646,-0.9385834,-0.13868713,0.2949223,3.909421,-10.478811
1570727055,0.08200073,-5.7418976,-4.2401276,-0.7655792,-1.2123566,-0.16210938,-0.3881384,4.5322275,-6.0066156
1570727055,-2.0344696,-7.577652,-3.272873,-0.7847595,-1.1441803,-0.06304932,-2.5985394,3.3864279,-2.8904014
1570727055,-0.1993103,-8.950729,0.99897766,-0.9562683,-0.73405457,-0.042800903,-1.2217901,1.3861275,0.07246084
1570727055,1.3377533,-5.388153,1.6508026,-1.0585327,-1.0664215,-0.12908936,0.7047023,4.6828814,1.3167708
1570727055,0.6488342,-6.3194885,5.6078186,-1.3397675,-0.3399048,-0.32936096,-0.1977477,4.255539,5.2342677
1570727055,0.25857544,-12.5928955,4.625,-0.6729126,3.257492,-0.981308,-0.4711318,-1.92591,5.8692255
1570727055,-4.6740875,-14.559143,-7.087433,0.5031433,3.414093,-0.9078064,-4.8548117,-3.930544,-3.3574388
1570727055,0.33877563,-18.372513,-0.83976746,-2.433792,1.4348297,0.6996765,-1.4900451,-7.2171326,0.038325667
1570727055,0.52552795,-19.067429,-0.7835083,-2.4369812,1.6351013,0.70713806,-1.4900451,-7.2171326,0.038325667
1570727055,12.31218,-16.442184,-5.167282,-1.9309845,-3.3173218,0.48875427,12.737588,-6.9356136,-3.8297567
1570727055,12.31218,-16.442184,-5.167282,-1.9309845,-3.3173218,0.48875427,12.737588,-6.9356136,-3.8297567
1570727056,2.2098541,-10.168777,11.453262,-1.4857025,-1.5830688,-0.2931366,4.18216,-0.5578098,9.84263
1570727056,-3.3548737,-11.659164,10.581772,-0.34480286,0.16822815,0.09567261,-1.9262561,-1.3946314,16.220453
1570727056,-4.123413,-8.8172455,-3.248932,0.4711914,-0.15560913,1.2056885,-4.968729,0.18118286,1.1116471
1570727056,0.91937256,-4.2149963,3.095108,0.70022583,-0.3143463,0.39076233,1.1225997,5.397662,6.6681476
1570727056,1.3892365,-3.1932678,3.3010101,1.3947754,-0.30155945,-0.47850037,1.7132127,6.819333,6.027071
1570727056,1.3892365,-3.1932678,3.3010101,1.3947754,-0.30155945,-0.47850037,1.7132127,6.819333,6.027071
1570727056,0.8457489,-7.653061,2.6581573,1.0347137,0.64653015,-0.7501373,1.082678,3.8926659,4.06302
1570727056,0.8457489,-7.653061,2.6581573,1.0347137,0.64653015,-0.7501373,1.082678,3.8926659,4.06302
1570727056,1.2868805,-10.674545,2.5683746,1.5076904,3.0582886,0.18621826,0.030901372,0.20386028,3.596631
1570727056,1.2868805,-10.674545,2.5683746,1.5076904,3.0582886,0.18621826,0.030901372,0.20386028,3.596631
1570727056,9.9401245,-8.31926,-19.612701,2.7657623,2.1048737,0.9148712,7.854526,-0.55287457,-19.691004
1570727056,10.315414,-7.5728607,-19.6109,2.4770813,1.4966125,0.83177185,7.854526,-0.55287457,-19.691004
1570727056,6.016632,-10.890625,-3.572754,-0.5014038,-2.793213,0.690094,5.3261414,-0.5786514,-4.718729
1570727056,3.9582214,-18.134277,4.3185425,-1.3046112,-3.5207825,-0.4337616,3.7708707,-8.371901,4.448176
1570727056,3.9582214,-18.134277,4.3185425,-1.3046112,-3.5207825,-0.4337616,3.7708707,-8.371901,4.448176
1570727056,1.414978,-10.115509,6.300934,-1.4793091,-0.73831177,-0.50512695,1.3897226,-0.012338638,6.916008
1570727056,-1.6932983,-14.655502,0.71406555,-0.5109863,5.312393,-0.8790436,-2.8012686,-2.5733433,3.7149835
1570727056,-5.7508698,-17.450134,-0.81822205,-1.3770447,-2.2648315,-0.24095154,-4.099392,-7.6652184,-4.734887
1570727056,-6.4332275,-16.804901,1.5514374,-1.4505463,-2.4384766,0.1340332,-7.1921396,-6.9585333,1.2408105
1570727056,-0.6751709,-9.522339,6.6439056,0.27198792,-0.9716034,1.0906372,-2.9302275,0.3831272,9.118727
1570727056,1.1258698,-10.851715,1.9734192,1.4299316,-1.7684174,-0.31124878,1.0690557,-0.5261593,2.6947436
1570727056,1.1258698,-10.851715,1.9734192,1.4299316,-1.7684174,-0.31124878,1.0690557,-0.5261593,2.6947436
1570727056,-0.08918762,-9.15123,2.5468292,2.1180878,-0.48690796,-0.2888794,-0.358348,1.2261124,3.0820482
1570727056,-1.414978,-8.786118,-0.82121277,2.344986,0.8159027,-0.1599884,-1.89274,1.4862823,-0.23988664
1570727056,0.092178345,-8.562271,-6.4858856,-1.0542755,-1.2741394,-0.13761902,-0.88077605,1.9621191,-8.539493
1570727056,0.092178345,-8.562271,-6.4858856,-1.0542755,-1.2741394,-0.13761902,-0.88077605,1.9621191,-8.539493
1570727056,1.5245056,-7.9589233,-0.34477234,-1.046814,-0.2749176,0.0871582,1.0096841,2.455721,-0.78887343
1570727056,1.7782898,-7.970291,-0.23822021,-1.2353668,-0.14816284,0.009399414,0.8427717,2.4117174,-0.26028672
1570727056,0.3657074,-8.798691,2.3265686,-1.5208588,0.21083069,-0.23562622,-0.21940261,1.3491745,2.0389361
1570727056,-0.31663513,-9.451706,0.37109375,-0.33840942,0.4633026,-0.4699707,-0.9293424,1.2627611,1.3744619
1570727056,-0.31663513,-9.451706,0.37109375,-0.33840942,0.4633026,-0.4699707,-0.9293424,1.2627611,1.3744619
1570727056,-2.8293457,-14.651321,-6.4811096,-0.5045929,-1.3007812,0.09461975,-4.354105,-3.836402,-6.145893
1570727056,-1.1198883,-15.278595,-5.4611816,-1.9480286,1.2633209,0.33003235,-2.1924179,-4.769285,-2.0868044
1570727056,-1.1198883,-15.278595,-5.4611816,-1.9480286,1.2633209,0.33003235,-2.1924179,-4.769285,-2.0868044
1570727057,1.5083466,-19.60791,-4.1886597,-2.2676086,0.6529236,0.4131317,-0.22660452,-9.353974,-2.9055326
1570727057,6.293152,-14.075516,-1.7962494,-1.6774445,-0.4389801,0.547348,5.4115124,-5.9539537,0.14277887
1570727057,3.9151154,-9.002197,1.529892,-1.0489502,0.040390015,-0.047073364,3.628342,0.6359377,4.8684864
1570727057,-0.8822632,-10.077789,-2.4684296,-0.22016907,0.438797,0.30873108,-1.565834,-0.24966812,1.0634494
1570727057,-0.6380615,-9.966461,-1.6094971,-0.1988678,0.2118988,0.39501953,-1.5387932,-0.25997162,1.5625911
1570727057,0.31184387,-6.807907,2.3852234,0.6043396,0.40151978,0.3374939,0.15496868,2.960144,5.9234467
1570727057,0.31184387,-6.807907,2.3852234,0.6043396,0.40151978,0.3374939,0.15496868,2.960144,5.9234467
1570727057,1.2443848,-5.613205,1.7585449,1.2424316,0.5932617,0.23522949,0.6360334,4.1319685,4.8587184
1570727057,2.4079742,-5.549164,1.4335327,1.6408539,0.33547974,0.052001953,1.8837295,4.4222145,4.2915764
1570727057,2.9825745,-6.055542,0.8738861,1.8112946,0.096847534,-0.41778564,2.5527115,4.2781115,3.3619964
1570727057,4.044403,-8.222885,0.5991516,1.8784027,-0.8480377,-1.0867615,3.2077215,2.634719,2.237995
1570727057,-0.54707336,-19.416977,2.182312,1.4576263,-0.63072205,-0.8982086,-0.88308406,-9.275572,2.975618
1570727057,0.12988281,-13.451828,-19.612701,0.91859436,-1.7886658,0.6027374,-0.04513055,-3.5193596,-19.537771
1570727057,0.12988281,-13.451828,-19.612701,0.91859436,-1.7886658,0.6027374,-0.04513055,-3.5193596,-19.537771
1570727057,-2.3427277,-8.079239,0.49919128,-0.012435913,-1.4520416,0.29914856,-3.6495318,1.6528435,0.21869713
1570727057,-2.3427277,-8.079239,0.49919128,-0.012435913,-1.4520416,0.29914856,-3.6495318,1.6528435,0.21869713
1570727057,1.5448608,-6.893509,1.454483,-1.0915527,-0.15028381,0.47598267,1.3481233,3.1192646,1.1646916
1570727057,1.7441711,-6.498459,2.8933868,-0.24893188,-1.331665,0.04348755,1.4859494,4.261121,3.2673674
1570727057,1.7441711,-6.498459,2.8933868,-0.24893188,-1.331665,0.04348755,1.4859494,4.261121,3.2673674
1570727057,2.3744507,-13.267471,-0.9612732,1.0261841,-0.33032227,-0.44548035,1.5328054,-2.8615637,-0.329244
1570727057,2.3744507,-13.267471,-0.9612732,1.0261841,-0.33032227,-0.44548035,1.5328054,-2.8615637,-0.329244
1570727057,3.8684387,-17.0952,3.5164795,-0.08807373,-1.0025024,-0.26437378,2.561476,-6.377206,2.4059024
1570727057,3.8684387,-17.0952,3.5164795,-0.08807373,-1.0025024,-0.26437378,2.561476,-6.377206,2.4059024
1570727057,1.0480652,-19.612701,1.9578552,0.8195343,-0.008605957,-0.7650604,1.092612,-9.181633,2.0603728
1570727057,-3.7104187,-14.757263,-0.3262024,0.9111481,0.82762146,-0.22177124,-4.7138877,-4.768628,-0.691514
1570727057,-2.0350647,-8.882492,0.16220093,-0.76664734,0.48780823,1.0373688,-3.1394415,1.2858868,-0.6101378
1570727057,-2.0350647,-8.882492,0.16220093,-0.775177,0.40045166,1.0757141,-3.1394415,1.2858868,-0.6101378
1570727057,1.3431396,-7.56987,-0.09815979,-0.21058655,-2.4512634,0.82858276,0.66185033,3.1851149,-0.4646964
1570727057,3.0669708,-7.7859497,6.695389,2.0115662,-6.5610504,0.0637207,2.866978,2.8412714,5.411206
1570727057,3.0669708,-7.7859497,6.695389,2.0115662,-6.5610504,0.0637207,2.866978,2.8412714,5.411206
1570727057,2.9191284,-7.811676,6.466736,1.9391174,-4.5881805,0.15213013,2.403561,2.2981968,5.2575536
1570727057,3.2764587,-8.695145,2.475006,1.0411072,-1.5852051,-0.34747314,3.2366128,2.3018856,1.3227863
1570727057,0.22445679,-12.664124,1.4478912,0.36997986,-0.29942322,-0.59355164,-0.39893633,-2.2912006,-0.45408309
1570727058,-0.3357849,-11.080963,1.4873962,0.2240448,0.124557495,-0.44866943,-1.2701629,-1.5237684,-0.70729256
1570727058,-3.7583008,-14.154526,0.5608368,1.7995758,2.2881012,-0.7266998,-4.5036902,-3.632244,-1.3167839
1570727058,-3.909134,-14.232925,0.2675476,1.754837,2.3722534,-0.6638489,-4.5036902,-3.632244,-1.3167839
1570727058,-5.8532257,-17.204132,-3.5326385,-0.73043823,0.036132812,0.4855652,-7.5685906,-9.311631,-7.664827
1570727058,-5.8532257,-17.204132,-3.5326385,-0.73043823,0.036132812,0.4855652,-7.5685906,-9.311631,-7.664827
1570727058,3.8079834,-9.016571,0.98101807,-0.61431885,-3.672058,0.92977905,2.9529326,1.0290947,-1.6595635
1570727058,3.9743805,-8.920792,1.0666199,-0.5557251,-3.7125397,0.86053467,3.2512171,1.2320576,-1.4203999
1570727058,9.202118,-7.7422485,-3.2471313,-0.6792908,0.18313599,0.029632568,7.7003136,1.7636433,-3.0226653
1570727058,8.098389,-7.341812,-3.6146393,-2.591446,2.793045,-0.7650604,7.72556,3.1727219,-6.180434
1570727058,5.2917786,-10.089767,-0.40402222,-3.7973328,2.4862366,-1.8857117,4.7044473,1.216671,-1.9610285
1570727058,8.210312,-12.49295,5.2839966,-1.4942322,-4.5540924,-0.40393066,7.048061,-2.860898,6.299885
1570727058,8.210312,-12.49295,5.2839966,-1.4942322,-4.5540924,-0.40393066,7.048061,-2.860898,6.299885
1570727058,-0.5991516,-13.0047,7.044342,-0.99568176,-2.0208893,-0.35598755,-1.3069055,-2.3803196,9.070534
1570727058,-0.6177063,-9.655823,-0.5165558,-0.72190857,-1.9868011,-0.0342865,-2.2020793,0.43002605,1.5278497
1570727058,-0.6177063,-9.655823,-0.5165558,-0.72190857,-1.9868011,-0.0342865,-2.2020793,0.43002605,1.5278497
1570727058,0.63446045,-7.2747803,1.0450745,-0.66864014,-0.5401764,-0.2707672,-0.9531299,2.56118,3.7755444
1570727058,0.63446045,-7.2747803,1.0450745,-0.66864014,-0.5401764,-0.2707672,-0.9531299,2.56118,3.7755444
1570727058,1.99617,-6.9240265,-0.41778564,0.06851196,-0.25468445,-0.48168945,0.47773242,3.3556347,2.291982
1570727058,1.99617,-6.9240265,-0.41778564,0.06851196,-0.25468445,-0.48168945,0.47773242,3.3556347,2.291982
1570727058,1.9967651,-7.7697906,-0.3932495,0.6000824,-0.7670746,-0.29953003,0.25873172,2.2651787,2.3474884
1570727058,2.5761566,-7.965515,-1.3227997,1.089035,-1.1132812,-0.42311096,0.73564756,2.003111,1.4355567
1570727058,3.1256256,-10.037094,-5.3893433,1.4991608,-1.8110352,-0.016174316,1.1495031,0.4058981,-2.675713
1570727058,3.186081,-10.262146,-5.9076996,1.4736023,-1.8973236,-0.0055236816,1.1495031,0.4058981,-2.675713
1570727058,1.4682465,-14.910492,-6.989273,1.1550903,-3.464325,0.29382324,0.0032106638,-4.582757,-5.513758
1570727058,-1.1516113,-10.526703,-2.277481,0.5510864,-0.4943695,0.5548096,-2.3546772,-0.12642002,-1.1336085
1570727058,-1.1516113,-10.526703,-2.277481,0.5510864,-0.4943695,0.5548096,-2.3546772,-0.12642002,-1.1336085
1570727058,5.072708,-15.646713,-0.7110748,0.71406555,-0.5071564,-0.69155884,3.4904156,-3.0869503,0.23766875
1570727058,2.5713654,-18.627487,-0.1376648,1.0006256,-1.1846619,-0.5605316,2.1900346,-9.156365,0.64851326
1570727058,2.961029,-6.4918823,-1.4269409,1.3574829,-2.1188965,0.63256836,0.9599824,0.8937416,-0.13721943
1570727058,3.2028503,-3.8031921,1.7561493,-0.41511536,-1.7002411,-0.0662384,1.9138021,6.872818,2.270138
1570727058,3.2028503,-3.8031921,1.7561493,-0.41511536,-1.7002411,-0.0662384,1.9138021,6.872818,2.270138
1570727058,0.44651794,-16.132736,6.681015,0.037628174,-1.234726,-0.6361542,-0.30910134,-4.794119,6.8700986
1570727058,0.165802,-16.446976,6.7857666,0.047210693,-1.0514984,-0.55625916,-0.9820914,-5.591593,7.264864
1570727059,0.42556763,-10.669754,10.600922,0.80674744,2.0846405,0.04135132,-0.99065375,-0.99930096,10.465658
1570727059,-0.5201416,-9.543884,-0.9618683,1.0027618,2.1325684,0.27677917,-1.8711791,0.8941393,-0.96952754
1570727059,-0.4159851,-10.068222,-1.1474152,0.6799774,1.4220428,0.47384644,-1.9458025,0.6739912,-1.6207162
1570727059,-1.3311768,-12.268494,-2.3612823,1.581192,-4.3825836,0.80088806,-2.643442,-2.0379238,-3.6197212
1570727059,1.3503265,-9.15004,-0.032913208,0.06211853,-4.6180115,1.184372,0.32235932,1.1826019,-1.3510681
1570727059,1.3503265,-9.15004,-0.032913208,0.06211853,-4.6180115,1.184372,0.32235932,1.1826019,-1.3510681
1570727059,1.6352386,-9.673172,0.99838257,0.03337097,-4.513611,0.8711853,0.8770233,0.8619137,-0.11176258
1570727059,0.46566772,-10.697296,2.1242523,0.37532043,-3.624115,0.3108673,-0.06619823,-0.16639614,1.0890832
1570727059,-0.2238617,-10.269333,1.9309235,0.43389893,-1.3327332,0.19049072,-0.953473,-2.3555756E-4,0.8721268
1570727059,-0.2238617,-10.269333,1.9309235,0.43389893,-1.3327332,0.19049072,-0.953473,-2.3555756E-4,0.8721268
1570727059,-0.17417908,-9.977829,1.5813751,0.530838,-0.5455017,0.15640259,-0.9696812,0.50318813,0.28919482
1570727059,0.14724731,-11.215637,1.4730377,0.58729553,-0.32392883,0.22457886,-0.55463785,-0.62869835,0.030174613
1570727059,-0.039505005,-11.2048645,1.2856903,0.7034149,-0.01499939,0.21179199,-0.55307823,-0.8569622,-0.40533233
1570727059,-0.3256073,-12.791626,-1.1282654,0.7023468,-0.16200256,0.14680481,-0.6696272,-1.9147129,-2.6900244
1570727059,-2.4103699,-16.069885,-1.4293365,-0.5237732,-0.31539917,0.29701233,-2.396603,-5.1989326,-3.4845462
1570727059,5.0589447,-11.26651,-4.256897,-1.7988892,-1.727951,0.9276428,3.585465,-1.0670748,-4.8359427
1570727059,5.0589447,-11.26651,-4.256897,-1.7988892,-1.727951,0.9276428,3.585465,-1.0670748,-4.8359427
1570727059,6.7785797,-13.511673,7.147293,-3.4319458,-0.71380615,-1.572525,6.3305736,-3.1597824,5.7515054
1570727059,6.7785797,-13.511673,7.147293,-3.4319458,-0.71380615,-1.572525,6.3305736,-3.1597824,5.7515054
1570727059,7.807495,-10.332184,7.451355,-1.2928925,-3.066986,-0.080093384,7.7368183,-0.2704649,7.6648493
1570727059,3.122635,-10.626663,5.617401,-1.1853027,-2.2456665,-0.28248596,3.0135243,-0.39986038,8.768585
1570727059,-3.5523987,-9.075226,1.8507233,-1.0809021,-0.2195282,-0.5211029,-4.509744,1.0608387,6.153327
1570727059,-3.5523987,-9.075226,1.8507233,-1.0809021,-0.2195282,-0.5211029,-4.509744,1.0608387,6.153327
1570727059,-0.1478424,-8.47966,2.4181366,-0.458786,-0.15135193,0.34707642,-0.96973234,1.8325806,5.285103
1570727059,-0.1478424,-8.47966,2.4181366,-0.458786,-0.15135193,0.34707642,-0.96973234,1.8325806,5.285103
1570727059,1.3712769,-7.4172363,1.8285675,0.70022583,0.31097412,-0.24307251,0.4844545,2.649786,4.7667656
1570727059,1.4921875,-7.4172363,1.8285675,0.70022583,0.31097412,-0.24307251,0.4844545,2.649786,4.7667656
1570727059,1.3760681,-8.873505,-0.4004364,1.9870605,-0.5785217,-0.52749634,0.3664521,1.768323,1.7643261
1570727059,1.3760681,-8.873505,-0.4004364,1.9870605,-0.5785217,-0.52749634,0.3664521,1.768323,1.7643261
1570727059,-1.083374,-12.0984955,-1.8788452,1.1891785,-0.68292236,0.09674072,-2.4550242,-2.9207544,-0.46375024
1570727059,0.28909302,-9.118317,-5.3271027,1.165741,-0.23764038,0.45573425,-0.8934809,0.88534164,-2.891325
1570727059,0.28909302,-9.118317,-5.3271027,1.165741,-0.23764038,0.45573425,-0.8934809,0.88534164,-2.891325
1570727059,2.363083,-5.020035,-1.3473358,0.21446228,-0.6371155,0.18089294,1.85063,4.814554,-1.4962645
1570727059,2.363083,-5.020035,-1.3473358,0.21446228,-0.6371155,0.18089294,1.85063,4.814554,-1.4962645
1570727060,1.0845795,-8.374924,2.2433624,-0.8678436,0.97036743,-0.12164307,0.46365368,2.333624,2.619087
1570727060,1.0845795,-8.374924,2.2433624,-0.8678436,0.97036743,-0.12164307,0.46365368,2.333624,2.619087
1570727060,0.52433777,-10.825989,1.8339539,-0.34480286,1.598877,-0.15785217,-0.2528869,0.18365383,2.7520175
1570727060,-0.65960693,-19.60373,-7.3148804,1.4150085,-0.15667725,0.116989136,-1.9772577,-9.250472,-7.0083804
1570727060,-0.65960693,-19.60373,-7.3148804,1.4150085,-0.15667725,0.116989136,-1.9772577,-9.250472,-7.0083804
1570727060,6.7707977,-11.40657,-0.051467896,-0.9615936,-3.673111,0.9904938,3.7192965,-1.5148706,-1.5066373
1570727060,3.5679626,-12.277466,-1.4287415,-1.0894318,2.6140747,-1.7898407,3.9372237,-2.4089222,1.1388755
1570727060,2.8790283,-12.090118,-2.0697937,-1.3408203,2.9240723,-1.8952942,3.9372237,-2.4089222,1.1388755
1570727060,-6.3907166,-18.888458,0.80804443,-1.6497498,2.445755,-1.077179,-7.4938455,-8.417188,2.2988462
1570727060,-0.18675232,-11.182114,2.2044678,0.66825867,-1.7162323,0.8765106,-2.092109,-1.2908001,4.0814424
1570727060,-0.18675232,-11.182114,2.2044678,0.66825867,-1.7162323,0.8765106,-2.092109,-1.2908001,4.0814424
1570727060,0.69311523,-7.902069,2.2020721,1.4842529,-1.8131714,0.8392334,0.08201963,2.3841429,3.9147608
1570727060,1.3347626,-5.8406525,1.2354126,1.7345886,-0.9343262,0.24906921,0.6964403,4.599865,1.8302419
1570727060,1.3347626,-5.8406525,1.2354126,1.7345886,-0.9343262,0.24906921,0.6964403,4.599865,1.8302419
1570727060,-4.443039,-14.246704,-19.551056,2.7977295,-1.0131531,0.030700684,-1.7559534,-2.574727,-19.434967
1570727060,-4.443039,-14.246704,-19.551056,2.7977295,-1.0131531,0.030700684,-1.7559534,-2.574727,-19.434967
1570727060,0.6943207,-8.585602,4.4891357,-1.5006104,-0.08103943,-0.18128967,0.98312724,1.4291296,4.9476976
1570727060,0.6943207,-8.585602,4.4891357,-1.5006104,-0.08103943,-0.18128967,0.98312724,1.4291296,4.9476976
1570727060,0.3818817,-7.657852,5.621582,-1.4569397,0.52189636,-0.6148529,-0.17993283,3.056819,6.1820126
1570727060,0.3818817,-7.657852,5.621582,-1.4569397,0.52189636,-0.6148529,-0.17993283,3.056819,6.1820126
1570727060,-4.902725,-13.7391205,-11.446075,0.2517395,0.6955261,-0.19619751,-5.90779,-3.011158,-8.454461
1570727060,-4.902725,-13.7391205,-11.446075,0.2517395,0.6955261,-0.19619751,-5.90779,-3.011158,-8.454461
1570727060,1.367691,-14.589661,-0.6081238,-2.1046295,1.791687,0.24694824,-0.16325372,-4.2842007,1.6806314
1570727060,6.0573273,-17.993027,-7.7739716,-2.9728088,1.9024811,0.013656616,5.0868187,-6.8123617,-4.750835
1570727060,6.0573273,-17.993027,-7.7739716,-2.9728088,1.9024811,0.013656616,5.0868187,-6.8123617,-4.750835
1570727060,4.3616333,-12.0434265,0.8439636,-1.7903748,-0.48690796,-0.2622528,4.541809,-3.3299904,4.270527
1570727060,3.8809967,-11.767502,1.2820892,-1.7509613,-0.48690796,-0.2899475,3.487955,-2.5046215,4.8596287
1570727060,-0.9828186,-8.560471,2.8610687,0.056793213,0.04359436,0.4940796,-2.4135175,0.16533756,8.155436
1570727060,-0.9828186,-8.560471,2.8610687,0.056793213,0.04359436,0.4940796,-2.4135175,0.16533756,8.155436
1570727060,1.2437897,-4.8440704,1.7028809,1.071991,-0.6243286,0.2639923,0.2898389,4.1759987,5.9776697
1570727060,1.6142883,-3.6104584,1.138443,1.278656,-0.7723999,0.024307251,0.8828707,5.8106833,5.253616
1570727060,1.2066803,-2.7281952,1.0630188,1.4746704,0.50164795,-0.52005005,0.2723928,7.178281,4.55426
1570727060,1.2060852,-2.7527313,0.98760986,1.454422,0.59646606,-0.5669098,0.2723928,7.178281,4.55426
1570727061,-2.5599976,-13.099274,3.1603394,0.9196625,3.6186218,-0.7171173,-3.0902236,-0.9961548,5.331394
1570727061,-2.5599976,-13.099274,3.1603394,0.9196625,3.6186218,-0.7171173,-3.0902236,-0.9961548,5.331394
1570727061,7.1329193,-12.798798,-17.413025,1.2062225,2.396759,0.6613312,5.4420724,-2.9919653,-16.887005
1570727061,3.6505585,-8.978256,-6.0339813,1.0240631,-1.2741394,1.1929016,1.9059819,0.83703804,-6.189859
1570727061,3.6505585,-8.978256,-6.0339813,1.0240631,-1.2741394,1.1929016,1.9059819,0.83703804,-6.189859
1570727061,8.048111,-16.198563,0.90501404,-0.46731567,-1.2613525,0.40141296,6.513757,-4.289481,0.8230072
1570727061,8.048111,-16.198563,0.90501404,-0.46731567,-1.2613525,0.40141296,6.513757,-4.289481,0.8230072
1570727061,0.12988281,-17.081436,-0.4159851,-2.0289917,0.9096527,-1.8122101,2.1301756,-6.110694,0.34202874
1570727061,0.12988281,-17.081436,-0.4159851,-2.0289917,0.9096527,-1.8122101,2.1301756,-6.110694,0.34202874
1570727061,-6.8964996,-16.047134,1.5394745,-1.4175262,0.8116455,-0.22070312,-8.693397,-6.373289,4.1140633
1570727061,-4.786606,-13.839676,1.7423859,-0.6729126,-0.70529175,0.42910767,-7.4849644,-4.1707983,3.7805572
1570727061,0.541687,-12.637192,2.8443146,1.8645477,-2.621704,0.5153961,-0.61661804,-2.6867332,5.2294044
1570727061,0.541687,-12.637192,2.8443146,1.8645477,-2.621704,0.5153961,-0.61661804,-2.6867332,5.2294044
1570727061,-0.36332703,-9.463684,2.62883,2.853119,0.6561127,0.15000916,-1.1402602,0.9702425,3.785224
1570727061,-0.36332703,-9.463684,2.62883,2.853119,0.6561127,0.15000916,-1.1402602,0.9702425,3.785224
1570727061,4.5795135,-7.90506,-15.212158,2.249115,2.348816,0.3332367,3.4317398,2.190465,-12.818926
1570727061,1.901001,-6.360199,-2.4756012,-0.8263092,-2.3415375,-0.46678162,1.4596922,4.335374,-4.4270163
1570727061,1.6962891,-6.5164185,-2.4756012,-0.78582764,-2.3415375,-0.46678162,1.4596922,4.335374,-4.4270163
1570727061,1.5502472,-6.6864014,2.4378967,-0.41085815,-0.9918518,-0.31871033,0.720378,4.0904303,3.426034
1570727061,1.1342468,-9.591766,-2.6557617,-0.42895508,-0.5167389,-0.41671753,0.60183,1.4222393,-1.1389134
1570727061,1.1342468,-9.591766,-2.6557617,-0.42895508,-0.5167389,-0.41671753,0.60183,1.4222393,-1.1389134
1570727061,-1.4311371,-9.305664,1.256958,-0.8305664,0.085128784,-0.4337616,-2.5479407,0.9471655,1.6190315
1570727061,-1.7064667,-12.316376,1.5149384,-0.52589417,0.3652954,-0.40925598,-2.9118137,-1.4105539,2.3450665
1570727061,-1.7064667,-12.316376,1.5149384,-0.52589417,0.3652954,-0.40925598,-2.9118137,-1.4105539,2.3450665
1570727061,-2.3654785,-16.194977,-3.3147736,-0.71551514,1.1557312,0.50260925,-4.607379,-6.596669,-2.1567168
1570727061,-2.103302,-15.993271,-3.3099823,-0.7591858,1.1876831,0.5366974,-3.9768314,-5.9978504,-2.30156
1570727061,6.6858063,-17.669205,-7.610565,-1.6305847,1.2345581,0.5622711,4.55487,-7.573778,-5.308032
1570727061,7.1203613,-17.37651,-7.9122314,-1.6295166,0.94906616,0.4951477,4.55487,-7.573778,-5.308032
1570727061,4.9512024,-12.03685,4.7901917,-1.1096649,-2.063507,-0.23348999,4.023878,-2.5064487,6.6175747
1570727061,4.9512024,-12.03685,4.7901917,-1.1096649,-2.063507,-0.23348999,4.023878,-2.5064487,6.6175747
1570727061,-4.040222,-12.125427,-0.7194519,-0.7272339,0.3599701,0.16812134,-5.240485,-2.6730833,2.188396
1570727061,-4.040222,-11.540649,-0.72006226,-0.67503357,0.24172974,0.24588013,-5.240485,-2.6730833,2.188396
1570727061,-0.28909302,-4.368225,2.257141,-0.17436218,-0.4155426,0.12657166,-1.7470443,4.9914627,5.6312823
1570727062,0.5051727,-3.2591095,2.4881744,0.12817383,-0.59877014,0.036026,-0.8156673,6.4320927,5.820801
1570727062,1.5556335,-2.1679535,2.1607666,0.83551025,-0.53697205,-0.41351318,0.43412638,7.674346,5.062888
1570727062,1.5556335,-2.1679535,2.1607666,0.83551025,-0.53697205,-0.41351318,0.43412638,7.674346,5.062888
1570727062,0.9894104,-4.2515106,3.4207153,0.49568176,0.8009949,-0.80659485,-0.53030276,6.6986685,5.789783
1570727062,0.9894104,-4.2515106,3.4207153,0.49568176,0.8009949,-0.80659485,-0.53030276,6.6986685,5.789783
1570727062,0.5458832,-19.612701,-14.954178,4.7088165,6.6599426,0.7380371,0.66348755,-7.9717283,6.722169
1570727062,0.5458832,-19.612701,-14.954178,4.7088165,6.6599426,0.7380371,0.66348755,-7.9717283,6.722169
1570727062,2.004547,-12.07695,2.6222534,1.00914,1.2888794,1.564682,-0.80965877,-0.8875027,3.9810257
1570727062,2.004547,-12.07695,2.6222534,1.00914,1.2888794,1.564682,-0.80965877,-0.8875027,3.9810257
1570727062,14.276627,-14.138367,4.7566833,-0.8540039,-4.8864594,0.9862366,11.428442,-3.0441647,2.5608933
1570727062,1.7938538,-17.080841,-1.6729431,-1.6007538,3.3544312,-2.034851,1.5577183,-6.725363,1.0006685
1570727062,1.7938538,-17.080841,-1.6729431,-1.6007538,3.3544312,-2.034851,1.5577183,-6.725363,1.0006685
1570727062,-3.3578644,-17.437576,9.217072,-2.2793274,3.3725433,-1.7227325,-3.918632,-6.3549366,8.978407
1570727062,-3.8528748,-14.882355,-1.8291626,1.4725342,-0.33244324,0.467453,-6.6656666,-5.837471,-0.37482536
1570727062,-2.5905304,-13.621811,-1.7154388,1.5055542,-1.3071594,0.62298584,-5.157513,-3.8919048,-0.5868044
1570727062,0.20829773,-8.453934,1.4257507,1.2807922,-1.681076,0.64642334,-1.3764521,1.8383875,2.1311107
1570727062,0.20829773,-8.453934,1.4257507,1.2807922,-1.681076,0.64642334,-1.3764521,1.8383875,2.1311107
1570727062,4.620804,-5.8412476,-8.364746,1.7793274,0.14904785,0.22351074,1.3055524,4.119048,-3.5338423
1570727062,3.2046356,-7.5399323,2.1751251,-0.51205444,-0.38464355,-0.6606598,2.1571367,3.2331457,-2.7262917
1570727062,3.2046356,-7.5399323,2.1751251,-0.51205444,-0.38464355,-0.6606598,2.1571367,3.2331457,-2.7262917
1570727062,-1.6986847,-8.033142,1.9955597,-0.49075317,-2.1849365,-0.5338898,-2.6894763,2.767335,1.3014908
1570727062,-1.6986847,-8.033142,1.9955597,-0.49075317,-2.1849365,-0.5338898,-2.6894763,2.767335,1.3014908
1570727062,-1.3090363,-9.849747,-2.3756409,-0.5099182,-0.85336304,-0.30059814,-3.141665,0.072029114,-1.2987695
1570727062,-1.3090363,-9.849747,-2.3756409,-0.5099182,-0.85336304,-0.30059814,-3.141665,0.072029114,-1.2987695
1570727062,1.249176,-12.811966,-2.952057,-1.7924957,0.7594452,-0.27822876,-0.98083055,-1.140708,-1.2941934
1570727062,0.97683716,-15.79155,-3.541626,-2.1046295,1.0140533,-0.30699158,-0.67066705,-3.8247814,-1.627421
1570727062,3.605667,-18.950699,-3.3961792,-2.178131,-0.3164673,0.35772705,0.4128232,-9.266172,-1.056848
1570727062,3.605667,-18.950699,-3.3961792,-2.178131,-0.3164673,0.35772705,0.4128232,-9.266172,-1.056848
1570727062,6.5206146,-13.154938,0.81881714,-0.6068573,-1.8035736,0.338562,5.2242656,-3.741866,4.2174587
1570727062,2.913742,-10.5686035,1.893219,-0.17222595,-0.89598083,0.0594635,1.9421046,-0.80920887,5.3890247
1570727062,0.43873596,-8.449738,0.17297363,1.0677338,-0.25042725,0.8062134,-1.8752308,0.9223089,4.2333326
1570727062,0.43873596,-8.449738,0.17297363,1.0677338,-0.25042725,0.8062134,-1.8752308,0.9223089,4.2333326
1570727062,2.5797577,-6.768402,0.46148682,1.0762634,-0.22166443,0.7391052,1.3320764,2.887373,3.6384745
1570727063,2.1152802,-3.3979645,0.24301147,1.2040863,-0.17692566,-0.15039062,1.6162593,6.8287544,2.5833435
1570727063,2.0099335,-3.4057465,0.24659729,1.1976929,-0.17904663,-0.18235779,1.6162593,6.8287544,2.5833435
1570727063,-0.58477783,-11.279083,2.9328918,0.78863525,1.2729034,-0.7181854,-0.3381431,2.8673935,3.6951745
1570727063,-0.58477783,-11.279083,2.9328918,0.78863525,1.2729034,-0.7181854,-0.3381431,2.8673935,3.6951745
1570727063,-0.7541809,-15.133743,-3.8923798,1.5236664,6.032501,0.22032166,-2.3920033,-3.0718784,-0.021790028
1570727063,-0.7541809,-15.133743,-3.8923798,1.5236664,6.032501,0.22032166,-2.3920033,-3.0718784,-0.021790028
1570727063,1.8094177,-7.8871,-6.2518616,0.78970337,-3.8243866,0.77212524,0.48705196,2.2261095,-7.0488286
1570727063,1.9147644,-7.7697906,-5.8879395,0.8323059,-3.8989563,0.7902374,0.48705196,2.2261095,-7.0488286
1570727063,8.765778,-11.826752,-2.5013428,0.016326904,-1.2272644,1.1470947,5.986182,-0.62256336,-3.05151
1570727063,10.366287,-15.829269,3.8295288,-1.1426849,-1.0142212,-0.32722473,10.341167,-5.624914,3.2794
1570727063,10.366287,-15.829269,3.8295288,-1.1426849,-1.0142212,-0.32722473,10.341167,-5.624914,3.2794
1570727063,2.072174,-12.950241,3.9582214,-1.1980743,0.309906,-0.7650604,0.9582863,-1.7896461,4.783345
1570727063,2.794632,-14.389755,3.7098083,-1.157608,0.42282104,-0.8193817,0.9646441,-2.3342876,4.7149005
1570727063,-6.427826,-12.620438,-2.9957428,-1.2833099,1.2398834,0.10739136,-8.497998,-1.812149,-3.9761875
1570727063,-6.249466,-12.932877,-1.8860321,-1.4004822,1.1812897,0.23416138,-8.497998,-1.812149,-3.9761875
1570727063,-0.077804565,-10.837952,3.4039612,0.9356384,-1.0333862,0.8115387,-1.768343,-0.64413166,4.4862237
1570727063,-0.077804565,-10.837952,3.391388,0.9356384,-1.0333862,0.8115387,-1.768343,-0.64413166,4.4862237
1570727063,1.7250214,-9.039307,1.4251556,2.1500397,-0.35162354,0.4365692,0.9576487,1.5171785,1.3020818
1570727063,1.6669617,-9.044693,1.3144226,2.1649628,-0.33032227,0.42271423,0.9576487,1.5171785,1.3020818
1570727063,1.8291626,-8.431183,1.8824463,2.3236847,0.0126953125,0.41738892,1.0373777,2.0013638,0.56583756
1570727063,2.921524,-6.9126587,-14.198212,-2.050293,-0.26107788,-0.7384186,2.2991533,3.8459291,-19.872715
1570727063,2.921524,-6.9126587,-14.198212,-2.050293,-0.26107788,-0.7384186,2.2991533,3.8459291,-19.872715
1570727063,0.016159058,-10.262741,5.917267,-1.4441528,-3.2448883,-0.8151245,-1.0833089,-0.112522125,2.9208198
1570727063,1.122879,-8.480255,5.5048676,-1.3184509,-1.5031738,-0.19833374,-0.55547106,1.2748423,5.5880814
1570727063,0.5398865,-10.122086,2.4007874,-0.13175964,1.3027344,-0.3645172,-0.9175128,0.42612743,3.2530756
1570727063,0.5398865,-10.122086,2.4007874,-0.13175964,1.3027344,-0.3645172,-0.9175128,0.42612743,3.2530756
1570727063,0.2531891,-10.381851,-1.7130585,0.3721161,1.4465485,-0.20153809,-0.9882313,-0.058750153,-0.7160562
1570727063,-2.8125916,-12.756302,-6.8091125,-1.1767731,-0.24403381,-0.3325653,-4.11133,-2.1335287,-6.921261
1570727063,-2.4779968,-14.947006,-2.6791077,-2.036438,-0.21740723,0.025375366,-4.2081337,-4.0826426,-2.3119733
1570727063,1.514328,-16.537949,-3.055008,-1.8883667,1.0864868,0.5420227,-0.48260093,-6.3609085,-0.13309765
1570727063,5.2438965,-16.822266,-1.6675568,-1.2332306,-1.730072,0.4120636,4.167578,-6.387806,1.1677022
1570727063,5.2480927,-16.80011,-1.8722687,-1.2215118,-1.6459198,0.42164612,4.167578,-6.387806,1.1677022
1570727063,5.4372253,-14.771622,-1.5670013,-1.2353668,-1.138855,0.20433044,4.932411,-5.009014,0.8506415
1570727064,-0.6673889,-9.762955,1.0648193,-0.26490784,0.62734985,0.14468384,-0.63679045,0.42524052,4.421734
1570727064,-1.0127411,-9.885056,1.0109558,-0.19779968,0.64546204,0.17984009,-1.3174995,0.34685516,4.373072
1570727064,1.5987244,-5.7418976,1.829773,0.4946289,0.33973694,0.5356293,0.80863357,4.2581577,4.720672
1570727064,1.5987244,-5.7418976,1.829773,0.4946289,0.33973694,0.5356293,0.80863357,4.2581577,4.720672
1570727064,2.0272827,-5.4719543,1.7190399,1.3319244,-0.15455627,-0.13441467,1.5215039,4.9731035,4.118959
1570727064,2.0272827,-5.4719543,1.7190399,1.3319244,-0.15455627,-0.13441467,1.5215039,4.9731035,4.118959
1570727064,1.1366425,-5.629959,0.54766846,1.0677338,-0.051223755,-0.25053406,0.48717564,4.741705,1.7146966
1570727064,1.1366425,-5.629959,0.54766846,1.0677338,-0.051223755,-0.25053406,0.48717564,4.741705,1.7146966
1570727064,0.9403229,-13.136978,5.478531,0.6277771,2.570404,-0.019363403,-0.09929073,-2.1633186,5.8491545
1570727064,0.9403229,-13.136978,5.478531,0.6277771,2.570404,-0.019363403,-0.09929073,-2.1633186,5.8491545
1570727064,1.4042053,-12.066177,3.648758,2.8339386,5.0652466,0.27038574,0.46400124,-1.5111475,3.7444198
1570727064,4.8877563,-8.659821,-12.955627,-0.86997986,0.7328186,0.5153961,3.2358198,1.4707651,-17.387253
1570727064,11.638809,-16.575653,-3.731964,-0.06677246,-3.620926,0.7923584,11.615584,-5.9703226,-3.7483284
1570727064,11.638809,-16.575653,-3.731964,-0.06677246,-3.620926,0.7923584,11.615584,-5.9703226,-3.7483284
1570727064,5.447403,-10.711655,5.470154,-1.921402,-3.2683105,-0.7405548,5.00634,0.65285206,6.275467
1570727064,5.447403,-10.711655,5.470154,-1.921402,-3.2683105,-0.7405548,5.00634,0.65285206,6.275467
1570727064,-7.371155,-17.916412,7.431595,-0.44706726,5.9408875,-1.1783752,-9.252837,-9.211548,11.633439
1570727064,-6.0699005,-14.648926,-8.530548,0.74176025,3.5632172,-0.11630249,-7.940511,-4.5436306,-6.0451994
1570727064,1.4538727,-13.139374,2.434906,1.0357819,-4.3484955,1.1236572,0.2589575,-2.983037,2.9269478
1570727064,1.4538727,-13.139374,2.434906,1.0357819,-4.3484955,1.1236572,0.2589575,-2.983037,2.9269478
1570727064,1.9901733,-10.864288,3.2046356,1.567337,-3.7657928,0.8871765,1.1567577,-0.7488594,3.6161444
1570727064,1.2671356,-9.108139,1.6436157,2.3961182,-0.740448,0.48449707,0.7591446,1.2769766,1.5170338
1570727064,4.372406,-6.6439056,-6.881531,1.231781,2.4841156,0.0594635,3.9238017,3.3638134,-5.5813255
1570727064,4.372406,-6.6439056,-6.881531,1.231781,2.4841156,0.0594635,3.9238017,3.3638134,-5.5813255
1570727064,-0.22564697,-6.5876465,0.6482239,-0.37249756,-2.9253082,-0.65852356,-0.9329159,3.7830029,-1.1779997
1570727064,-0.22564697,-6.5876465,0.6482239,-0.37249756,-2.9253082,-0.65852356,-0.9329159,3.7830029,-1.1779997
1570727064,-1.1091156,-6.380554,0.012573242,-0.61538696,-1.3796082,-0.3634491,-2.169081,4.2911425,1.4453881
1570727064,-1.9788055,-7.415436,-2.7168274,-0.7591858,-1.1282043,-0.4380188,-2.2715425,3.612917,-1.5049534
1570727064,1.7489624,-7.2867584,5.25766,-0.9275055,-0.13644409,-0.20153809,0.65902245,3.3644753,4.8041644
1570727064,1.6454163,-7.5836334,5.5641174,-0.855072,-0.022460938,-0.23135376,0.65902245,3.3644753,4.8041644
1570727064,-11.183914,-19.491196,-16.464325,0.28263855,-1.2336578,0.35772705,-11.588757,-8.7493515,-14.791624
1570727064,-11.041458,-19.46965,-16.590622,0.065322876,-1.5883942,0.53456116,-11.588757,-8.7493515,-14.791624
1570727064,-2.1871033,-17.676392,-0.43574524,-2.2249908,-0.13856506,0.85946655,-4.528447,-7.443428,-1.8844321
1570727064,9.627686,-19.612106,-6.4936676,-2.6457825,2.186905,0.20114136,7.627227,-9.227019,-4.0977607
1570727065,10.513535,-14.873978,-2.418747,-2.446579,-0.7937012,-0.26437378,9.848975,-5.5268593,-1.0187402
1570727065,10.513535,-14.873978,-2.418747,-2.446579,-0.7937012,-0.26437378,9.848975,-5.5268593,-1.0187402
1570727065,2.5043335,-11.921326,4.4609985,-1.253479,-1.0674744,-0.5211029,2.5134726,-1.8538399,6.920516
1570727065,-0.13825989,-6.470337,1.7884674,0.31033325,-0.13963318,0.27677917,-1.6482023,2.4871435,4.783942
1570727065,-0.13825989,-6.470337,1.7884674,0.31033325,-0.13963318,0.27677917,-1.6482023,2.4871435,4.783942
1570727065,1.7549438,-4.458008,1.8944092,0.36997986,0.0020446777,-0.07369995,0.8139647,5.0964794,4.691587
1570727065,2.2481537,-3.3889923,3.0897217,0.90475464,-0.7713318,-0.14826965,0.7743024,6.563755,5.918696
1570727065,2.2667084,-4.474167,1.6430206,1.7388458,-0.503952,-0.38156128,1.2252884,5.5085487,4.2644143
1570727065,-0.26275635,-7.8918915,1.9512787,1.3990326,0.4313507,0.27783203,-1.4503849,1.8894529,3.6421628
1570727065,-0.26275635,-7.8918915,1.9512787,1.3990326,0.4313507,0.27783203,-1.4503849,1.8894529,3.6421628
1570727065,1.0761871,-14.358032,3.174118,2.6848145,3.114746,1.3153992,-0.49981022,-3.1140661,4.2648654
1570727065,1.0761871,-14.358032,3.174118,2.6848145,3.114746,1.3153992,-0.49981022,-3.1140661,4.2648654
1570727065,5.9681396,-8.108566,-1.1007385,1.3851776,-5.181534,0.7657318,5.9723763,3.6880913,-0.54916716
1570727065,5.9681396,-8.108566,-1.1007385,1.3851776,-5.181534,0.7657318,5.9723763,3.6880913,-0.54916716
1570727065,11.544235,-14.21019,3.7816467,-0.6782379,-3.5388947,0.18409729,10.167354,-3.522027,1.6723186
1570727065,4.9236755,-10.699692,8.535934,-0.8348236,0.42921448,-0.7309723,5.378256,-0.69776917,8.049846
1570727065,-4.941635,-19.612701,1.3940277,-0.3373413,1.4305573,-1.9528198,-3.3577898,-8.924426,3.1575785
1570727065,-4.941635,-19.612701,1.3940277,-0.3373413,1.4305573,-1.9528198,-3.3577898,-8.924426,3.1575785
1570727065,-4.1306,-13.503891,1.8088226,0.43603516,-2.603592,1.008606,-5.5740204,-3.2807264,1.7051828
1570727065,-3.7720642,-13.283035,2.214035,0.32951355,-2.4129028,1.0799866,-5.5740204,-3.2807264,1.7051828
1570727065,0.34895325,-11.202469,3.292633,-0.27876282,-0.82673645,1.0629425,-0.5645923,-0.7942667,3.698648
1570727065,3.3040009,-10.163391,4.5878906,1.707962,-2.9743042,-0.18554688,3.6828122,0.58739185,4.2157755
1570727065,3.3040009,-10.163391,4.5878906,1.707962,-2.9743042,-0.18554688,3.6828122,0.58739185,4.2157755
1570727065,6.0704956,-7.9230194,1.9500732,1.9678802,-3.4206543,0.80300903,5.4988256,2.2792044,1.3021648
1570727065,3.790619,-8.622116,1.5867615,0.62991333,-3.923462,0.16812134,4.6155496,2.5796442,0.06761062
1570727065,2.043457,-10.810425,1.546051,0.4935608,-4.263275,0.15319824,2.3086522,0.3360119,0.3062837
1570727065,0.36212158,-12.238556,0.81044006,0.1920929,-4.296295,0.14575195,0.5350753,-1.3437681,-0.50676584
1570727065,-1.3826447,-12.228989,1.1408386,-0.44706726,-3.8819122,0.30659485,-1.4191726,-1.9247665,-0.69018435
1570727065,-3.4512482,-11.70047,4.2628784,-0.44067383,-2.9039917,0.21392822,-3.315757,-1.1177654,2.5576396
1570727065,-5.5599365,-10.392624,3.0855255,0.013122559,-1.4861298,-0.22070312,-5.921875,-0.1132555,1.9463673
1570727065,-1.9099731,-10.247177,0.59436035,0.28796387,-1.6459198,0.40248108,-2.7587445,0.29163265,-0.7074603
1570727065,-1.7268219,-10.283691,0.5877838,0.28796387,-1.6746826,0.42485046,-2.7587445,0.29163265,-0.7074603
1570727065,0.723053,-9.219467,0.5608368,0.3678589,-2.4587097,0.038146973,0.31164312,1.2052374,-0.8347515
1570727066,0.723053,-9.219467,0.5608368,0.3678589,-2.4587097,0.038146973,0.31164312,1.2052374,-0.8347515
1570727066,0.3944397,-8.585007,0.8894501,0.37425232,-2.4192963,-0.09500122,-0.13096923,1.7351246,-0.64622915
1570727066,-0.66378784,-10.482407,0.6171112,3.3569336E-4,-1.8206177,-0.33789062,-0.89672387,1.2338676,-0.81613624
1570727066,-5.1529236,-19.608505,2.1715393,-1.1458893,-0.34309387,0.22032166,-5.1257973,-9.092879,0.08998299
1570727066,3.5242615,-9.80246,-2.4570465,-0.66545105,-1.1303253,0.40673828,2.6246712,0.83247757,-2.7800019
1570727066,3.5242615,-9.80246,-2.4570465,-0.66545105,-1.1303253,0.40673828,2.6246712,0.83247757,-2.7800019
1570727066,6.3703766,-12.941254,1.5185242,-3.1549683,-0.42726135,-2.7315369,5.8865047,-0.875577,2.0616498
1570727066,6.3703766,-12.941254,1.5185242,-3.1549683,-0.42726135,-2.7315369,5.8865047,-0.875577,2.0616498
1570727066,2.5845337,-11.935089,8.526947,-2.2377777,-2.5013275,-1.2273865,3.44416,-0.8957958,9.441004
1570727066,2.5845337,-11.935089,8.526947,-2.2377777,-2.5013275,-1.2273865,3.44416,-0.8957958,9.441004
1570727066,-4.244919,-11.076172,9.384079,-0.8529358,0.009506226,-1.0239105,-5.5340085,-1.2085505,13.6096945
1570727066,-5.843048,-10.690704,-2.355896,-0.4811554,-1.7684174,-0.4657135,-9.07673,-0.86801815,0.05888748
1570727066,1.3826447,-9.427765,-0.841568,-0.5780945,-2.1934662,-0.119506836,-1.0299029,0.53248787,2.230651
1570727066,3.2746735,-9.343369,0.33937073,-0.60899353,-1.7066345,-0.07156372,0.8963412,0.47945786,3.5338368
1570727066,3.071762,-8.992615,0.39144897,-0.40126038,-0.68611145,-0.19619751,1.5906402,0.8724737,4.49341
1570727066,1.8177948,-8.3414,-1.3946228,-0.027359009,-0.5082245,-0.14720154,-0.16262293,1.2213364,2.7504861
1570727066,2.4971466,-7.459137,-1.8237762,0.45521545,-1.0578918,-0.24414062,0.7428919,2.3886595,1.9092915
1570727066,1.3892365,-8.31926,-1.6083069,0.7311096,-1.2496338,-0.49447632,-0.08324194,1.6931314,1.9886866
1570727066,0.7254486,-8.808868,-2.082962,0.7684021,-1.2528381,-0.48701477,-0.82650554,1.2571688,1.5796316
1570727066,-0.14186096,-11.08815,-4.807556,0.49995422,-1.0802612,-0.006591797,-1.6652927,-0.8455343,-0.91506433
1570727066,-0.9361267,-12.318771,-7.024582,0.12817383,-1.1495056,0.4355011,-2.3779497,-2.5574713,-4.320059
1570727066,-0.9361267,-12.318771,-7.024582,0.12817383,-1.1495056,0.4355011,-2.3779497,-2.5574713,-4.320059
1570727066,0.25498962,-8.8567505,-3.628418,-0.5791626,0.12667847,0.2959442,-1.0960971,0.9564676,-0.2769506
1570727066,0.25498962,-8.8567505,-3.628418,-0.5791626,0.12667847,0.2959442,-1.0960971,0.9564676,-0.2769506
1570727066,3.023285,-5.9986725,-2.0781708,0.14840698,0.18206787,0.079696655,1.8179375,3.7777958,1.87764
1570727066,3.023285,-5.9986725,-2.0781708,0.14840698,0.18206787,0.079696655,1.8179375,3.7777958,1.87764
1570727066,-0.13526917,-8.985443,-1.391037,1.1156769,-0.31539917,-0.009780884,-1.5489722,0.7599859,1.5964105
1570727066,0.6961212,-8.780136,-1.3748779,1.2658691,-0.3644104,0.012588501,-1.124327,0.95845413,1.9106758
1570727066,0.7523804,-19.612701,-6.356598,0.78012085,-2.3756256,-0.9610596,2.7299314,-9.409561,-6.758607
1570727066,-1.2779083,-19.612701,-4.3616333,0.58836365,-1.8632355,-0.55200195,2.7299314,-9.409561,-6.758607
1570727066,3.3063965,-6.1046143,2.700653,0.1537323,-2.2307434,-0.34640503,2.1367211,4.599037,4.8230057
1570727066,3.3063965,-6.1046143,2.700653,0.1537323,-2.2307434,-0.34640503,2.1367211,4.599037,4.8230057
1570727066,0.47225952,-11.791443,8.802277,0.4477539,-1.361496,-0.5413513,-0.70086527,-0.7807026,10.820199
1570727066,0.47225952,-11.791443,8.802277,0.4477539,-1.361496,-0.5413513,-0.70086527,-0.7807026,10.820199
1570727067,-1.1599884,-11.775284,6.154297,0.4893036,3.2148895,-0.08328247,-2.868907,-1.5790386,8.38617
1570727067,-0.9929962,-11.775284,6.154297,0.4893036,3.2148895,-0.08328247,-2.868907,-1.5790386,8.38617
1570727067,0.1879425,-10.998962,-2.8568878,2.6027832,0.3557129,0.58143616,-1.5685459,-0.60525703,-1.6264462
1570727067,0.35614014,-11.136627,-3.221405,2.7497864,-0.04057312,0.6123352,-1.5685459,-0.60525703,-1.6264462
1570727067,0.5392914,-12.251129,-4.7088013,2.871231,-4.1301117,0.82644653,-0.8414047,-1.7426357,-5.053075
1570727067,1.7405853,-11.467026,-8.026566,1.9220734,-6.5312195,0.9393616,0.01917839,-1.2451239,-8.238253
1570727067,1.3610992,-10.468048,-2.0566254,0.32737732,-5.217758,0.84988403,0.38201582,-0.25492382,-3.996038
1570727067,1.664566,-9.357742,2.043457,-0.6782379,0.033996582,0.47598267,0.68768424,1.0334225,1.4418848
1570727067,0.49021912,-10.538086,1.0779877,-0.86465454,1.6468201,-0.21644592,-0.27672368,0.06460762,0.9043007
1570727067,-0.7266388,-10.809814,0.89842224,-0.904068,1.4465485,-0.40711975,-1.3654226,-0.18730736,0.6598181
1570727067,-1.1994934,-9.992798,0.34477234,0.5745239,-0.23231506,0.15426636,-2.2949886,0.3227806,0.55748695
1570727067,-1.1994934,-9.992798,0.34477234,0.5745239,-0.23231506,0.15426636,-2.2949886,0.3227806,0.55748695
1570727067,-1.3090363,-9.631271,-12.304993,0.9484253,-4.5391846,0.90740967,-1.7753115,1.0611181,-12.505401
1570727067,-1.3090363,-9.631271,-12.304993,0.9484253,-4.5391846,0.90740967,-1.7753115,1.0611181,-12.505401
1570727067,4.0061035,-7.7063293,5.3390656,-1.8265839,-0.52526855,0.7007446,3.8094974,3.0547743,5.4288974
1570727067,4.0061035,-7.7063293,5.3390656,-1.8265839,-0.52526855,0.7007446,3.8094974,3.0547743,5.4288974
1570727067,2.5486298,-10.29985,2.6731262,-0.9296417,1.3261719,-1.1389618,2.447747,1.5171261,3.725996
1570727067,2.4444733,-10.726624,2.692276,-0.9413605,1.2910156,-1.077179,2.1184037,0.2928667,3.7406745
1570727067,3.094513,-10.031113,3.4063568,-0.8401489,1.0555878,-0.6372223,2.253311,0.03578472,4.6673126
1570727067,-4.1132355,-11.40538,-11.180328,-0.23295593,-1.0184784,-0.6521301,-5.940464,-2.3293629,-11.718907
1570727067,-4.1132355,-11.40538,-11.180328,-0.23295593,-1.0184784,-0.6521301,-5.940464,-2.3293629,-11.718907
1570727067,-1.5640106,-18.234833,-3.375229,-2.4135437,2.729126,0.2128601,-3.6398964,-8.5401745,-0.26729345
1570727067,-1.5640106,-18.234833,-3.375229,-2.4135437,2.729126,0.2128601,-3.6398964,-8.5401745,-0.26729345
1570727067,6.4290314,-14.895523,6.012436,-1.5826416,-3.2736511,0.18835449,5.1862435,-4.9957905,8.881725
1570727067,6.4290314,-14.895523,6.012436,-1.5826416,-3.2736511,0.18835449,5.1862435,-4.9957905,8.881725
1570727067,4.122223,-11.421539,-2.0578156,-0.5248413,0.27156067,-0.12376404,4.949593,-1.2113953,0.5852504
1570727067,3.2387543,-11.670532,-1.1839294,-0.56744385,0.3599701,-0.16957092,3.6551375,-1.5360441,1.5088754
1570727067,-0.36691284,-8.975861,0.46028137,0.25920105,-0.31860352,0.6890259,-1.6335123,0.3043394,3.554027
1570727067,3.0113068,-5.866394,0.2059021,0.24002075,9.765625E-4,0.08395386,2.0909214,3.6697264,3.7079206
1570727067,3.0113068,-5.866394,0.2059021,0.24002075,9.765625E-4,0.08395386,2.0909214,3.6697264,3.7079206
1570727067,3.526657,-5.0828857,0.89064026,0.5457611,-0.31114197,-0.051330566,3.0833693,4.703911,4.4767227
1570727067,2.6240387,-5.3510437,0.36332703,1.0613403,-0.5263214,-0.2888794,1.9571184,4.656083,3.9726725
1570727068,3.007721,-6.576874,0.66677856,1.212616,-1.380661,-0.791687,2.2825677,3.7209167,3.1928644
1570727068,3.007721,-6.576874,0.66677856,1.212616,-1.380661,-0.791687,2.2825677,3.7209167,3.1928644
1570727068,0.8571167,-8.037338,3.6888733,1.0730591,0.99380493,-0.17063904,-0.10627663,2.1237183,5.4978437
1570727068,0.79248047,-8.118744,3.7654877,1.1401672,1.1514587,-0.16743469,-0.10627663,2.1237183,5.4978437
1570727068,-8.245026,-16.321274,-19.612701,0.3731842,-1.0206146,0.338562,-11.102496,-8.492411,-18.777342
1570727068,-8.245026,-16.321274,-19.612701,0.3731842,-1.0206146,0.338562,-11.102496,-8.492411,-18.777342
1570727068,-3.1489716,-8.333023,-4.712387,-0.21165466,-3.9000244,0.37690735,-3.8443513,1.7056227,-8.18583
1570727068,6.752243,-16.221909,0.3609314,-0.71977234,1.805542,-0.06411743,6.1917086,-4.894144,1.0136483
1570727068,6.752243,-16.221909,0.3609314,-0.71977234,1.805542,-0.06411743,6.1917086,-4.894144,1.0136483
1570727068,10.500961,-16.78215,5.4055023,-0.35758972,-0.4986267,0.19155884,9.735725,-5.8233576,6.7635117
1570727068,10.568008,-16.651077,4.817734,-0.16903687,-0.09275818,0.08609009,9.735725,-5.8233576,6.7635117
1570727068,-2.8006134,-14.069519,5.3450623,-2.525406,1.7160492,-1.1400299,-4.2554903,-4.089917,7.7941694
1570727068,-2.8006134,-14.069519,5.3450623,-2.525406,1.7160492,-1.1400299,-4.2554903,-4.089917,7.7941694
1570727068,-3.3536835,-15.666458,4.2640686,0.5542755,-1.0770721,0.37051392,-5.6844826,-5.876545,6.8774557
1570727068,0.5710144,-11.32756,2.4768066,1.7186127,-1.5713501,0.47491455,-0.30169886,-1.1533308,4.3967314
1570727068,0.5710144,-11.32756,2.4768066,1.7186127,-1.5713501,0.47491455,-0.30169886,-1.1533308,4.3967314
1570727068,0.28909302,-9.807251,2.5588074,2.1766815,-0.646698,0.3662567,-0.40968895,0.35354042,4.003636
1570727068,4.249115,-8.364746,-11.918335,2.5633698,2.5789185,0.29275513,2.0579782,1.4204121,-5.6434283
1570727068,2.4103699,-5.6976013,-5.993881,-0.8039398,-0.9992981,-0.5775757,1.9560013,4.9244184,-7.3414016
1570727068,2.4103699,-5.835861,-5.249283,-0.8039398,-1.2922516,-0.59780884,1.9560013,4.9244184,-7.3414016
1570727068,-0.854126,-8.364151,-3.2914276,-0.6718445,-0.7500305,-0.39967346,-1.5982319,2.1626406,-2.5958834
1570727068,-0.854126,-8.364151,-3.2914276,-0.6718445,-0.7500305,-0.39967346,-1.5982319,2.1626406,-2.5958834
1570727068,1.6537933,-7.976883,2.1775208,-1.4239197,-0.262146,-0.49021912,0.36468768,2.8585405,2.890782
1570727068,1.6537933,-7.976883,2.1775208,-1.4239197,-0.262146,-0.49021912,0.36468768,2.8585405,2.890782
1570727068,-2.4696198,-11.271896,-6.7217255,-0.46624756,-0.32925415,-0.64468384,-3.433394,-0.9307108,-4.3435917
1570727068,-2.4696198,-11.271896,-6.7217255,-0.46624756,-0.32925415,-0.64468384,-3.433394,-0.9307108,-4.3435917
1570727068,-4.8249207,-13.775635,-6.159683,-2.1184692,-0.1726532,-0.117370605,-6.1270375,-2.9642591,-5.4241085
1570727068,4.945221,-18.335999,-6.380554,-2.4092865,-0.25254822,0.49302673,2.465179,-8.067462,-3.658225
1570727068,4.945221,-18.335999,-6.380554,-2.4092865,-0.25254822,0.49302673,2.465179,-8.067462,-3.658225
1570727068,6.084259,-13.590683,0.42616272,-1.7456207,-1.204895,0.004058838,5.404171,-4.564494,4.280519
1570727068,5.6628876,-13.356659,0.7948761,-1.6891632,-1.1633606,-0.017242432,5.404171,-4.564494,4.280519
1570727068,-2.4492645,-10.689514,-0.26455688,0.72898865,-0.867218,0.7177887,-3.143082,-1.4281492,4.4938707
1570727068,-2.4492645,-10.689514,-0.26455688,0.72898865,-0.867218,0.7177887,-3.143082,-1.4281492,4.4938707
1570727068,0.3429718,-7.949341,2.0679932,1.6493683,-0.5742645,1.1364441,-0.13903295,1.5131817,6.3288527
1570727068,0.3429718,-7.949341,2.0679932,1.6493683,-0.5742645,1.1364441,-0.13903295,1.5131817,6.3288527
1570727069,1.6765442,-3.9228973,0.55844116,1.3127441,0.3088379,-0.091812134,1.9322273,6.1323757,4.0118976
1570727069,1.6208801,-3.910324,0.61291504,1.341507,0.30671692,-0.11630249,1.7319896,6.0660267,3.7192051
1570727069,2.0608063,-3.5996857,-0.3722992,1.630188,-0.021392822,-0.522171,1.899012,6.447216,2.1541793
1570727069,2.1625671,-4.5747223,0.6177063,1.8262024,-0.2749176,-0.98342896,1.8812302,5.975151,2.505541
1570727069,1.4658508,-10.359711,3.9264984,1.0751953,4.690277,0.105270386,0.33724093,0.033215523,5.423464
1570727069,1.4658508,-10.359711,3.9264984,1.0751953,4.690277,0.105270386,0.33724093,0.033215523,5.423464
1570727069,0.9427185,-10.448303,-18.639465,0.40620422,0.49206543,0.6336365,-0.06759304,-0.42805862,-19.035814
1570727069,3.1753082,-9.157227,-3.028061,0.6703949,-3.308792,0.64642334,2.5467842,2.1822205,-3.9148679
1570727069,3.1753082,-9.157227,-3.028061,0.6703949,-3.308792,0.64642334,2.5467842,2.1822205,-3.9148679
1570727069,8.061874,-15.583862,-2.158966,-0.46624756,-1.6299438,0.80088806,5.603426,-4.33706,-2.2199802
1570727069,10.2322235,-16.934189,1.1408386,-1.3216553,-0.8704071,-0.006591797,10.304979,-6.5514536,0.92297256
1570727069,0.39743042,-11.420349,4.434662,-2.0321808,-1.0781403,-0.9109955,-0.112877965,-0.019976616,5.366906
1570727069,0.39743042,-11.420349,4.434662,-2.0321808,-1.0781403,-0.9109955,-0.112877965,-0.019976616,5.366906
1570727069,-8.377914,-17.369934,-11.809402,0.94203186,4.2332764,-1.0899658,-10.290936,-8.403664,-6.847609
1570727069,-3.0957031,-13.441055,2.2577362,-0.75813293,-0.6232605,1.1439056,-6.53383,-3.467616,2.6770487
1570727069,-2.339737,-13.426086,2.7120361,-0.6505432,-0.78411865,1.1609497,-4.864584,-3.1862001,3.9042563
1570727069,1.4921875,-12.008713,3.940857,1.0123444,-1.5745392,0.9372406,0.13438213,-2.2605858,6.19483
1570727069,2.506134,-9.23085,1.5149384,1.9806671,-1.3242035,0.6112671,1.9167956,0.9932089,2.7244568
1570727069,1.8722687,-8.973465,1.5837708,2.1042328,-1.1910553,0.38009644,1.5374712,1.5647488,2.0785356
1570727069,2.387024,-8.313263,2.3367462,2.3183594,-0.6435089,0.49302673,1.6790528,2.0331535,2.2598848
1570727069,3.292633,-6.4457855,-15.589844,-1.2737122,5.290024,-0.59780884,3.045046,3.9137974,-16.464375
1570727069,3.292633,-6.4457855,-15.589844,-1.2737122,5.290024,-0.59780884,3.045046,3.9137974,-16.464375
1570727069,-1.0630188,-10.359116,-2.0069427,-0.7037964,-3.0254364,-0.85879517,-0.97765434,0.12220764,-7.9565167
1570727069,-0.67277527,-9.304474,2.557602,-0.77622986,-2.8347473,-0.17596436,-1.9052533,0.6466789,1.562666
1570727069,1.5490417,-7.4465637,2.7928314,-0.63668823,-0.2909088,-0.54881287,0.90475684,3.0663042,3.6305442
1570727069,1.5490417,-7.4465637,2.7928314,-0.63668823,-0.2909088,-0.54881287,0.90475684,3.0663042,3.6305442
1570727069,-3.205841,-13.879791,-5.0254364,-0.4449463,9.765625E-4,-0.22816467,-4.71388,-2.7452173,-3.6979222
1570727069,-3.205841,-13.879791,-5.0254364,-0.4449463,9.765625E-4,-0.22816467,-4.71388,-2.7452173,-3.6979222
1570727069,-1.9075775,-16.142303,-3.0376434,-1.8628082,1.9056702,0.14894104,-4.2226276,-5.826597,-0.2880919
1570727069,-1.9075775,-16.142303,-3.0376434,-1.8628082,1.9056702,0.14894104,-4.2226276,-5.826597,-0.2880919
1570727069,5.574295,-16.763596,-8.914215,-2.4124908,0.81910706,0.44615173,2.507519,-6.2607355,-6.28716
1570727069,11.726807,-17.870316,-0.90740967,-2.0630798,-1.7332764,-0.04600525,10.063422,-8.295734,1.8337197
1570727070,-2.8610687,-12.574951,2.6653442,-1.2619934,0.87023926,-0.32936096,-3.0164359,-3.0156393,8.867745
1570727070,-2.8610687,-12.574951,2.6653442,-1.2619934,0.87023926,-0.32936096,-3.0164359,-3.0156393,8.867745
1570727070,-0.9540863,-8.239639,0.4908142,-0.26490784,-0.10874939,0.52711487,-3.716403,0.24736404,4.490797
1570727070,1.1677704,-5.858017,1.7310028,0.2517395,-0.121520996,0.5867615,-0.36218452,3.2582493,5.8694625
1570727070,1.1887207,-3.3321228,2.4522552,1.3372498,-0.377182,0.24906921,-0.06576502,6.138194,6.442887
1570727070,1.1887207,-3.3321228,2.4522552,1.3372498,-0.377182,0.24906921,-0.06576502,6.138194,6.442887
1570727070,1.8764496,-4.013275,0.9433136,1.3713379,-0.10874939,-0.5349579,0.9078045,5.9396305,3.5952606
1570727070,1.8764496,-4.013275,0.9433136,1.3713379,-0.10874939,-0.5349579,0.9078045,5.9396305,3.5952606
1570727070,1.4215546,-5.015259,2.040451,1.1870422,0.3802185,-0.8886261,0.36104715,5.478486,4.324338
1570727070,-1.1426392,-12.480377,5.0373993,1.0837097,3.1882477,0.44721985,-3.1206892,-2.961216,6.9123893
1570727070,2.245758,-16.66484,-1.2348022,3.969513,5.105728,0.9841156,0.114700675,-5.103406,4.8136063
1570727070,3.1489716,-9.988617,-13.885773,-0.1796875,-2.6057281,0.9425659,2.414934,-1.1115313,-18.95472
1570727070,7.9750824,-13.041809,-1.2144623,1.0080872,-1.4509735,0.80940247,6.3597946,-1.0849485,1.4865596
1570727070,7.9750824,-13.041809,-1.2144623,1.0080872,-1.4509735,0.80940247,6.3597946,-1.0849485,1.4865596
1570727070,4.2987823,-11.678909,3.4039612,-0.74108887,-0.88638306,-0.57011414,4.2990074,-1.4921179,4.3363433
1570727070,4.2987823,-11.678909,3.4039612,-0.74108887,-0.88638306,-0.57011414,4.2990074,-1.4921179,4.3363433
1570727070,-7.8332367,-17.724274,3.5673676,-1.6401672,-0.60835266,-1.2401581,-8.443232,-7.888981,4.1359024
1570727070,-6.862381,-13.842682,4.478348,-0.9093933,2.3126068,-0.06730652,-8.395041,-3.4118748,6.2492027
1570727070,-6.570282,-14.168884,4.249115,-0.7986145,2.3349762,0.046676636,-8.395041,-3.4118748,6.2492027
1570727070,1.5322876,-11.900375,2.363678,1.1486969,-2.2957306,0.561203,0.7561523,-1.9686003,3.7833133
1570727070,1.3610992,-11.789642,2.367859,1.1699982,-2.268036,0.5601349,0.56475246,-1.5802803,3.8061857
1570727070,0.54289246,-9.210495,1.4000092,2.617691,-0.28877258,0.48449707,-0.1271807,1.0683336,2.1604137
1570727070,0.54289246,-9.210495,1.4000092,2.617691,-0.28877258,0.48449707,-0.1271807,1.0683336,2.1604137
1570727070,6.193207,-8.503601,-3.3644562,2.8019867,2.9506989,0.48449707,5.3289776,1.7614784,-2.2689042
1570727070,6.193207,-8.503601,-3.3644562,2.8019867,2.9506989,0.48449707,5.3289776,1.7614784,-2.2689042
1570727070,1.7471619,-7.9409637,-6.664856,-1.525116,-2.2318115,-1.0366974,1.6242583,3.4789448,-10.552349
1570727070,1.6735535,-8.432373,-5.617996,-1.5240479,-2.5375519,-1.1187286,1.5319707,2.644496,-8.43141
1570727070,-0.92774963,-7.674011,0.6039429,-0.8390808,-0.7191467,-0.442276,-3.0717692,1.0550861,-1.2420061
1570727070,-0.92774963,-7.674011,0.6039429,-0.8390808,-0.7191467,-0.442276,-3.0717692,1.0550861,-1.2420061
1570727070,3.1286163,-8.428787,4.855438,-1.2939606,0.25131226,-0.8364258,1.7205968,1.7623215,4.753127
1570727070,3.12323,-8.32164,4.7614746,-1.2236481,0.30244446,-0.87583923,1.7856135,1.8520908,4.965205
1570727070,-6.114197,-15.965729,-5.376175,-0.66651917,0.08300781,-0.37623596,-7.673013,-4.8349705,-4.234481
1570727070,-6.114197,-15.965729,-5.376175,-0.66651917,0.08300781,-0.37623596,-7.673013,-4.8349705,-4.234481
1570727071,3.6655273,-17.836197,-3.3854065,-2.0247345,2.3413696,0.7092743,0.9228308,-7.1708374,-0.5483625
1570727071,4.11084,-17.998413,-3.9228973,-2.0236664,2.3392334,0.70288086,0.9228308,-7.1708374,-0.5483625
1570727071,7.119156,-15.786163,0.16520691,-1.6209869,-1.7290039,0.1691742,5.8211894,-6.677186,1.1781979
1570727071,7.119156,-15.786163,0.16520691,-1.6209869,-1.7290039,0.1691742,5.8211894,-6.677186,1.1781979
1570727071,0.802063,-9.583389,3.9115295,-0.472641,-0.25042725,-0.1131134,0.01200366,0.22798729,6.5929794
1570727071,0.802063,-9.583389,3.9115295,-0.472641,-0.25042725,-0.1131134,0.01200366,0.22798729,6.5929794
1570727071,1.098938,-7.0970154,1.3347626,0.6938324,0.09579468,0.32684326,-0.22444463,2.8532248,4.1602488
1570727071,1.098938,-7.0970154,1.3347626,0.6938324,0.09579468,0.32684326,-0.22444463,2.8532248,4.1602488
1570727071,1.4215546,-4.5358124,1.6400299,1.1732025,0.38980103,0.058395386,0.23046112,5.529297,4.171085
1570727071,1.4215546,-4.5358124,1.6400299,1.1732025,0.38980103,0.058395386,0.23046112,5.529297,4.171085
1570727071,1.1163025,-4.399353,0.91937256,0.9122009,0.57728577,-0.32296753,0.09462249,5.8610773,2.6288462
1570727071,0.30047607,-5.467758,1.4478912,0.7481537,0.7818146,-0.33468628,-0.6211221,5.3068676,2.8423462
1570727071,-0.5740051,-7.8164673,2.8826141,0.8056793,1.8524017,0.16491699,-1.9287121,2.9629402,3.8911638
1570727071,-0.48721313,-10.157394,3.4255066,1.3202057,2.7174072,0.5846405,-1.9410503,0.32001686,4.2595572
1570727071,4.237732,-14.425064,-19.612701,2.7508545,3.3757324,0.7167206,1.2763343,-3.648757,-0.5952696
1570727071,3.802597,-12.788025,-1.8351593,0.34335327,-2.0251465,0.84562683,1.9223993,-0.35925484,-4.009369
1570727071,3.802597,-12.788025,-1.8351593,0.34335327,-2.0251465,0.84562683,1.9223993,-0.35925484,-4.009369
1570727071,10.51413,-17.918808,-0.9822235,-0.9807739,1.3261719,0.054138184,10.065959,-8.424717,-2.92587
1570727071,8.313858,-16.718704,0.061050415,-2.5797272,0.25024414,-0.85772705,6.833594,-5.805908,0.09101337
1570727071,-0.762558,-17.2155,8.152252,-3.0580292,0.2534485,-1.1165924,-2.6718616,-7.8028,10.701063
1570727071,-0.762558,-17.2155,8.152252,-3.0580292,0.2534485,-1.1165924,-2.6718616,-7.8028,10.701063
1570727071,-2.937088,-15.615585,6.5960236,0.54148865,-1.09198,0.07543945,-5.720574,-6.119585,8.735913
1570727071,-1.3269806,-14.341873,5.478531,1.3372498,-0.9971771,0.1382904,-4.232927,-5.187746,9.584038
1570727071,-1.3652954,-12.737747,1.5251007,1.611023,1.2878113,-0.32722473,-2.9332972,-2.9444542,4.412823
1570727071,0.29029846,-8.8567505,-1.4089813,0.9207306,3.3246002,0.024307251,-1.8560762,1.4122658,0.37032557
1570727071,0.59794617,-8.4808655,-2.0470428,1.0964966,2.9805298,0.30340576,-1.6264553,1.6883354,-0.5523226
1570727071,3.4320831,-7.862564,-3.0573883,1.723938,0.9788971,0.6389618,1.2756375,2.5934467,-2.377161
1570727071,1.6466064,-8.959106,-0.88046265,1.5300598,-0.62753296,0.1105957,0.049212813,1.8078356,-1.5903401
1570727071,1.6466064,-8.959106,-0.88046265,1.5300598,-0.62753296,0.1105957,0.049212813,1.8078356,-1.5903401
1570727071,3.6433716,-9.440338,-12.37323,0.6000824,-2.7825623,-0.12269592,2.4615834,0.94921875,-13.864663
1570727071,3.6433716,-9.440338,-12.37323,0.6000824,-2.7825623,-0.12269592,2.4615834,0.94921875,-13.864663
1570727071,1.0953522,-7.699753,3.289627,-0.7741089,-1.0419159,0.37583923,-0.62421834,2.9452324,3.1853068
1570727071,1.0953522,-7.699753,3.289627,-0.7741089,-1.0419159,0.37583923,-0.62421834,2.9452324,3.1853068
1570727071,2.7688904,-8.628098,2.8844147,-1.3301697,0.9107208,-0.18875122,0.8528812,2.1240568,2.8582468
1570727071,-0.9295502,-8.819641,0.20350647,-0.7698517,1.043869,-0.82258606,-1.9008498,1.2019367,0.78796554
1570727072,-3.4171295,-7.8529816,-0.14245605,-0.21803284,0.59539795,-0.34747314,-5.156539,2.641695,0.030692935
1570727072,-1.8914185,-12.325348,0.073028564,-0.003921509,0.6017914,0.24906921,-4.1249313,-1.6427326,0.5949158
1570727072,-2.0524292,-15.243881,-5.2121735,-0.10725403,-0.79797363,-0.006591797,-4.010622,-4.7196264,-5.521797
1570727072,-0.46507263,-13.316544,-1.2826996,-1.47612,1.1642456,0.47598267,-2.491481,-2.5651293,-1.1459157
1570727072,1.356308,-13.530228,-0.2926941,-1.7839813,2.622589,0.77319336,-0.9200771,-3.0666466,0.2839111
1570727072,5.0888824,-16.15068,-4.7614746,-1.1948853,2.9720001,-0.096069336,3.317682,-5.0479736,-2.511218
1570727072,2.9394836,-17.695541,-2.4241333,-2.067337,1.0822296,-0.79914856,1.0529063,-7.8225803,-1.8665601
1570727072,-0.06225586,-10.084381,4.1377716,-0.69740295,-0.25787354,-0.32829285,-2.435285,-0.4125309,5.000737
1570727072,-0.06225586,-10.084381,4.1377716,-0.69740295,-0.25787354,-0.32829285,-2.435285,-0.4125309,5.000737
1570727072,1.5310974,-7.523178,2.9879608,-0.28515625,2.124054,-0.0055236816,-1.2462468,2.431489,5.6029344
1570727072,0.47824097,-8.534729,1.7148438,-0.2457428,2.8708038,-0.21963501,-1.8536577,1.6672878,4.330023
1570727072,1.8082275,-7.597992,1.9081726,0.93670654,0.4068451,0.45254517,-1.5308065,1.7619219,3.8928022
1570727072,3.3195648,-5.5844727,2.0183105,1.1508331,9.765625E-4,0.863739,0.31344318,4.0875883,3.7129369
1570727072,3.5518036,-4.162918,3.2878418,1.3297882,0.51976013,1.1194,1.1098139,5.8912106,4.732998
1570727072,1.8441315,-5.9124756,5.7969666,0.9441681,1.057724,1.0107422,0.18562639,4.057873,4.1084447
1570727072,1.8441315,-5.9124756,5.7969666,0.9441681,1.057724,1.0107422,0.18562639,4.057873,4.1084447
1570727072,5.746689,-10.432739,2.9269104,0.9814453,3.1584167,1.1066132,3.3974721,0.37895775,3.457939
1570727072,4.8123474,-11.353302,-10.0784,0.83018494,1.4923553,1.0650635,3.3000238,-1.2063761,-10.216036
1570727072,3.257904,-12.934082,-3.6493683,0.9665375,-5.0313263,2.1452484,3.3553407,-2.5717115,-6.29378
1570727072,3.257904,-12.934082,-3.6493683,0.9665375,-5.0313263,2.1452484,3.3553407,-2.5717115,-6.29378
1570727072,5.3546295,-9.494812,4.5448,-0.04333496,-0.43684387,1.7031555,5.2519546,1.9243755,4.092322
1570727072,5.3546295,-9.494812,4.5448,-0.04333496,-0.43684387,1.7031555,5.2519546,1.9243755,4.092322
1570727072,-5.732315,-15.3354645,-4.050995,-1.2438812,0.6166992,1.4102173,-5.3474636,-5.827099,-7.367877
1570727072,-5.732315,-15.3354645,-4.050995,-1.2438812,0.6166992,1.4102173,-5.3474636,-5.827099,-7.367877
1570727072,-5.2911835,-10.083176,3.5511932,-0.40979004,0.9501343,1.8054352,-1.3280742,1.9976282,4.408262
1570727072,-5.2911835,-10.083176,3.5511932,-0.40979004,0.9501343,1.8054352,-1.3280742,1.9976282,4.408262
1570727072,-1.0528564,-7.894287,12.063782,-1.1661224,-1.5628357,-0.5860901,2.9616265,0.4451723,7.4627013
1570727072,-1.0528564,-7.894287,12.063782,-1.1661224,-1.5628357,-0.5860901,2.9616265,0.4451723,7.4627013
1570727072,-2.0566254,-13.105255,0.5279236,0.05253601,4.640213,-1.7110138,0.838974,-2.3758307,1.7936378
1570727072,-2.0566254,-13.105255,0.5279236,0.05253601,4.640213,-1.7110138,0.838974,-2.3758307,1.7936378
1570727072,1.9411011,-13.663712,3.8211517,0.007797241,0.8915405,0.65068054,3.2227569,-3.6562243,3.7959793
1570727072,2.3265686,-13.414719,3.6780853,0.10473633,0.81910706,0.6858368,3.2227569,-3.6562243,3.7959793
1570727072,4.7931976,-11.720215,0.4806366,0.71087646,-0.086364746,-0.39967346,6.936181,-1.3578701,0.94027865
1570727073,1.2348022,-13.675079,-3.4290924,1.7068939,-2.2094421,-1.3861084,1.8775771,-1.6689167,-5.3933916
1570727073,1.2348022,-13.675079,-3.4290924,1.7068939,-2.2094421,-1.3861084,1.8775771,-1.6689167,-5.3933916
1570727073,-2.2960358,-10.449493,-1.2521667,0.42538452,-2.474701,-0.78315735,-1.1292863,-0.9033756,-2.6162262
1570727073,-8.069061,-12.968796,6.8641815,-0.5099182,-0.7862549,2.329544,-7.308311,-1.5619993,4.8481717
1570727073,-7.8368225,-13.195038,7.190979,-0.31924438,-0.82992554,2.5415192,-7.0507364,-2.0597239,5.817243
1570727073,-1.7154388,-11.116882,-7.135315,4.7247925,-7.3749084,2.744995,4.907054,-4.5553923,-8.261652
1570727073,-1.7154388,-11.116882,-7.135315,4.7247925,-7.3749084,2.744995,4.907054,-4.5553923,-8.261652
1570727073,0.6147156,-10.238205,-1.8519135,-0.28408813,-1.8674927,3.2158356,1.5665789,-2.621769,-5.535706
1570727073,0.6147156,-10.238205,-1.8519135,-0.28408813,-1.8674927,3.2158356,1.5665789,-2.621769,-5.535706
1570727073,0.38845825,-6.6427155,8.444351,-1.366394,-2.714386,-0.5722351,1.1704912,1.4469986,6.0524535
1570727073,0.38845825,-6.6427155,8.444351,-1.366394,-2.714386,-0.5722351,1.1704912,1.4469986,6.0524535
1570727073,-6.257248,-12.270889,10.624268,-1.2875671,-6.174362,-1.5853119,-5.128868,-1.2800655,0.575439
1570727073,-6.257248,-12.270889,10.624268,-1.2875671,-6.174362,-1.5853119,-5.128868,-1.2800655,0.575439
1570727073,2.2002716,-10.639832,3.6140442,1.5822601,-1.2144928,0.9233856,1.9908017,-0.85442066,-0.87730503
1570727073,2.2002716,-10.639832,3.6140442,1.5822601,-1.2144928,0.9233856,1.9908017,-0.85442066,-0.87730503
1570727073,-0.9319458,-10.718842,8.614929,3.398529,-5.5767517,0.47384644,-1.3965256,-1.7822933,0.8190026
1570727073,-3.2064362,-11.235992,14.17128,4.3753815,-4.9066925,1.0224609,-3.823288,-2.175682,6.5089903
1570727073,-0.375885,-13.057373,14.647125,7.567978,-3.5868378,3.570572,-2.903954,-6.6484413,6.7188654
1570727073,-0.375885,-13.057373,14.647125,7.567978,-3.5868378,3.570572,-2.903954,-6.6484413,6.7188654
1570727073,4.4885254,-14.879364,7.261017,8.721664,-0.91407776,5.805496,2.3380945,-12.342836,-2.3792372
1570727073,4.4885254,-14.879364,7.261017,8.721664,-0.91407776,5.805496,2.3380945,-12.342836,-2.3792372
1570727073,4.901535,-8.456924,1.7501678,6.630539,0.75198364,8.063858,3.078085,-10.608385,-8.390497
1570727073,4.901535,-8.456924,1.7501678,6.630539,0.75198364,8.063858,3.078085,-10.608385,-8.390497
1570727073,3.6744995,-5.569519,0.52194214,3.382553,0.61351013,7.0071106,1.6960189,-8.750921,-9.396306
1570727073,3.4141388,-5.3312836,-0.26815796,1.9199524,0.047851562,6.4446564,0.86399126,-8.810457,-9.889219
1570727073,2.9299011,-2.4971466,-0.8457489,0.26239014,-2.684555,5.812958,-0.6946478,-6.111201,-10.532911
1570727073,5.4019165,2.905365,11.3628845,0.5244446,-3.4067993,5.6169434,-1.2548528,0.5225482,-2.6216593
1570727073,5.6084137,2.723404,12.709015,0.4285736,-2.8059998,5.593506,-0.9063649,1.486896,2.0843258
1570727073,5.764038,0.7984619,10.484802,0.53404236,1.7320404,-2.1317902,2.773107,0.93801785,-0.23296928
1570727073,5.764038,0.7984619,10.484802,0.53404236,1.7320404,-2.1317902,2.773107,0.93801785,-0.23296928
1570727073,1.5011597,2.60849,8.184586,0.5809021,4.0159607,-1.7397766,-1.2427862,0.18751264,-2.1481075
1570727073,1.5011597,2.60849,8.184586,0.5809021,4.0159607,-1.7397766,-1.2427862,0.18751264,-2.1481075
1570727074,-7.1766205,1.4496918,10.86908,0.03869629,1.1748962,-0.4806366,-7.227457,-1.8960316,1.9410858
1570727074,-7.1766205,1.4496918,10.86908,0.03869629,1.1748962,-0.4806366,-7.227457,-1.8960316,1.9410858
1570727074,1.2300262,2.2355804,12.599487,-0.5653076,0.59114075,0.32470703,0.49844444,0.35181427,1.5496187
1570727074,1.2300262,2.2355804,12.599487,-0.5653076,0.59114075,0.32470703,0.49844444,0.35181427,1.5496187
1570727074,-0.15982056,0.73262024,10.208282,-0.06037903,0.25663757,-0.29847717,-0.8173108,-1.4416022,-0.34223747
1570727074,-1.5125427,1.0851746,10.73381,-0.009246826,0.2545166,-0.15785217,-1.783813,-0.9390075,0.39595604
1570727074,0.6111145,0.8774719,10.498581,0.05041504,0.25024414,0.14787292,-0.05831158,-1.2102864,0.23946857
1570727074,0.9403229,0.6482239,11.098923,-0.37677002,0.54000854,0.02217102,0.92758334,-1.3389525,0.2577324
1570727074,-0.47225952,0.47883606,11.636414,-0.17436218,0.5879364,0.11166382,-0.43328294,-1.4521085,1.2734089
1570727074,-1.0396881,0.5063782,11.544235,-0.034820557,0.65504456,0.3108673,-0.76992166,-1.3347218,1.2661047
1570727074,-0.01914978,0.78590393,10.267532,0.35081482,0.5879364,0.9660034,0.22188932,-1.3981141,-0.06703663
1570727074,-0.01914978,0.78590393,10.267532,0.35081482,0.5879364,0.9660034,0.22188932,-1.3981141,-0.06703663
1570727074,-0.50457764,0.933136,8.031357,0.030166626,0.72535706,0.9233856,-0.04146707,-0.8787992,-1.7531157
1570727074,-0.50457764,0.933136,8.031357,0.030166626,0.72535706,0.9233856,-0.04146707,-0.8787992,-1.7531157
1570727074,0.10774231,1.459259,9.212891,-0.5280304,0.85531616,0.8062134,1.2492855,-0.61235,-0.9405527
1570727074,0.10774231,1.459259,9.212891,-0.5280304,0.85531616,0.8062134,1.2492855,-0.61235,-0.9405527
1570727074,0.17237854,1.2665253,11.096527,-0.20845032,-0.13644409,0.8871765,1.4246337,-0.36812305,0.3869486
1570727074,0.17237854,1.2665253,11.096527,-0.20845032,-0.13644409,0.8871765,1.4246337,-0.36812305,0.3869486
1570727074,-0.70628357,1.3766632,11.179123,-0.33096313,0.7338867,0.95428467,1.0111806,-0.42138374,0.91127014
1570727074,-0.89064026,1.5442657,11.295837,-0.28302002,0.67315674,1.2035522,0.8643861,-1.0585148,0.81132984
1570727074,-0.89064026,1.5442657,11.295837,-0.28302002,0.67315674,1.2035522,0.8643861,-1.0585148,0.81132984
1570727074,-0.5913696,0.87867737,12.195465,-0.03161621,0.4313507,1.4027557,0.90925884,-0.7111825,1.9739037
1570727074,-0.24420166,1.0139465,11.292847,0.07810974,0.23747253,1.3942413,1.3702221,-0.71492565,1.0928898
1570727074,-0.24420166,1.0139465,11.292847,0.07810974,0.23747253,1.3942413,1.3702221,-0.71492565,1.0928898
1570727074,-0.63386536,0.88764954,9.94133,0.035491943,0.5613098,1.1002197,0.7199553,-0.3475262,-0.036251068
1570727074,-0.63386536,0.88764954,9.94133,0.035491943,0.5613098,1.1002197,0.95763326,-1.115184,-0.25651264
1570727074,-2.1757355,1.921341,9.531921,-0.12641907,0.42921448,0.9873047,-0.16845965,-0.5412698,-0.7982931
1570727074,-2.5384521,2.035675,9.522934,-0.13708496,0.42388916,0.9627991,-0.11148107,-0.21199393,-0.6915865
1570727074,-2.2499542,1.6352386,11.227005,-0.19354248,0.21510315,0.7433624,0.46922064,-0.17833471,0.76863575
1570727074,-2.2499542,1.6352386,11.227005,-0.19354248,0.21510315,0.7433624,0.46922064,-0.17833471,0.76863575
1570727074,-2.4761963,0.7577667,11.254547,-0.04866028,0.28007507,0.6123352,-0.24692392,-0.7872429,1.1856375
1570727074,-2.4761963,0.7577667,11.254547,-0.04866028,0.28007507,0.6123352,-0.24692392,-0.7872429,1.1856375
1570727074,-2.315796,0.86790466,10.884644,0.026977539,0.29605103,0.57185364,-0.014876604,-0.8695197,0.8187494
1570727074,-2.315796,0.86790466,10.884644,0.026977539,0.29605103,0.57185364,-0.014876604,-0.8695197,0.8187494
1570727075,-2.315796,0.86790466,10.884644,0.026977539,0.29605103,0.57185364,-0.014876604,-0.8695197,0.8187494
1570727075,-2.315796,0.86790466,10.884644,0.026977539,0.29605103,0.57185364,-0.014876604,-0.8695197,0.8187494
1570727075,-2.059616,2.0105286,8.986038,-0.042266846,0.20231628,0.5739746,0.40029335,-0.50451446,-1.1612597
1570727075,-2.059616,2.0105286,8.986038,-0.042266846,0.20231628,0.5739746,0.40029335,-0.50451446,-1.1612597
1570727075,-2.0386658,2.0075378,9.199722,-0.1051178,0.1756897,0.57185364,0.39257836,-0.47026706,-1.0131998
1570727075,-2.0386658,2.0075378,9.199722,-0.1051178,0.1756897,0.57185364,0.39257836,-0.47026706,-1.0131998
1570727075,-2.0386658,2.0075378,9.199722,-0.1051178,0.1756897,0.57185364,0.39257836,-0.47026706,-1.0131998
1570727075,-2.0386658,2.0075378,9.199722,-0.1051178,0.1756897,0.57185364,0.39257836,-0.47026706,-1.0131998
1570727075,-0.920578,2.0069427,10.334564,-0.06890869,-0.035232544,0.27038574,1.2692113,-0.4062128,0.32619858
1570727075,-1.1947021,2.040451,10.3632965,-0.14985657,0.047851562,0.24162292,0.9663844,-0.3039434,0.32128334
1570727075,-1.4024048,1.9015961,10.25975,-0.28727722,0.098983765,0.20646667,0.7660351,-0.39833045,0.07484245
1570727075,-1.4814148,1.8507233,10.371689,-0.29367065,0.0904541,0.2086029,0.7660351,-0.39833045,0.07484245
1570727075,-1.4814148,1.8507233,10.371689,-0.29367065,0.0904541,0.2086029,0.7660351,-0.39833045,0.07484245
1570727075,-1.4814148,1.8507233,10.371689,-0.29367065,0.0904541,0.2086029,0.7660351,-0.39833045,0.07484245
1570727075,-1.4814148,1.8507233,10.371689,-0.29367065,0.0904541,0.2086029,0.7660351,-0.39833045,0.07484245
1570727075,-1.6795349,1.8357544,11.113892,0.16119385,0.07980347,-0.0854187,0.34471536,-0.61910105,1.1958961
1570727075,-1.470047,1.8710632,10.657196,0.28903198,-0.018188477,0.026443481,0.4327643,-0.609777,0.6487427
1570727075,-0.97624207,2.0739746,10.6147,0.3731842,-0.16093445,0.020050049,0.84636724,-0.6910646,0.42191696
1570727075,-0.97624207,2.0739746,10.6147,0.3731842,-0.16093445,0.020050049,0.84636724,-0.6910646,0.42191696
1570727075,-0.97624207,2.0739746,10.6147,0.3731842,-0.16093445,0.020050049,0.84636724,-0.6910646,0.42191696
1570727075,-0.97624207,2.0739746,10.6147,0.3731842,-0.16093445,0.020050049,0.84636724,-0.6910646,0.42191696
1570727075,-0.94869995,2.0093384,9.485825,0.018447876,0.22254944,-0.0342865,1.3506699,-0.9821644,-0.5713711
1570727075,-1.004364,2.2996368,9.800064,-0.03161621,0.11709595,0.13935852,0.5523889,-0.7402177,0.017559052
1570727075,-1.06781,2.2559357,10.421356,-0.01777649,-0.032043457,0.14894104,0.85843897,-0.753741,0.28045654
1570727075,-0.893631,2.4217377,10.699692,0.055740356,-0.13323975,0.15107727,0.8791766,-0.55351615,0.64970875
1570727075,-0.893631,2.4217377,10.699692,0.055740356,-0.13323975,0.15107727,0.8791766,-0.55351615,0.64970875
1570727075,-0.893631,2.4217377,10.699692,0.055740356,-0.13323975,0.15107727,0.8791766,-0.55351615,0.64970875
1570727075,-0.893631,2.4217377,10.699692,0.055740356,-0.13323975,0.15107727,0.8791766,-0.55351615,0.64970875
1570727075,-1.3952179,2.308014,8.87471,0.077041626,0.19592285,-0.021499634,0.5877247,-0.96989703,-0.6710396
1570727075,-1.0384827,2.3115997,10.224442,-0.03907776,-0.15135193,0.025375366,0.67928576,-0.82243776,0.11860466
1570727075,-0.7727356,2.395401,10.726028,0.08343506,-0.1960907,0.016845703,0.9084196,-0.76024675,0.88179207
1570727075,-0.7727356,2.395401,10.726028,0.08343506,-0.1960907,0.016845703,0.9084196,-0.76024675,0.88179207
1570727075,-0.7727356,2.395401,10.726028,0.08343506,-0.1960907,0.016845703,0.9084196,-0.76024675,0.88179207
1570727075,-0.7727356,2.395401,10.726028,0.08343506,-0.1960907,0.016845703,0.9084196,-0.76024675,0.88179207
1570727076,-0.7727356,2.395401,10.726028,0.08343506,-0.1960907,0.016845703,0.9084196,-0.76024675,0.88179207
1570727076,-0.71047974,2.3355408,10.302841,-0.17329407,0.10430908,0.042419434,1.0204107,-0.60778594,0.21039009
1570727076,-0.9582825,2.3672638,10.624268,-0.07635498,0.077682495,0.046676636,0.8142226,-0.5373955,0.57656
1570727076,-0.814621,2.3038177,10.684128,0.032302856,-0.0022125244,0.07330322,0.86762834,-0.5736363,0.6698828
1570727076,-0.814621,2.3038177,10.684128,0.032302856,-0.0022125244,0.07330322,0.86762834,-0.5736363,0.6698828
1570727076,-0.814621,2.3038177,10.684128,0.032302856,-0.0022125244,0.07330322,0.86762834,-0.5736363,0.6698828
1570727076,-0.814621,2.3038177,10.684128,0.032302856,-0.0022125244,0.07330322,0.86762834,-0.5736363,0.6698828
1570727076,-0.7799072,2.3840332,10.2920685,0.08555603,0.046783447,0.050933838,0.9277743,-0.5890722,0.4100771
1570727076,-0.8379669,2.5115204,11.446075,0.04081726,-0.21740723,0.025375366,0.959551,-0.49660468,1.1409445
1570727076,-0.6368561,2.5635986,10.626068,0.33695984,-0.12365723,-0.018310547,0.99768186,-0.5879111,0.9428234
1570727076,-0.6033325,2.5043335,9.404419,0.29222107,-0.03843689,-0.05026245,1.1591598,-0.5700984,-0.2273426
