time,ax,ay,az,gx,gy,gz,la_x,la_y,la_z,fox,foy,foz
1570726800,-1.3029633,-14.60672,6.161667,1.3886566,0.114990234,1.2565918,-3.8976393,-7.572364,10.757636
1570726800,13.040695,-7.815567,0.8405609,0.08370972,-0.5188446,1.2960052,5.2301946,1.8820152,0.46284366
1570726800,-0.16333008,-6.4700165,-3.079956,-0.93255615,-3.5314178,1.1383362,-1.6968036,8.64947,-3.508336
1570726800,1.7867432,-13.328217,0.22045898,1.1138153,1.0790558,0.3596344,-3.9374833,-5.4030123,-1.3429466
1570726800,5.671341,-9.507065,1.7671051,-0.97943115,1.193039,0.41822815,1.2109997,0.61899567,0.20145619
1570726800,2.9646912,-8.028641,-1.5440674,-1.7538757,3.5962677,-0.7684784,-0.6151445,2.0878134,-2.536225
1570726800,-4.622528,-11.888107,21.717987,-0.021759033,-0.089538574,-0.3658142,-0.79173684,-3.6271477,7.7165337
1570726800,3.240036,-6.625641,-3.3061981,1.7615051,-3.1266174,-0.113342285,1.3560214,0.66800404,-6.0269346
1570726800,3.5273285,-8.47876,-2.6190643,0.16041565,0.4377594,-0.008956909,-0.32338333,1.1545734,-4.6210175
1570726800,4.474243,-8.730148,0.92674255,-0.4148407,1.243103,0.22860718,0.7624395,0.21679497,-0.97266114
1570726800,5.3732605,-6.625641,1.1673584,-0.53733826,2.6268768,-0.2869873,3.1425893,1.2931557,-2.7457578
1570726800,-0.6613159,-5.3351746,2.2303925,-1.0476074,2.9667053,1.1170349,-3.560246,4.337286,-1.6057577
1570726800,0.23770142,-3.0570831,2.0879364,-0.93681335,1.6329956,2.1609955,-2.9068503,6.146761,0.28558874
1570726800,0.41726685,-1.2362976,2.002945,-0.43081665,1.4210052,2.3346252,-1.8842916,8.399779,0.19253969
1570726800,0.9463806,-2.7350616,5.6624756,0.8592224,-0.83735657,1.6475372,-0.13374567,7.153701,6.6137075
1570726800,0.53697205,-6.2988434,2.466217,-0.35092163,-1.5297852,1.4461975,0.15115297,4.224249,1.7865292
1570726800,1.2528381,-5.061035,3.6345825,-0.49046326,-1.176117,1.5687103,0.21745545,6.0392246,3.0969257
1570726800,0.23890686,-6.969208,4.1553345,3.0387573,0.20339966,0.94766235,0.31290936,4.6859837,2.2249699
1570726800,4.18454,-38.427826,1.2475739,1.3428497,-0.27064514,2.5348969,1.1614958,-28.536613,1.7853718
1570726800,-1.9924927,-3.543106,-9.83519,-0.9581146,1.7917175,-0.19537354,-1.1020741,4.2871532,-16.717203
1570726800,-0.36802673,-6.499954,4.544388,-1.8124542,0.112854004,0.15722656,-0.17981753,4.135768,1.5116768
1570726800,0.14193726,-9.951187,0.8202057,-0.83454895,0.42071533,0.029403687,0.8120068,0.5886221,0.42080867
1570726800,-0.19804382,-10.726913,-3.8568726,-1.1903534,1.0769196,-0.25289917,0.57783103,-0.7119093,-5.3062143
1570726801,-1.0539703,-10.2408905,-1.3142242,-2.3120728,0.39620972,-0.443573,-0.8235866,0.0963974,-2.811911
1570726801,-0.6864624,-11.287155,-0.22964478,-2.4026184,0.74243164,-0.6214752,-0.42379677,-0.73848057,-0.6063242
1570726801,-2.289383,-11.256027,0.8381653,-2.1224518,1.0865021,-0.87927246,-2.0714033,-0.9548044,1.2583399
1570726801,-2.87117,-10.380951,1.6091003,-2.027649,0.8638611,-0.77700806,-3.33555,-0.35869122,2.5588002
1570726801,-0.7343445,-10.6167755,-0.53730774,-1.9765167,0.5315094,-0.34344482,-1.7637457,0.13319778,1.1662592
1570726801,1.4527588,-9.3550415,-1.8361664,-1.5876923,0.7892914,-0.5181427,0.5501143,0.5368948,0.7228775
1570726801,-0.06994629,-9.083298,-1.3501434,-1.4332275,0.84576416,-0.9080353,-0.4408962,0.58874035,0.88188815
1570726801,-1.4190826,-7.5845184,-0.3972473,-1.263855,0.5687866,-0.8686218,-2.3757048,1.6505852,2.550788
1570726801,-1.748291,-6.0749817,-0.052474976,-0.98687744,0.60287476,-0.6118927,-3.1935284,3.2123957,3.1501548
1570726801,-1.3855591,-5.1927185,2.0998993,-0.13146973,2.372284,-0.5458374,-0.89267015,6.782565,4.715633
1570726801,-2.3240967,-1.1860199,4.2199707,-0.49153137,-0.37503052,-0.35516357,-2.0210757,7.351186,7.9489536
1570726801,1.1247559,-4.712677,-0.7264557,0.5598755,-0.3228302,0.05496216,-0.18554735,4.564351,3.3356957
1570726801,0.56451416,-4.3308105,-0.3972473,0.8347168,-0.82777405,0.10076904,-0.66093826,4.9725733,2.1692374
1570726801,-0.9246826,-7.590515,-0.6977234,1.2810669,-1.4903717,0.12313843,-2.983377,3.5884905,2.9270933
1570726801,5.7479553,-7.8251343,-3.2846527,1.23526,-1.1036835,-0.9091034,4.5238724,0.7996788,-1.0990834
1570726801,2.0237732,-4.9796295,-5.3388824,1.411026,-0.5657196,-1.1573029,0.35785806,4.619279,-2.4954493
1570726801,2.1674347,-5.5674133,-2.9805908,0.91993713,0.24388123,-1.2840729,0.038650274,4.0369663,-2.013254
1570726801,1.0194092,-7.396576,-3.854477,0.85069275,-0.5135193,-0.8856659,-1.2578053,2.0931826,-1.9057949
1570726801,0.9607544,-7.4660034,-7.3320465,0.31806946,-0.020309448,0.081604004,-1.6214445,1.8840218,-4.9425273
1570726801,-0.9929199,-9.70459,-6.919052,-0.48513794,1.8002319,0.80171204,-2.668098,1.6142874,-6.3281507
1570726801,-0.2459259,-16.001343,7.14209,-0.42868042,0.103271484,0.47148132,-2.4288566,-6.9339247,6.3244953
1570726801,-0.22317505,-10.735291,1.5444489,1.2959747,-0.8405609,0.19238281,-2.321206,-2.6394348,5.9543705
1570726801,0.25205994,-7.566574,1.1912994,-0.13253784,-0.32177734,1.2288818,-1.7659714,3.381487,1.3318331
1570726801,2.8066864,-25.160355,-0.21768188,0.46188354,-0.87464905,2.8630066,-0.99447656,-8.692362,2.9373183
1570726801,10.788956,-11.686981,-2.6585693,-1.5589294,1.3272552,0.26908875,13.3346405,-6.992486,-11.639394
1570726801,-0.25190735,-9.107239,2.6385956,-1.9584045,-2.723938,-1.620697,-0.94191515,0.47367668,5.3860006
1570726801,-4.617737,-7.922104,2.9306946,-1.1136475,1.4827881,-0.65023804,-5.516841,1.732482,4.2268534
1570726801,-3.0710907,-10.408478,6.4681244,1.1202087,4.44635,0.2147522,-4.928353,-0.9013758,8.234953
1570726801,0.2927704,-7.116455,4.0763245,2.0235596,-1.0599976,0.6579132,-1.351729,2.2868557,6.1264634
1570726801,1.4599457,-7.0865326,-5.8249054,3.3306427,-2.3511047,1.0978546,0.15770292,2.851119,-4.0227213
1570726801,1.2899475,-4.3631287,-16.014618,-2.1853027,0.8798523,0.38200378,0.8896854,5.714263,-24.196856
1570726801,-0.43147278,-5.921753,3.893158,-2.3355103,1.7363129,0.105041504,-1.2825146,3.6270657,4.386745
1570726801,-0.867218,-3.6520538,3.11026,-0.88142395,1.0982208,0.42887878,-1.7170993,5.994673,5.2158546
1570726802,1.2181244,-5.729019,-0.2679596,-0.10270691,0.5325775,0.8880005,0.0439775,4.2073526,1.8799595
1570726802,4.4311523,-9.515442,0.110321045,-0.08886719,-0.011779785,1.2565918,3.142416,0.7092905,1.8275198
1570726802,9.285385,-10.634735,-6.986084,-0.16130066,-0.68395996,1.0307465,8.104985,-0.7010813,-1.909047
1570726802,6.0328674,-14.440323,-4.101074,-1.6878204,-0.986496,-0.58206177,6.6464896,-4.427945,-2.5592134
1570726802,1.6335144,-15.979797,-5.3305054,-1.9743805,-1.0632019,-1.2095032,1.4714229,-6.5575657,-2.573448
1570726802,-3.6241455,-16.238373,-4.302185,-2.091568,-0.52737427,-1.702713,-3.698094,-6.666563,-1.3420713
1570726802,-7.0598297,-18.83368,-3.558792,-1.4172516,-0.31324768,-1.829483,-8.083287,-9.185276,1.3802662
1570726802,-0.4626007,-11.716919,-2.7974396,-1.0337524,1.4444427,-1.0965881,-2.9867377,-3.6589136,0.9700141
1570726802,1.6778107,-5.7373962,1.2918701,-0.6960602,0.30673218,-0.713089,-0.18663287,2.6278553,5.374047
1570726802,-1.0396118,-3.4497375,-1.1430359,-0.31576538,-0.58595276,-0.64598083,-2.586662,5.051649,3.7428927
1570726802,-1.4537964,-4.037506,-0.62590027,0.0549469,-6.1035156E-5,-0.3839264,-3.6659522,4.8112116,3.1836815
1570726802,-1.1724854,-4.179962,1.2774963,0.62060547,0.20553589,-0.2124176,-3.372687,4.421077,5.4360228
1570726802,-1.8620148,-2.9649048,1.1039124,1.0722809,-0.3430786,0.02619934,-3.83104,5.409628,5.228669
1570726802,-2.9429932,-1.1896057,-0.1410675,1.5005188,-0.49647522,0.5492554,-4.861569,7.4838686,3.7356415
1570726802,-2.8843384,-1.2327118,-1.3668976,1.8669586,0.25559998,1.1575165,-4.65811,7.7655926,1.8158021
1570726802,0.021026611,-3.8854828,0.48382568,1.5836029,-0.6179199,1.7711029,-1.8593551,5.8054714,2.9024422
1570726802,5.0847626,-10.975906,0.9578705,1.9511108,-2.2509613,2.040619,3.8122177,-0.5322418,3.3786945
1570726802,10.450165,-17.51088,-12.096512,3.4584656,-1.3082123,0.5865326,9.406593,-7.9148417,-6.73884
1570726802,2.2033386,-9.365814,-11.483597,1.1969147,1.3016968,-0.6214752,2.8672829,-0.15768719,-10.780598
1570726802,-4.4357758,-14.197311,-11.866669,-0.47555542,-0.65945435,-1.0571747,-4.689195,-3.3381243,-11.300717
1570726802,-3.3703613,-15.479401,3.3377075,-1.1977997,0.011657715,-1.1903229,-3.7881355,-6.2595205,3.9049833
1570726802,-3.175232,-11.172241,4.3097534,-0.41696167,0.7733154,-0.4680786,-4.7235947,-2.4169445,5.6700435
1570726802,-1.950592,-11.515808,2.7642975,-0.9389496,-0.27915955,0.22114563,-3.2202823,-0.37880516,3.9809349
1570726802,4.73761,-14.446304,0.074417114,1.2714844,-1.209137,1.2203674,3.2517812,-6.531744,2.4597735
1570726802,5.240387,-10.881332,-0.68574524,-0.6736908,-2.2914429,0.1913147,5.311221,-0.5447407,0.16076696
1570726802,0.87216187,-11.516998,0.7807007,-0.55119324,-0.41018677,-0.570343,0.78320813,-1.8160686,2.6169004
1570726802,-2.3252869,-8.740921,1.6761322,0.51301575,2.615158,-0.8483734,-2.6803079,0.2329874,3.0986872
1570726802,-2.1265717,-6.495163,2.2651062,1.7987823,2.4468536,-0.2401123,-3.4632292,2.6439505,3.4486122
1570726802,-0.34768677,-6.1803284,-4.26149,2.4070587,0.47824097,0.29891968,-2.1879613,3.8166065,-0.06601441
1570726802,1.6933746,-5.5757904,-14.452408,-0.9219055,1.1355133,0.27441406,0.7458223,3.8238287,-16.391312
1570726802,0.6542969,-6.115677,3.11026,-1.7485504,1.5339203,0.29571533,-0.3031209,3.4857635,2.3600383
1570726802,1.0960236,-4.3475647,0.95547485,-0.8973999,0.24281311,0.4650879,-0.009849131,5.0429144,3.132802
1570726802,1.0601044,-3.8830872,-2.2886658,-0.675827,1.1312561,0.2296753,0.5308007,5.5534143,-1.4406285
1570726802,0.86499023,-6.8818207,0.39164734,-0.8281555,0.6987457,0.46722412,0.06358063,3.055112,1.7735705
1570726803,3.5716248,-11.288361,1.0895538,-0.15704346,-0.30899048,0.84965515,2.5798748,-1.3431797,3.046953
1570726803,9.153702,-10.865784,-8.250229,-0.019622803,-0.32389832,0.8432617,7.787187,-1.7618151,-3.9334462
1570726803,5.9143524,-12.979858,-5.0850983,-1.7336273,-0.3462677,-0.2539673,6.4983993,-3.061739,-3.7607796
1570726803,2.1710205,-15.820572,-3.9705963,-2.1980896,-1.9590759,-0.7897949,1.8885984,-6.278023,-1.4556339
1570726803,-2.8125153,-14.362503,-2.222824,-1.7016754,0.09048462,-1.7836761,-2.7876759,-5.3050575,0.39110708
1570726803,-6.6013336,-15.33815,-1.6949005,-0.76104736,0.80207825,-1.7847443,-7.402592,-5.8068743,2.4349508
1570726803,-1.7195587,-13.663406,-4.214798,-0.65345764,0.9032898,-0.8931122,-4.5576925,-5.560713,-0.90371466
1570726803,3.5823975,-7.2648926,-0.6498413,-0.3988495,0.34934998,-0.5980377,2.049336,0.6722326,2.9579163
1570726803,-0.3620453,-4.3355865,-0.8473511,-0.26463318,-0.72976685,-0.5554352,-1.9539287,4.2375765,3.1535952
1570726803,-1.0635529,-3.7897186,-0.50857544,0.008071899,-0.6892853,-0.24224854,-3.070807,4.8030424,2.9427195
1570726803,-2.045166,-3.1289215,0.9363251,0.3010254,-0.49647522,-0.050491333,-3.8473203,5.4312763,4.4965105
1570726803,-2.816101,-2.4405823,1.0524445,0.72180176,-0.5188446,0.3319397,-4.602374,6.0675983,4.720927
1570726803,-2.3803558,-0.9322357,1.2619324,1.092514,-0.5358887,0.72395325,-4.128048,7.4486074,4.5339947
1570726803,-2.5323944,0.076919556,1.6138763,1.6549683,-0.55718994,1.0605774,-3.8522196,8.993489,4.7633204
1570726803,-0.26986694,-4.9329376,1.9981537,1.9170227,-1.1228485,1.3354187,-1.4623969,5.142562,4.488848
1570726803,4.5197296,-16.987747,1.3409424,3.5330353,-2.994522,1.5708313,3.0397053,-4.7719803,3.9974236
1570726803,8.802963,-12.874512,-23.679657,1.2789307,2.343521,-0.32000732,14.8839855,-11.134619,-34.215126
1570726803,-1.8692017,-8.542206,-13.287628,-0.89100647,0.9948883,-0.78445435,-0.72182345,0.92982197,-15.704309
1570726803,-7.093338,-11.815079,9.333984,-1.1818237,-2.4150238,-1.7346802,-7.3893623,-2.3133383,11.62879
1570726803,-6.797653,-13.65741,6.022812,-1.3831635,1.9333954,0.6568451,-8.328502,-3.537922,5.7424717
1570726803,-4.2047424,-18.40512,5.56073,0.6216736,1.0236511,0.5162201,-4.107191,-7.547698,7.2075334
1570726803,3.2687683,-16.999725,4.0487823,1.9127655,-2.611023,1.5047913,1.2191067,-8.855535,6.2435417
1570726803,6.9654083,-9.413696,-14.586487,0.18171692,-2.0357819,0.44485474,7.985194,-0.67365265,-15.194879
1570726803,1.0924377,-10.234909,1.4307251,-1.7304382,0.368515,-0.70562744,2.6373916,-0.9955816,2.1270125
1570726803,-2.024826,-9.437637,3.2120056,-0.5171051,2.150711,-0.8142853,-2.2417865,-0.07454777,4.8672
1570726803,-0.79299927,-5.466858,2.6278229,0.54389954,2.598114,-0.40415955,-1.5542629,3.4861002,4.0308056
1570726803,-0.2459259,-5.2238464,1.1996918,1.5686951,0.6337738,0.09970093,-1.1087164,4.2858734,3.0202427
1570726803,0.5501404,-4.7150726,-9.884277,1.5154266,0.30673218,0.1828003,-0.046628,4.3727703,-5.8202286
1570726803,0.017440796,-3.8208313,-5.583084,-1.4854279,1.3293915,0.27227783,-0.4165653,5.922061,-6.835628
1570726803,-0.5092926,-6.447281,3.0827332,-1.0710297,1.1024933,0.42248535,-0.9640664,3.444419,3.8802643
1570726803,0.41726685,-7.0230865,-0.44633484,-0.2230835,0.4611969,0.57588196,-0.08433136,2.2719603,1.929833
1570726803,0.23651123,-7.190674,-3.9035492,-0.29125977,1.1653442,0.4927826,0.20306472,2.5441465,-1.9914473
1570726803,2.9575195,-10.872955,-3.5480194,-0.8036499,1.6425781,0.7367401,1.9634453,-1.3084068,-2.6476634
1570726804,7.228775,-10.103226,-0.8760834,-0.98368835,0.16931152,0.70158386,6.01306,-0.34301186,1.4951711
1570726804,8.8675995,-12.739243,-6.826874,-2.0084686,-0.46984863,-0.2869873,10.265533,-3.3455992,-6.0254064
1570726804,1.7999115,-15.3992,-3.9610138,-2.8479004,-2.7186127,-1.0688934,2.8550093,-5.861333,-2.0778508
1570726804,-4.9409637,-18.38118,-2.9542542,-2.252411,-0.9939575,-1.6164398,-3.5736551,-8.314982,0.42269492
1570726804,-9.294815,-18.52124,-5.739914,-1.488617,1.1855774,-1.524826,-10.424513,-11.550666,-1.3465958
1570726804,1.4958496,-7.65036,1.4893799,-0.81217957,1.5115509,-0.72906494,-1.1604584,-0.6434431,4.5656676
1570726804,2.1973572,-3.5323334,1.0081482,-0.02708435,0.2108612,-0.61828613,1.7437863,4.289403,6.0755405
1570726804,-1.2562866,-2.4705048,-0.9934082,0.2871704,-0.79048157,-0.39990234,-2.1587377,6.1879425,3.1984725
1570726804,-1.0755157,-3.3838959,0.9004059,0.6781311,-0.9161835,-0.1932373,-2.33776,5.0611544,4.7597675
1570726804,-1.7039948,-3.2474213,1.6031036,1.2320709,-0.7436218,0.105041504,-2.8526788,5.309472,5.4655294
1570726804,-2.7227325,-3.1313019,0.93273926,1.7796173,-0.83735657,0.45018005,-3.6115427,5.3326654,4.6885695
1570726804,-2.4880981,-3.802887,1.3888245,1.9649658,-1.033371,0.6749573,-3.608007,5.369993,4.3266706
1570726804,-1.0719299,-4.8335876,0.3210144,2.04805,-1.7492218,0.655777,-1.9240046,4.467043,2.9495826
1570726804,1.6682434,-10.513824,-1.0269165,2.9801636,-1.7055511,0.84432983,0.6707735,0.018821716,1.5924615
1570726804,9.558334,-12.183792,-19.607117,1.8744202,2.6545715,-0.18791199,11.187542,-4.83444,-23.152908
1570726804,0.046173096,-7.8251343,-5.258667,0.47572327,-0.47624207,-0.8100281,1.9139768,0.7538376,-5.7210846
1570726804,-6.892227,-11.683395,-11.365082,-1.0358887,-3.408905,-0.6960449,-6.084143,-0.62405586,-11.6719265
1570726804,-5.617325,-11.752823,3.0025177,-2.284378,0.64549255,-0.30615234,-6.047866,-2.5079222,4.086547
1570726804,-4.6907654,-15.965424,10.786072,-0.3179016,3.0178375,0.29252625,-5.312393,-5.4114923,11.360863
1570726804,-3.609787,-15.222031,2.3417206,0.7473755,0.1085968,0.5971832,-4.504979,-4.3855267,4.0401893
1570726804,11.877121,-16.757904,-12.619644,-0.45211792,-0.12576294,1.2129059,12.726947,-12.057765,-16.11438
1570726804,2.5193787,-11.083649,4.781418,-2.1810455,-2.84964,0.5226135,3.8460536,-1.7717342,6.4936705
1570726804,2.5145874,-11.495453,1.947876,-0.8771515,-1.000351,-0.029190063,1.9821014,-2.7103443,4.151883
1570726804,0.15270996,-8.763672,1.8521118,0.49169922,2.1539001,-0.70350647,1.1720965,0.41691303,4.757601
1570726804,-0.80018616,-6.7549286,1.4091797,1.5825348,3.173355,-0.45317078,-1.02024,2.0940819,3.294238
1570726804,-0.23275757,-6.08934,2.332138,2.8225098,2.006897,-0.1612854,-0.8405582,3.5084028,3.403738
1570726804,-2.0188293,-5.2489777,-11.417755,3.4403534,-0.9502716,-0.23478699,-1.8907592,3.966528,-5.3852553
1570726804,-0.5811157,-4.8204193,-12.625626,-2.1032715,0.5176544,0.56629944,-1.4289292,5.047165,-16.153997
1570726804,1.5233917,-6.1264496,3.707611,-1.6995392,1.0098114,0.5833435,1.1182737,2.962819,4.1905565
1570726804,2.014206,-5.5674133,-3.4055634,-0.8952637,-0.6871643,0.43952942,2.6188312,3.3569956,0.15099514
1570726804,0.50823975,-4.3200226,-0.6438446,-1.5014038,0.5645294,0.47680664,0.54166836,5.142289,0.24462712
1570726804,0.77041626,-9.101257,1.813797,-0.8547821,-0.1662445,0.7133026,0.19967192,2.3416414,3.9802074
1570726804,5.9191437,-12.839798,-2.4646454,-0.35411072,-1.080246,1.022232,5.515776,-3.652155,0.45730782
1570726805,8.315735,-12.930771,-10.156006,-1.2787628,-0.35266113,0.34898376,9.484781,-3.796091,-7.929249
1570726805,3.0101929,-15.370468,-4.3907776,-2.9725342,-1.8866425,-0.5884552,3.9793653,-6.034421,-2.231161
1570726805,-4.1221466,-16.416733,-2.5556183,-2.47612,-0.46452332,-1.6803436,-2.4334943,-7.371312,0.52816963
1570726805,-9.859848,-15.387222,-1.2843018,-1.665451,0.60180664,-1.4491882,-9.883413,-6.9634686,2.7282252
1570726805,-0.3943634,-12.694946,-2.324585,-0.9517212,1.2793274,-1.0198822,-2.2901464,-5.2534065,0.9091387
1570726805,2.4343872,-6.249756,1.4726257,-0.30937195,0.29821777,-0.96128845,2.0717678,1.4569283,6.065449
1570726805,-1.5016785,-3.8986511,-1.6613922,0.11886597,-0.5326996,-0.6651459,-1.9696727,4.349515,2.8281355
1570726805,-2.0822754,-4.7617645,-0.13388062,0.4320526,-0.6029968,-0.37965393,-3.133573,3.6236782,3.8688235
1570726805,-1.9841156,-4.2290497,1.9981537,0.9380493,-0.53482056,-0.20283508,-2.8995492,4.0585394,5.952316
1570726805,-2.859192,-3.0858154,1.1960907,1.600647,-0.96199036,0.105041504,-3.576521,5.23258,5.2235794
1570726805,-3.875534,-2.0467377,0.37608337,1.9543152,-1.0088654,0.5897217,-4.3193817,6.564142,3.5911376
1570726805,-2.8663788,-2.7290802,0.7471771,1.7796173,-1.401947,1.0690918,-3.6775653,6.3828526,3.4900258
1570726805,1.3342438,-7.443268,0.42276,1.4355316,-1.8323212,1.1394043,1.1235453,2.2615433,2.7345579
1570726805,4.9985657,-15.81459,-4.889969,3.7961578,-1.2549438,0.29252625,4.980653,-5.934721,0.05199921
1570726805,3.9415283,-8.002304,-15.692596,1.6539154,1.4934387,-0.7226715,5.0704145,0.2037077,-17.160587
1570726805,-1.9075012,-6.4029846,-5.7578583,-0.2657013,-0.20991516,-1.2499847,-1.0532297,2.7747974,-5.1915784
1570726805,-9.155945,-12.778748,-1.743988,-1.1157837,-0.7510681,-0.99539185,-8.751075,-2.5648193,-1.7842467
1570726805,-4.3555756,-10.853806,2.1884918,-0.17727661,1.8226013,-0.070739746,-5.5737224,-2.5342827,3.8010707
1570726805,-3.2207184,-13.803467,4.1996155,-1.043335,2.8271484,0.20516968,-3.4964097,-4.178179,4.7196207
1570726805,-0.6577301,-16.66333,3.6657104,-0.049453735,-0.588089,0.9370117,-0.9503348,-5.196416,5.1794333
1570726805,4.8776703,-17.915497,-0.783905,1.5857391,-3.5580444,1.8243713,3.892672,-10.1999,3.0514455
1570726805,6.35968,-8.659515,-5.0695343,-0.9485321,-1.4552155,0.61743164,7.4090285,0.57120705,-6.408749
1570726805,0.41845703,-10.311523,2.394394,-1.4768982,-0.03201294,-0.42759705,1.6543428,-0.16944504,3.3595722
1570726805,-1.4454193,-10.27681,3.5447998,-0.14425659,2.3861237,-0.7162781,-0.17263314,-1.7394543,5.2325897
1570726805,-1.2873993,-7.336731,2.7714844,1.0818634,3.1254272,-0.19430542,-1.327089,1.5635891,4.4050226
1570726805,-0.7953949,-5.4800262,4.059555,2.2621765,0.9299164,-0.12187195,-0.80086815,3.6097145,5.35234
1570726805,-1.1772766,-5.6320496,-0.114730835,2.7980042,-1.4125977,0.23925781,-1.0808567,3.731079,0.66107535
1570726805,1.9088593,-9.254486,-13.422897,2.554062,-0.7979431,0.6334076,1.012932,0.5204201,-10.208809
1570726805,3.0856018,-7.456436,-7.891098,-1.5429535,0.97998047,0.41183472,3.8815362,1.6644487,-10.986125
1570726805,0.78118896,-7.3187714,2.8049927,-1.2052612,-0.20565796,0.48213196,1.326258,1.9103746,2.494026
1570726805,1.0936279,-7.4109497,-0.5253296,-0.57888794,-1.7779846,0.6621704,1.6815596,1.7617273,0.8336118
1570726805,0.92604065,-5.8523254,-2.6645508,-0.90486145,-1.3561401,0.6983795,1.6207113,2.9328613,-2.6389117
1570726805,1.3749542,-6.1456146,0.41438293,-1.1914062,-1.1334991,0.9029236,2.1361182,3.2823238,0.7602998
1570726805,2.500229,-8.648743,0.93751526,-0.9208374,-1.8184662,1.1074524,3.3811765,0.6356621,2.1993506
1570726806,4.971039,-10.706558,-1.2519836,-0.25930786,-1.5489502,1.007309,6.0340347,-0.83861446,0.4377941
1570726806,5.4008026,-13.8932495,-9.051086,-0.5863342,-0.6711731,0.27227783,7.552929,-4.743907,-6.517775
1570726806,2.4918365,-15.158585,-2.2132416,-2.223648,-2.1146088,-0.9410553,4.2157264,-6.037924,-1.4838772
1570726806,-1.155716,-14.880859,-2.8261566,-2.5102081,-1.2165985,-1.953064,1.0575786,-5.6353226,-0.9976361
1570726806,-8.644791,-15.245972,0.89323425,-1.7165833,1.7746735,-1.909378,-6.680553,-6.1219416,2.6722286
1570726806,-2.5060577,-14.03331,0.81422424,-1.406601,-0.5145874,-0.7450409,-4.018326,-6.713297,4.496253
1570726806,2.4882507,-7.460022,1.6821136,-0.6172333,-1.0940857,-0.52027893,2.1480913,0.21430492,4.0941224
1570726806,4.0815887,-7.483963,-0.11114502,0.07624817,-2.3170166,-1.1189575,4.358399,1.497158,4.5638075
1570726806,1.1391144,-7.9280853,-0.53730774,-0.014297485,-2.54924,-1.6164398,1.9857292,0.7129841,2.1149588
1570726806,-2.6473083,-7.831131,2.0077362,0.21473694,-2.2509613,-1.5908661,-2.2825334,0.93386745,5.0910597
1570726806,-5.1109467,-6.0582123,2.2064514,0.36387634,-2.19664,-1.1828766,-5.1229224,2.1494608,5.5026436
1570726806,-4.104187,-4.166794,0.6095123,0.56947327,-1.8163452,-0.8664856,-4.7034764,4.4035397,3.8565264
1570726806,-4.0191956,-3.395874,-0.29548645,0.8549652,-0.87358093,-0.67581177,-4.2779264,5.240945,2.6249104
1570726806,-4.0191956,-3.395874,-0.29548645,0.8549652,-0.87358093,-0.67581177,-4.2779264,5.240945,2.6249104
1570726806,-4.0191956,-3.395874,-0.29548645,0.8549652,-0.87358093,-0.67581177,-4.2779264,5.240945,2.6249104
1570726806,-4.0191956,-3.395874,-0.29548645,0.8549652,-0.87358093,-0.67581177,-4.2779264,5.240945,2.6249104
1570726806,-4.0191956,-3.395874,-0.29548645,0.8549652,-0.87358093,-0.67581177,-4.2779264,5.240945,2.6249104
1570726806,-4.0191956,-3.395874,-0.29548645,0.8549652,-0.87358093,-0.67581177,-4.2779264,5.240945,2.6249104
1570726806,-4.0191956,-3.395874,-0.29548645,0.8549652,-0.87358093,-0.67581177,-4.2779264,5.240945,2.6249104
1570726806,-4.0191956,-3.395874,-0.29548645,0.8549652,-0.87358093,-0.67581177,-4.2779264,5.240945,2.6249104
1570726806,-4.0191956,-3.395874,-0.29548645,0.8549652,-0.87358093,-0.67581177,-4.2779264,5.240945,2.6249104
1570726806,-4.0191956,-3.395874,-0.29548645,0.8549652,-0.87358093,-0.67581177,-4.2779264,5.240945,2.6249104
1570726806,-4.0191956,-3.395874,-0.29548645,0.8549652,-0.87358093,-0.67581177,-4.2779264,5.240945,2.6249104
1570726806,4.9171753,-9.981125,-14.63916,0.8549652,-0.87358093,-0.67581177,-3.5006225,3.867301,1.6260877
1570726806,2.4092407,-11.319473,-2.6489868,3.0930786,-2.803833,-0.1421051,4.1404376,-4.173872,0.3233677
1570726806,0.47233582,-8.212997,-3.8604584,1.4962463,0.49742126,-1.1626282,2.7722917,1.655611,-2.8588967
1570726806,-3.594223,-9.92485,0.31982422,1.1468506,2.3531036,-1.5525208,-1.6535501,-0.7121086,0.5336242
1570726806,-3.9473572,-9.7859955,2.5895233,1.5931854,1.8833313,-0.31575012,-3.8109803,-0.85787296,3.1137128
1570726806,-2.179245,-5.239395,-0.8270111,1.7327423,-0.87997437,0.27653503,-1.9818764,3.076973,1.0026777
1570726806,1.2540436,-5.3950195,-3.5599823,0.75909424,-2.2360535,0.87628174,1.2223697,4.0531015,-3.8569856
1570726806,1.8118896,-8.7708435,0.14025879,0.6024933,-0.6914215,0.45336914,2.9354992,0.95485973,-0.9965825
1570726806,0.36817932,-7.9664,1.1434174,0.7622833,-0.082092285,0.22434998,1.9211154,0.9348984,0.6102076
1570726806,-0.5631561,-8.424881,0.97224426,0.75375366,-0.050125122,0.32661438,0.7254839,0.7599411,0.26950878
1570726807,0.07489014,-9.226944,0.9578705,0.85176086,0.12670898,0.42460632,1.2871882,-0.096800804,0.018825889
1570726807,0.67463684,-9.577698,1.240387,0.581192,-0.32389832,0.43527222,2.017776,-0.38538265,0.046260715
1570726807,0.8063202,-10.781982,0.30426025,0.4736023,-1.1835632,0.3361969,2.413735,-1.8727655,-0.70359063
1570726807,-0.20043945,-10.621567,-2.4706268,0.35429382,-0.3388214,0.116744995,1.8765455,-1.838892,-3.0777135
1570726807,-2.0667114,-9.3694,-2.4598541,-0.40631104,0.093673706,0.3127594,-0.5234815,-0.62096596,-4.5941114
1570726807,0.8937073,-10.346237,0.76394653,-1.2904816,-1.0557404,0.8432617,1.9422168,-1.0364189,-0.93211985
1570726807,4.50177,-13.080414,1.1194763,-1.1796875,-1.8962402,1.0690918,5.4896097,-3.6502504,0.5599113
1570726807,5.386429,-12.014999,-1.9331207,-1.4193726,-2.3138123,0.5215454,7.674079,-3.864522,-1.9000841
1570726807,1.6383057,-9.873383,-3.9322815,-2.3237915,-1.6735992,-0.24118042,4.601957,-1.2486668,-4.4345617
1570726807,-1.0791016,-9.499878,0.4407196,-3.131256,-2.6834564,-0.43185425,0.9435129,-0.51446915,0.42784658
1570726807,-2.5671082,-10.513824,1.066803,-2.794632,-1.0536041,-0.8963165,-0.5773181,-1.234643,2.2884734
1570726807,-2.344452,-11.811493,3.0599823,-2.3908997,0.159729,-0.7418518,-1.4500602,-2.7662067,3.9589467
1570726807,2.1087646,-10.034988,5.3895416,-2.2332458,-1.4839783,-0.5106964,2.9918957,-1.5117702,6.992717
1570726807,2.595993,-8.97435,2.897171,-1.3554688,-1.8206024,-0.713089,3.9100533,-0.24272919,6.2582026
1570726807,3.8074493,-8.420105,2.2902374,-0.84413147,-0.9406891,-1.1700897,4.5804787,0.16575718,4.036689
1570726807,4.3449554,-9.899719,2.2519379,-0.068618774,-1.9985046,-1.9924774,5.3602505,-0.60620403,6.1837063
1570726807,0.72612,-10.886124,0.9901886,-0.43933105,-3.0509796,-2.3738403,1.5748298,-2.1039906,3.5632622
1570726807,-2.3803558,-11.238068,2.3931885,-0.7290802,-3.4195557,-2.2875519,-1.8357525,-2.4092207,4.863701
1570726807,-2.893921,-10.404892,2.2615204,-0.340271,-3.0605621,-2.0148468,-3.1060898,-1.8197889,5.388856
1570726807,-2.895111,-8.587692,1.837738,-0.045181274,-2.7484436,-1.8113708,-3.204344,-0.28858852,4.8030863
1570726807,-3.8803253,-6.9057617,1.7683105,0.31381226,-2.375595,-1.4523773,-4.2799,1.5887737,4.7488627
1570726807,-5.326416,-6.103714,1.3014374,0.7090149,-1.9835815,-0.9591675,-5.8592534,2.4696646,4.201639
1570726807,-5.077423,-5.1891174,0.7424011,1.0669556,-2.119934,-0.39031982,-5.849481,3.4062881,3.4500425
1570726807,-3.7354736,-4.8611145,-0.28710938,1.2565613,-2.16362,0.23712158,-4.20328,3.9487495,2.0142326
1570726807,-3.7187195,-7.664734,-1.6709595,1.2895813,-2.146576,0.75590515,-3.9608889,1.7293577,0.46873426
1570726807,-0.0029144287,-16.459824,-12.292831,0.99664307,-2.499176,0.8390045,-0.75234807,-5.891882,-7.4296904
1570726807,5.9897766,-16.525665,-16.334244,-1.203125,-0.20140076,-0.07499695,6.5683928,-9.992855,-18.348957
1570726807,2.86055,-7.8299255,-2.293457,-0.6747589,-0.5987396,-0.91015625,2.970979,0.7298355,-0.8117242
1570726807,6.2639008,-4.424179,1.3936157,-0.34985352,-0.81391907,-1.2915344,5.84127,3.9407024,1.5484493
1570726807,-1.9015198,-6.747757,8.648041,0.21260071,-0.19607544,-0.7045746,-0.8178225,3.9726439,11.364237
1570726807,-4.2729797,-24.964035,-6.672455,2.1375427,-0.21524048,0.513031,-6.044947,-16.685635,-0.7958168
1570726807,-3.270996,-6.218628,-3.0141144,-0.3637085,-1.256012,-0.25502014,-3.0673938,2.1978922,-2.7297885
1570726807,-4.159256,-3.5874023,1.6294403,-0.6172333,-1.7907715,0.18173218,-4.6360593,5.1195116,3.5199962
1570726808,-3.199173,-6.972809,3.7662659,-0.9240265,-1.3337708,0.9412689,-3.4045503,2.790493,5.0685787
1570726808,-1.5196381,-12.496231,5.593048,-0.82496643,-3.2853394,0.85284424,-1.205395,-3.022663,8.002661
1570726808,1.6586609,-10.274414,3.2024384,0.6259308,-3.8893433,0.37667847,2.4420292,-2.028718,5.8095083
1570726808,2.2739716,-9.163498,-2.4646454,2.6712341,-1.9878387,-0.4915161,3.4426408,-0.35650826,-0.41709435
1570726808,0.90927124,-8.281235,-3.2798615,1.9138336,2.1592255,-1.0007172,2.0350137,0.90898895,-2.8519433
1570726808,-1.5890808,-8.12561,-1.585968,1.3162231,2.8292847,-1.0678253,-0.7742665,0.89807034,-1.290309
1570726808,-2.400711,-9.022247,-0.71687317,0.76441956,0.7072754,-0.3647461,-2.138545,0.12437248,-0.4157491
1570726808,-0.25550842,-8.071747,-1.0795898,-0.014297485,-0.9215088,0.24990845,-0.46552128,0.936985,-0.91496634
1570726808,0.8266754,-7.72937,-1.6458282,-0.28700256,-0.55400085,0.10290527,1.2009593,1.3677931,-1.308485
1570726808,0.65190125,-7.1188507,-3.2906342,-0.28807068,0.9128723,-0.14849854,0.9387611,1.9439526,-2.7339568
1570726808,-1.0994568,-6.606491,-4.5918884,-0.40098572,1.4359131,-0.37965393,-0.39626345,2.2492828,-4.015775
1570726808,-2.7789917,-5.0742035,-1.8684845,-1.2702484,0.8052826,-0.0057525635,-2.5025911,3.7553291,-1.8012835
1570726808,-2.266632,-5.5841675,-0.53611755,-1.1573181,0.39941406,0.42460632,-2.2113483,3.7061005,0.63186693
1570726808,0.18144226,-6.893799,-1.412384,-1.1626434,0.14907837,0.90504456,-0.31941554,2.4961557,-0.24154997
1570726808,3.113144,-7.6527557,-0.3481598,-1.28302,0.021240234,0.95085144,3.489881,1.0654612,1.0149016
1570726808,5.7790833,-7.8610535,1.4893799,-0.91018677,-0.77983093,0.5918579,6.353679,1.2120447,3.512392
1570726808,6.814575,-11.751633,-2.3437347,-0.23587036,0.64868164,-0.2859192,7.8692327,-1.3814249,1.8321781
1570726808,2.3601685,-17.003311,-17.953934,-1.0923462,2.9017181,-1.4108429,4.488723,-7.0210752,-13.096455
1570726808,-2.6173859,-18.309357,-2.0576324,-3.0385742,-1.9473724,-1.8997955,-2.335741,-9.803078,-0.26732516
1570726808,-2.9609528,-18.18126,-1.6757507,-2.9672089,-2.0411072,-1.8891449,-2.6551678,-9.751622,0.8464935
1570726808,-2.9609528,-18.18126,-1.6757507,-2.9672089,-2.0411072,-1.8891449,-2.6551678,-9.751622,0.8464935
1570726808,-2.9609528,-18.18126,-1.6757507,-2.9672089,-2.0411072,-1.8891449,-2.6551678,-9.751622,0.8464935
1570726808,-2.9609528,-18.18126,-1.6757507,-2.9672089,-2.0411072,-1.8891449,-2.6551678,-9.751622,0.8464935
1570726808,-2.9609528,-18.18126,-1.6757507,-2.9672089,-2.0411072,-1.8891449,-2.6551678,-9.751622,0.8464935
1570726808,-2.9609528,-18.18126,-1.6757507,-2.9672089,-2.0411072,-1.8891449,-2.6551678,-9.751622,0.8464935
1570726808,-2.9609528,-18.18126,-1.6757507,-2.9672089,-2.0411072,-1.8891449,-2.6551678,-9.751622,0.8464935
1570726808,-2.9609528,-18.18126,-1.6757507,-2.9672089,-2.0411072,-1.8891449,-2.6551678,-9.751622,0.8464935
1570726808,-2.9609528,-18.18126,-1.6757507,-2.9672089,-2.0411072,-1.8891449,-2.6551678,-9.751622,0.8464935
1570726808,-2.9609528,-18.18126,-1.6757507,-2.9672089,-2.0411072,-1.8891449,-2.6551678,-9.751622,0.8464935
1570726808,-1.818924,-3.6664124,-0.75398254,-2.9672089,-2.0411072,-1.8891449,-2.6551678,-9.751622,0.8464935
1570726808,1.4599457,-6.2569427,2.066391,1.7838745,-1.8397675,1.2651062,1.2593472,2.3872862,4.6599083
1570726808,2.774353,-11.950348,0.15461731,2.986557,-3.647522,0.82196045,2.9549608,-2.537753,3.0169325
1570726808,3.3848877,-12.224487,-15.0677185,3.9442291,-1.6363068,0.1828003,4.028534,-3.4976902,-12.058011
1570726808,-1.5172424,-11.8342285,-11.210663,1.0360565,3.1627045,-0.2635498,-0.7321827,-2.133626,-13.722203
1570726809,-5.3946533,-14.3637085,-8.808075,-0.16343689,-2.4885254,-1.1040344,-5.137565,-5.5433254,-8.459189
1570726809,-3.8551788,-11.077667,2.7140198,-1.1743622,0.5805054,-0.89738464,-3.7329736,-2.3242407,3.3556755
1570726809,-2.744278,-7.6156464,6.067093,-1.1157837,2.534195,0.16255188,-3.1732178,1.32796,6.48747
1570726809,-4.4692993,-24.585754,6.853592,-0.97836304,1.3506927,1.0808105,-4.109726,-14.10454,7.5430617
1570726809,2.9096375,-18.116623,4.509674,2.4656372,-4.6126556,1.200119,3.4604173,-10.286155,5.7864513
1570726809,6.5835266,-4.0027924,-20.337357,1.3993073,-0.5454712,0.5162201,7.4229226,5.1869802,-21.047905
1570726809,2.7911224,-5.3435516,0.23721313,-2.2950287,0.7498779,-1.2201538,3.4973326,3.7366533,0.65246546
1570726809,-1.7925873,-9.96077,2.4015808,-0.5192261,4.5496826,-1.7719574,-1.4399812,-0.629179,3.4102595
1570726809,-6.855118,-11.08963,7.7657776,1.2576294,6.2690125,-0.55223083,-7.24714,-2.2850485,8.339744
1570726809,-2.5671082,-5.5171356,3.3784027,2.5860138,-0.5476074,0.22753906,-3.1426044,3.3748655,3.6993139
1570726809,-2.0822754,-4.151245,-0.0440979,2.0523224,-2.7665558,0.73353577,-2.2051694,4.7885513,-0.81151414
1570726809,6.45784,-10.500656,-22.475372,-0.46276855,-2.053894,0.5503082,6.5348067,-1.6191578,-23.817526
1570726809,1.0804596,-7.5414276,0.13067627,-1.8827667,2.2572327,0.26376343,1.1113979,1.504467,-0.5925601
1570726809,0.28079224,-5.894211,2.5200958,-1.1583862,0.34614563,0.22328186,0.34917468,3.1241455,2.6795685
1570726809,-0.43507385,-5.5482483,-0.8748932,-0.7535858,-0.8863678,0.3873291,-0.2497553,3.383072,-0.23181847
1570726809,-0.23036194,-5.2513733,-2.277893,-1.0358887,0.30566406,0.5673523,9.1189146E-4,3.77143,-1.7914758
1570726809,0.18981934,-8.491928,0.92674255,-0.8601074,0.65826416,0.77934265,0.5642623,0.5272503,1.8079046
1570726809,1.7113342,-9.222153,1.1829224,-0.7802124,-0.11190796,0.99879456,2.2743232,-0.17636108,2.4891796
1570726809,6.53685,-12.246033,-7.9282074,-0.48088074,0.15333557,0.68666077,7.0822043,-3.0785017,-5.7542524
1570726809,3.4196014,-15.016129,-7.965317,-3.1802673,0.15440369,-0.7397156,4.546051,-6.0740976,-6.8513384
1570726809,-1.5711212,-17.367233,-2.913559,-3.6596222,-2.4629517,-1.3607635,-0.7484031,-8.678404,-0.4296415
1570726809,-6.9640503,-21.314072,0.15940857,-2.6966248,0.2140503,-1.4151001,-6.5099225,-12.886619,3.7667215
1570726809,-5.6005554,-15.138229,-2.7770844,-1.5290985,2.4585724,-1.5344086,-6.152636,-7.2624655,1.146893
1570726809,4.726837,-9.745285,-0.89523315,-0.7194977,1.0854492,-1.3362732,3.7328432,-1.7447376,3.381096
1570726809,0.33106995,-4.7150726,-0.48223877,-0.5437317,-0.41764832,-1.3905945,-0.24774706,2.7605276,3.5545807
1570726809,-2.088272,-1.1752472,0.4694519,-0.2742157,-1.497818,-0.8153534,-3.054027,6.369129,4.8692284
1570726809,-4.2370605,-0.28100586,1.1517944,0.16679382,-0.9673157,-0.24757385,-5.32803,7.746317,5.4412103
1570726809,-3.7917328,-2.150879,1.1829224,0.8581543,-1.1846313,0.083724976,-4.888943,5.7638545,5.6089025
1570726809,-1.9984894,-2.6823883,0.6107178,1.4664154,-1.0908966,0.4384613,-2.8168707,5.279829,4.6968145
1570726809,-2.282196,-2.3292542,-0.44633484,2.0011902,-0.22163391,0.7164917,-2.7703342,5.787565,3.2790487
1570726809,-2.3480377,-3.0666656,0.52093506,2.2653656,0.72431946,0.91996765,-2.922627,5.6731567,3.3538043
1570726809,0.4699402,-7.3187714,2.0891266,2.0842743,0.081970215,0.91889954,-0.059783727,1.6128216,4.4505224
1570726809,2.5612793,-10.366592,2.5392456,2.2131805,-1.2996826,1.0030518,2.4776175,-1.4070196,4.440709
1570726810,3.193344,-14.944305,-0.9503021,5.1586304,-3.1340637,0.5918579,3.3538432,-5.7177315,2.3191347
1570726810,-2.1804352,-14.94191,-18.894852,0.71647644,3.6431427,-0.17832947,-1.7219155,-5.765669,-19.936956
1570726810,-4.1029816,-12.560867,-0.0045928955,-1.6089935,-2.5385895,-1.1700897,-3.9799557,-4.026249,-0.90697265
1570726810,-2.9992523,-9.089279,5.2267303,-0.6641083,1.577591,-0.3924408,-3.7254894,-1.1739407,6.4771047
1570726810,-1.6213989,-6.704651,4.6736755,-1.2574615,1.2974243,0.3404541,-1.7126988,2.4282646,5.5002236
1570726810,-3.6504822,-35.93785,7.9621124,0.06880188,-0.37609863,1.4866791,-4.8623514,-25.92931,8.188439
1570726810,4.330597,-8.774445,-7.1022034,3.291214,-3.9191742,0.49598694,4.7061195,-2.9344501,-1.0021815
1570726810,4.145035,-5.5686035,-1.9103851,-1.8284454,0.2651825,-0.4872589,5.202641,3.5944176,-4.116572
1570726810,-1.7566681,-7.8862,1.6390228,-2.2129974,0.7413635,-1.4886017,-0.5699315,2.1643639,2.189385
1570726810,-4.681183,-12.468689,3.4993134,-0.18687439,4.7062836,-0.22413635,-5.1191278,-3.9774704,4.4818063
1570726810,-1.4286652,-8.106461,4.138565,1.2054291,6.09964,0.22540283,-1.7758085,0.46453,5.290819
1570726810,-1.7387085,-4.2948914,4.0691376,2.4986572,0.070251465,-0.1186676,-1.8089552,4.8076982,5.603444
1570726810,-2.014038,-5.502762,-0.6641998,2.1439362,-2.0453644,0.25523376,-2.269112,3.49891,-0.70202196
1570726810,-0.33810425,-6.7501373,0.730423,2.1311493,-2.3010406,1.1681671,-0.97649765,2.6836576,0.40926927
1570726810,4.419174,-8.7708435,-28.288498,-1.7623901,-1.5308533,0.118881226,5.296197,-0.91080666,-33.255238
1570726810,-0.159729,-7.369049,3.5591736,-3.064148,3.6026611,0.23925781,-0.15095487,1.6232395,2.230436
1570726810,-0.97735596,-5.377075,5.315323,-1.5546722,0.32377625,0.1593628,-0.82294166,3.265235,7.2090764
1570726810,-0.51168823,-5.02034,1.8784485,-1.0422821,-0.25785828,0.606781,-0.41726846,3.9230003,2.7063491
1570726810,1.9459686,-8.31955,0.8812561,-0.38075256,-0.95347595,0.9732208,2.0167408,0.9325857,2.152526
1570726810,3.9487152,-10.137939,-3.1457825,-0.32855225,-0.9960785,1.0062408,4.272853,-1.1748838,-1.1044271
1570726810,6.7212067,-12.526154,-7.3799286,-0.9996643,0.8841095,0.2861328,7.84015,-3.1342344,-6.007337
1570726810,0.29516602,-17.204422,-4.637375,-2.0670624,-0.52737427,-1.015625,2.0001214,-8.012198,-3.0177097
1570726810,-2.8580017,-15.390823,-5.7135773,-2.6593475,-1.0120697,-1.1189575,-2.15126,-6.9016266,-3.5789394
1570726810,-3.5223846,-15.308212,-2.5400543,-2.666809,-0.2440033,-1.3447876,-3.0543604,-6.6337795,-0.24588442
1570726819,-3.5223846,-15.308212,-2.5400543,-2.666809,-0.2440033,-1.3447876,-3.0543604,-6.6337795,-0.24588442
1570726819,-3.5223846,-15.308212,-2.5400543,-2.666809,-0.2440033,-1.3447876,-3.0543604,-6.6337795,-0.24588442
1570726819,-3.5223846,-15.308212,-2.5400543,-2.666809,-0.2440033,-1.3447876,-3.0543604,-6.6337795,-0.24588442
1570726819,-3.5223846,-15.308212,-2.5400543,-2.666809,-0.2440033,-1.3447876,-3.0543604,-6.6337795,-0.24588442
1570726819,-3.5223846,-15.308212,-2.5400543,-2.666809,-0.2440033,-1.3447876,-3.0543604,-6.6337795,-0.24588442
1570726819,-3.5223846,-15.308212,-2.5400543,-2.666809,-0.2440033,-1.3447876,-3.0543604,-6.6337795,-0.24588442
1570726819,-3.5223846,-15.308212,-2.5400543,-2.666809,-0.2440033,-1.3447876,-3.0543604,-6.6337795,-0.24588442
1570726819,-3.5223846,-15.308212,-2.5400543,-2.666809,-0.2440033,-1.3447876,-3.0543604,-6.6337795,-0.24588442
1570726819,-3.5223846,-15.308212,-2.5400543,-2.666809,-0.2440033,-1.3447876,-3.0543604,-6.6337795,-0.24588442
1570726819,-3.5223846,-15.308212,-2.5400543,-2.666809,-0.2440033,-1.3447876,-3.0543604,-6.6337795,-0.24588442
1570726819,-3.5223846,-15.308212,-2.5400543,-2.666809,-0.2440033,-1.3447876,-3.0543604,-6.6337795,-0.24588442
1570726819,-3.5223846,-15.308212,-2.5400543,-2.666809,-0.2440033,-1.3447876,-3.0543604,-6.6337795,-0.24588442
1570726819,-3.5223846,-15.308212,-2.5400543,-2.666809,-0.2440033,-1.3447876,-3.0543604,-6.6337795,-0.24588442
1570726819,-3.5223846,-15.308212,-2.5400543,-2.666809,-0.2440033,-1.3447876,-3.0543604,-6.6337795,-0.24588442
1570726819,-3.5223846,-15.308212,-2.5400543,-2.666809,-0.2440033,-1.3447876,-3.0543604,-6.6337795,-0.24588442
1570726819,-3.5223846,-15.308212,-2.5400543,-2.666809,-0.2440033,-1.3447876,-3.0543604,-6.6337795,-0.24588442
1570726819,-3.5223846,-15.308212,-2.5400543,-2.666809,-0.2440033,-1.3447876,-3.0543604,-6.6337795,-0.24588442
1570726819,-3.5223846,-15.308212,-2.5400543,-2.666809,-0.2440033,-1.3447876,-3.0543604,-6.6337795,-0.24588442
1570726819,-3.5223846,-15.308212,-2.5400543,-2.666809,-0.2440033,-1.3447876,-3.0543604,-6.6337795,-0.24588442
1570726819,-3.5223846,-15.308212,-2.5400543,-2.666809,-0.2440033,-1.3447876,-3.0543604,-6.6337795,-0.24588442
1570726819,-3.5223846,-15.308212,-2.5400543,-2.666809,-0.2440033,-1.3447876,-3.0543604,-6.6337795,-0.24588442
1570726819,-3.5223846,-15.308212,-2.5400543,-2.666809,-0.2440033,-1.3447876,-3.0543604,-6.6337795,-0.24588442
1570726819,-3.5223846,-15.308212,-2.5400543,-2.666809,-0.2440033,-1.3447876,-3.0543604,-6.6337795,-0.24588442
1570726819,-3.5223846,-15.308212,-2.5400543,-2.666809,-0.2440033,-1.3447876,-3.0543604,-6.6337795,-0.24588442
1570726819,-3.5223846,-15.308212,-2.5400543,-2.666809,-0.2440033,-1.3447876,-3.0543604,-6.6337795,-0.24588442
1570726819,-3.5223846,-15.308212,-2.5400543,-2.666809,-0.2440033,-1.3447876,-3.0543604,-6.6337795,-0.24588442
1570726819,-3.5223846,-15.308212,-2.5400543,-2.666809,-0.2440033,-1.3447876,-3.0543604,-6.6337795,-0.24588442
1570726819,-3.5223846,-15.308212,-2.5400543,-2.666809,-0.2440033,-1.3447876,-3.0543604,-6.6337795,-0.24588442
1570726819,-3.5223846,-15.308212,-2.5400543,-2.666809,-0.2440033,-1.3447876,-3.0543604,-6.6337795,-0.24588442
1570726819,-3.5223846,-15.308212,-2.5400543,-2.666809,-0.2440033,-1.3447876,-3.0543604,-6.6337795,-0.24588442
1570726819,-3.5223846,-15.308212,-2.5400543,-2.666809,-0.2440033,-1.3447876,-3.0543604,-6.6337795,-0.24588442
1570726819,-3.5223846,-15.308212,-2.5400543,-2.666809,-0.2440033,-1.3447876,-3.0543604,-6.6337795,-0.24588442
1570726819,-3.5223846,-15.308212,-2.5400543,-2.666809,-0.2440033,-1.3447876,-3.0543604,-6.6337795,-0.24588442
1570726819,-3.5223846,-15.308212,-2.5400543,-2.666809,-0.2440033,-1.3447876,-3.0543604,-6.6337795,-0.24588442
1570726819,-3.5223846,-15.308212,-2.5400543,-2.666809,-0.2440033,-1.3447876,-3.0543604,-6.6337795,-0.24588442
1570726819,-3.5223846,-15.308212,-2.5400543,-2.666809,-0.2440033,-1.3447876,-3.0543604,-6.6337795,-0.24588442
1570726819,-3.5223846,-15.308212,-2.5400543,-2.666809,-0.2440033,-1.3447876,-3.0543604,-6.6337795,-0.24588442
1570726819,-3.5223846,-15.308212,-2.5400543,-2.666809,-0.2440033,-1.3447876,-3.0543604,-6.6337795,-0.24588442
1570726819,-3.5223846,-15.308212,-2.5400543,-2.666809,-0.2440033,-1.3447876,-3.0543604,-6.6337795,-0.24588442
1570726819,-3.5223846,-15.308212,-2.5400543,-2.666809,-0.2440033,-1.3447876,-3.0543604,-6.6337795,-0.24588442
1570726819,-3.5223846,-15.308212,-2.5400543,-2.666809,-0.2440033,-1.3447876,-3.0543604,-6.6337795,-0.24588442
1570726819,-3.5223846,-15.308212,-2.5400543,-2.666809,-0.2440033,-1.3447876,-3.0543604,-6.6337795,-0.24588442
1570726819,-3.5223846,-15.308212,-2.5400543,-2.666809,-0.2440033,-1.3447876,-3.0543604,-6.6337795,-0.24588442
1570726819,-3.5223846,-15.308212,-2.5400543,-2.666809,-0.2440033,-1.3447876,-3.0543604,-6.6337795,-0.24588442
1570726819,-3.5223846,-15.308212,-2.5400543,-2.666809,-0.2440033,-1.3447876,-3.0543604,-6.6337795,-0.24588442
1570726819,-3.5223846,-15.308212,-2.5400543,-2.666809,-0.2440033,-1.3447876,-3.0543604,-6.6337795,-0.24588442
1570726819,-3.5223846,-15.308212,-2.5400543,-2.666809,-0.2440033,-1.3447876,-3.0543604,-6.6337795,-0.24588442
1570726819,-3.5223846,-15.308212,-2.5400543,-2.666809,-0.2440033,-1.3447876,-3.0543604,-6.6337795,-0.24588442
1570726819,-3.5223846,-15.308212,-2.5400543,-2.666809,-0.2440033,-1.3447876,-3.0543604,-6.6337795,-0.24588442
1570726819,-3.5223846,-15.308212,-2.5400543,-2.666809,-0.2440033,-1.3447876,-3.0543604,-6.6337795,-0.24588442
1570726819,-3.5223846,-15.308212,-2.5400543,-2.666809,-0.2440033,-1.3447876,-3.0543604,-6.6337795,-0.24588442
1570726819,-3.5223846,-15.308212,-2.5400543,-2.666809,-0.2440033,-1.3447876,-3.0543604,-6.6337795,-0.24588442
1570726819,-3.5223846,-15.308212,-2.5400543,-2.666809,-0.2440033,-1.3447876,-3.0543604,-6.6337795,-0.24588442
1570726819,-3.5223846,-15.308212,-2.5400543,-2.666809,-0.2440033,-1.3447876,-3.0543604,-6.6337795,-0.24588442
1570726819,-3.5223846,-15.308212,-2.5400543,-2.666809,-0.2440033,-1.3447876,-3.0543604,-6.6337795,-0.24588442
1570726819,-3.5223846,-15.308212,-2.5400543,-2.666809,-0.2440033,-1.3447876,-3.0543604,-6.6337795,-0.24588442
1570726819,-3.5223846,-15.308212,-2.5400543,-2.666809,-0.2440033,-1.3447876,-3.0543604,-6.6337795,-0.24588442
1570726819,-3.5223846,-15.308212,-2.5400543,-2.666809,-0.2440033,-1.3447876,-3.0543604,-6.6337795,-0.24588442
1570726819,-3.5223846,-15.308212,-2.5400543,-2.666809,-0.2440033,-1.3447876,-3.0543604,-6.6337795,-0.24588442
1570726819,-3.5223846,-15.308212,-2.5400543,-2.666809,-0.2440033,-1.3447876,-3.0543604,-6.6337795,-0.24588442
1570726819,-3.5223846,-15.308212,-2.5400543,-2.666809,-0.2440033,-1.3447876,-3.0543604,-6.6337795,-0.24588442
1570726819,-3.5223846,-15.308212,-2.5400543,-2.666809,-0.2440033,-1.3447876,-3.0543604,-6.6337795,-0.24588442
1570726819,-3.5223846,-15.308212,-2.5400543,-2.666809,-0.2440033,-1.3447876,-3.0543604,-6.6337795,-0.24588442
1570726819,-3.5223846,-15.308212,-2.5400543,-2.666809,-0.2440033,-1.3447876,-3.0543604,-6.6337795,-0.24588442
1570726819,-3.5223846,-15.308212,-2.5400543,-2.666809,-0.2440033,-1.3447876,-3.0543604,-6.6337795,-0.24588442
1570726819,-3.5223846,-15.308212,-2.5400543,-2.666809,-0.2440033,-1.3447876,-3.0543604,-6.6337795,-0.24588442
1570726819,-3.5223846,-15.308212,-2.5400543,-2.666809,-0.2440033,-1.3447876,-3.0543604,-6.6337795,-0.24588442
1570726819,-3.5223846,-15.308212,-2.5400543,-2.666809,-0.2440033,-1.3447876,-3.0543604,-6.6337795,-0.24588442
1570726819,-3.5223846,-15.308212,-2.5400543,-2.666809,-0.2440033,-1.3447876,-3.0543604,-6.6337795,-0.24588442
1570726819,-3.5223846,-15.308212,-2.5400543,-2.666809,-0.2440033,-1.3447876,-3.0543604,-6.6337795,-0.24588442
1570726819,-3.5223846,-15.308212,-2.5400543,-2.666809,-0.2440033,-1.3447876,-3.0543604,-6.6337795,-0.24588442
1570726819,-3.5223846,-15.308212,-2.5400543,-2.666809,-0.2440033,-1.3447876,-3.0543604,-6.6337795,-0.24588442
1570726819,-3.5223846,-15.308212,-2.5400543,-2.666809,-0.2440033,-1.3447876,-3.0543604,-6.6337795,-0.24588442
1570726819,-3.5223846,-15.308212,-2.5400543,-2.666809,-0.2440033,-1.3447876,-3.0543604,-6.6337795,-0.24588442
1570726819,-3.5223846,-15.308212,-2.5400543,-2.666809,-0.2440033,-1.3447876,-3.0543604,-6.6337795,-0.24588442
1570726819,-3.5223846,-15.308212,-2.5400543,-2.666809,-0.2440033,-1.3447876,-3.0543604,-6.6337795,-0.24588442
1570726819,-3.5223846,-15.308212,-2.5400543,-2.666809,-0.2440033,-1.3447876,-3.0543604,-6.6337795,-0.24588442
1570726819,-3.5223846,-15.308212,-2.5400543,-2.666809,-0.2440033,-1.3447876,-3.0543604,-6.6337795,-0.24588442
1570726819,-3.5223846,-15.308212,-2.5400543,-2.666809,-0.2440033,-1.3447876,-3.0543604,-6.6337795,-0.24588442
1570726819,-3.5223846,-15.308212,-2.5400543,-2.666809,-0.2440033,-1.3447876,-3.0543604,-6.6337795,-0.24588442
1570726819,-3.5223846,-15.308212,-2.5400543,-2.666809,-0.2440033,-1.3447876,-3.0543604,-6.6337795,-0.24588442
1570726819,-3.5223846,-15.308212,-2.5400543,-2.666809,-0.2440033,-1.3447876,-3.0543604,-6.6337795,-0.24588442
1570726819,-3.5223846,-15.308212,-2.5400543,-2.666809,-0.2440033,-1.3447876,-3.0543604,-6.6337795,-0.24588442
1570726819,-3.5223846,-15.308212,-2.5400543,-2.666809,-0.2440033,-1.3447876,-3.0543604,-6.6337795,-0.24588442
1570726819,-3.5223846,-15.308212,-2.5400543,-2.666809,-0.2440033,-1.3447876,-3.0543604,-6.6337795,-0.24588442
1570726819,-3.5223846,-15.308212,-2.5400543,-2.666809,-0.2440033,-1.3447876,-3.0543604,-6.6337795,-0.24588442
1570726819,-3.5223846,-15.308212,-2.5400543,-2.666809,-0.2440033,-1.3447876,-3.0543604,-6.6337795,-0.24588442
1570726819,-3.5223846,-15.308212,-2.5400543,-2.666809,-0.2440033,-1.3447876,-3.0543604,-6.6337795,-0.24588442
1570726819,-3.5223846,-15.308212,-2.5400543,-2.666809,-0.2440033,-1.3447876,-3.0543604,-6.6337795,-0.24588442
1570726819,-3.5223846,-15.308212,-2.5400543,-2.666809,-0.2440033,-1.3447876,-3.0543604,-6.6337795,-0.24588442
1570726819,-3.5223846,-15.308212,-2.5400543,-2.666809,-0.2440033,-1.3447876,-3.0543604,-6.6337795,-0.24588442
1570726819,-3.5223846,-15.308212,-2.5400543,-2.666809,-0.2440033,-1.3447876,-3.0543604,-6.6337795,-0.24588442
1570726819,-3.5223846,-15.308212,-2.5400543,-2.666809,-0.2440033,-1.3447876,-3.0543604,-6.6337795,-0.24588442
1570726819,-3.5223846,-15.308212,-2.5400543,-2.666809,-0.2440033,-1.3447876,-3.0543604,-6.6337795,-0.24588442
1570726819,-3.5223846,-15.308212,-2.5400543,-2.666809,-0.2440033,-1.3447876,-3.0543604,-6.6337795,-0.24588442
1570726819,-3.5223846,-15.308212,-2.5400543,-2.666809,-0.2440033,-1.3447876,-3.0543604,-6.6337795,-0.24588442
1570726819,-3.5223846,-15.308212,-2.5400543,-2.666809,-0.2440033,-1.3447876,-3.0543604,-6.6337795,-0.24588442
1570726819,-3.5223846,-15.308212,-2.5400543,-2.666809,-0.2440033,-1.3447876,-3.0543604,-6.6337795,-0.24588442
1570726819,-3.5223846,-15.308212,-2.5400543,-2.666809,-0.2440033,-1.3447876,-3.0543604,-6.6337795,-0.24588442
1570726819,-3.5223846,-15.308212,-2.5400543,-2.666809,-0.2440033,-1.3447876,-3.0543604,-6.6337795,-0.24588442
1570726819,-3.5223846,-15.308212,-2.5400543,-2.666809,-0.2440033,-1.3447876,-3.0543604,-6.6337795,-0.24588442
1570726819,-3.5223846,-15.308212,-2.5400543,-2.666809,-0.2440033,-1.3447876,-3.0543604,-6.6337795,-0.24588442
1570726819,-3.5223846,-15.308212,-2.5400543,-2.666809,-0.2440033,-1.3447876,-3.0543604,-6.6337795,-0.24588442
1570726819,-3.5223846,-15.308212,-2.5400543,-2.666809,-0.2440033,-1.3447876,-3.0543604,-6.6337795,-0.24588442
1570726819,-3.5223846,-15.308212,-2.5400543,-2.666809,-0.2440033,-1.3447876,-3.0543604,-6.6337795,-0.24588442
1570726819,-3.5223846,-15.308212,-2.5400543,-2.666809,-0.2440033,-1.3447876,-3.0543604,-6.6337795,-0.24588442
1570726819,-3.5223846,-15.308212,-2.5400543,-2.666809,-0.2440033,-1.3447876,-3.0543604,-6.6337795,-0.24588442
1570726819,-3.5223846,-15.308212,-2.5400543,-2.666809,-0.2440033,-1.3447876,-3.0543604,-6.6337795,-0.24588442
1570726819,-3.5223846,-15.308212,-2.5400543,-2.666809,-0.2440033,-1.3447876,-3.0543604,-6.6337795,-0.24588442
1570726819,-3.5223846,-15.308212,-2.5400543,-2.666809,-0.2440033,-1.3447876,-3.0543604,-6.6337795,-0.24588442
1570726819,-3.5223846,-15.308212,-2.5400543,-2.666809,-0.2440033,-1.3447876,-3.0543604,-6.6337795,-0.24588442
1570726819,-3.5223846,-15.308212,-2.5400543,-2.666809,-0.2440033,-1.3447876,-3.0543604,-6.6337795,-0.24588442
1570726819,-3.5223846,-15.308212,-2.5400543,-2.666809,-0.2440033,-1.3447876,-3.0543604,-6.6337795,-0.24588442
1570726819,-3.5223846,-15.308212,-2.5400543,-2.666809,-0.2440033,-1.3447876,-3.0543604,-6.6337795,-0.24588442
1570726819,-3.5223846,-15.308212,-2.5400543,-2.666809,-0.2440033,-1.3447876,-3.0543604,-6.6337795,-0.24588442
1570726819,-3.5223846,-15.308212,-2.5400543,-2.666809,-0.2440033,-1.3447876,-3.0543604,-6.6337795,-0.24588442
1570726819,-3.5223846,-15.308212,-2.5400543,-2.666809,-0.2440033,-1.3447876,-3.0543604,-6.6337795,-0.24588442
1570726819,-3.5223846,-15.308212,-2.5400543,-2.666809,-0.2440033,-1.3447876,-3.0543604,-6.6337795,-0.24588442
1570726819,-3.5223846,-15.308212,-2.5400543,-2.666809,-0.2440033,-1.3447876,-3.0543604,-6.6337795,-0.24588442
1570726819,-3.5223846,-15.308212,-2.5400543,-2.666809,-0.2440033,-1.3447876,-3.0543604,-6.6337795,-0.24588442
1570726819,-3.5223846,-15.308212,-2.5400543,-2.666809,-0.2440033,-1.3447876,-3.0543604,-6.6337795,-0.24588442
1570726819,-3.5223846,-15.308212,-2.5400543,-2.666809,-0.2440033,-1.3447876,-3.0543604,-6.6337795,-0.24588442
1570726819,-3.5223846,-15.308212,-2.5400543,-2.666809,-0.2440033,-1.3447876,-3.0543604,-6.6337795,-0.24588442
1570726819,-3.5223846,-15.308212,-2.5400543,-2.666809,-0.2440033,-1.3447876,-3.0543604,-6.6337795,-0.24588442
1570726819,-3.5223846,-15.308212,-2.5400543,-2.666809,-0.2440033,-1.3447876,-3.0543604,-6.6337795,-0.24588442
1570726819,-3.5223846,-15.308212,-2.5400543,-2.666809,-0.2440033,-1.3447876,-3.0543604,-6.6337795,-0.24588442
1570726819,-3.5223846,-15.308212,-2.5400543,-2.666809,-0.2440033,-1.3447876,-3.0543604,-6.6337795,-0.24588442
1570726819,-3.5223846,-15.308212,-2.5400543,-2.666809,-0.2440033,-1.3447876,-3.0543604,-6.6337795,-0.24588442
1570726819,-3.5223846,-15.308212,-2.5400543,-2.666809,-0.2440033,-1.3447876,-3.0543604,-6.6337795,-0.24588442
1570726819,-3.5223846,-15.308212,-2.5400543,-2.666809,-0.2440033,-1.3447876,-3.0543604,-6.6337795,-0.24588442
1570726819,-3.5223846,-15.308212,-2.5400543,-2.666809,-0.2440033,-1.3447876,-3.0543604,-6.6337795,-0.24588442
1570726819,-3.5223846,-15.308212,-2.5400543,-2.666809,-0.2440033,-1.3447876,-3.0543604,-6.6337795,-0.24588442
1570726819,-3.5223846,-15.308212,-2.5400543,-2.666809,-0.2440033,-1.3447876,-3.0543604,-6.6337795,-0.24588442
1570726819,-3.5223846,-15.308212,-2.5400543,-2.666809,-0.2440033,-1.3447876,-3.0543604,-6.6337795,-0.24588442
1570726819,-3.5223846,-15.308212,-2.5400543,-2.666809,-0.2440033,-1.3447876,-3.0543604,-6.6337795,-0.24588442
1570726819,-3.5223846,-15.308212,-2.5400543,-2.666809,-0.2440033,-1.3447876,-3.0543604,-6.6337795,-0.24588442
1570726819,-3.5223846,-15.308212,-2.5400543,-2.666809,-0.2440033,-1.3447876,-3.0543604,-6.6337795,-0.24588442
1570726819,-3.5223846,-15.308212,-2.5400543,-2.666809,-0.2440033,-1.3447876,-3.0543604,-6.6337795,-0.24588442
1570726819,-3.5223846,-15.308212,-2.5400543,-2.666809,-0.2440033,-1.3447876,-3.0543604,-6.6337795,-0.24588442
1570726819,-3.5223846,-15.308212,-2.5400543,-2.666809,-0.2440033,-1.3447876,-3.0543604,-6.6337795,-0.24588442
1570726819,-3.5223846,-15.308212,-2.5400543,-2.666809,-0.2440033,-1.3447876,-3.0543604,-6.6337795,-0.24588442
1570726819,-3.5223846,-15.308212,-2.5400543,-2.666809,-0.2440033,-1.3447876,-3.0543604,-6.6337795,-0.24588442
1570726819,-3.5223846,-15.308212,-2.5400543,-2.666809,-0.2440033,-1.3447876,-3.0543604,-6.6337795,-0.24588442
1570726819,-3.5223846,-15.308212,-2.5400543,-2.666809,-0.2440033,-1.3447876,-3.0543604,-6.6337795,-0.24588442
1570726819,-3.5223846,-15.308212,-2.5400543,-2.666809,-0.2440033,-1.3447876,-3.0543604,-6.6337795,-0.24588442
1570726819,-3.5223846,-15.308212,-2.5400543,-2.666809,-0.2440033,-1.3447876,-3.0543604,-6.6337795,-0.24588442
1570726819,-3.5223846,-15.308212,-2.5400543,-2.666809,-0.2440033,-1.3447876,-3.0543604,-6.6337795,-0.24588442
1570726819,-3.5223846,-15.308212,-2.5400543,-2.666809,-0.2440033,-1.3447876,-3.0543604,-6.6337795,-0.24588442
1570726819,-3.5223846,-15.308212,-2.5400543,-2.666809,-0.2440033,-1.3447876,-3.0543604,-6.6337795,-0.24588442
1570726819,-3.5223846,-15.308212,-2.5400543,-2.666809,-0.2440033,-1.3447876,-3.0543604,-6.6337795,-0.24588442
1570726819,-3.5223846,-15.308212,-2.5400543,-2.666809,-0.2440033,-1.3447876,-3.0543604,-6.6337795,-0.24588442
1570726819,-3.5223846,-15.308212,-2.5400543,-2.666809,-0.2440033,-1.3447876,-3.0543604,-6.6337795,-0.24588442
1570726819,-3.5223846,-15.308212,-2.5400543,-2.666809,-0.2440033,-1.3447876,-3.0543604,-6.6337795,-0.24588442
1570726819,-3.5223846,-15.308212,-2.5400543,-2.666809,-0.2440033,-1.3447876,-3.0543604,-6.6337795,-0.24588442
1570726819,-3.5223846,-15.308212,-2.5400543,-2.666809,-0.2440033,-1.3447876,-3.0543604,-6.6337795,-0.24588442
1570726819,-3.5223846,-15.308212,-2.5400543,-2.666809,-0.2440033,-1.3447876,-3.0543604,-6.6337795,-0.24588442
1570726819,-3.5223846,-15.308212,-2.5400543,-2.666809,-0.2440033,-1.3447876,-3.0543604,-6.6337795,-0.24588442
1570726819,-3.5223846,-15.308212,-2.5400543,-2.666809,-0.2440033,-1.3447876,-3.0543604,-6.6337795,-0.24588442
1570726819,-3.5223846,-15.308212,-2.5400543,-2.666809,-0.2440033,-1.3447876,-3.0543604,-6.6337795,-0.24588442
1570726819,-3.5223846,-15.308212,-2.5400543,-2.666809,-0.2440033,-1.3447876,-3.0543604,-6.6337795,-0.24588442
1570726819,-3.5223846,-15.308212,-2.5400543,-2.666809,-0.2440033,-1.3447876,-3.0543604,-6.6337795,-0.24588442
1570726819,-3.5223846,-15.308212,-2.5400543,-2.666809,-0.2440033,-1.3447876,-3.0543604,-6.6337795,-0.24588442
1570726819,-3.5223846,-15.308212,-2.5400543,-2.666809,-0.2440033,-1.3447876,-3.0543604,-6.6337795,-0.24588442
1570726819,-3.5223846,-15.308212,-2.5400543,-2.666809,-0.2440033,-1.3447876,-3.0543604,-6.6337795,-0.24588442
1570726819,-3.5223846,-15.308212,-2.5400543,-2.666809,-0.2440033,-1.3447876,-3.0543604,-6.6337795,-0.24588442
1570726819,-3.5223846,-15.308212,-2.5400543,-2.666809,-0.2440033,-1.3447876,-3.0543604,-6.6337795,-0.24588442
1570726819,-3.5223846,-15.308212,-2.5400543,-2.666809,-0.2440033,-1.3447876,-3.0543604,-6.6337795,-0.24588442
1570726819,-3.5223846,-15.308212,-2.5400543,-2.666809,-0.2440033,-1.3447876,-3.0543604,-6.6337795,-0.24588442
1570726819,-3.5223846,-15.308212,-2.5400543,-2.666809,-0.2440033,-1.3447876,-3.0543604,-6.6337795,-0.24588442
1570726819,-3.5223846,-15.308212,-2.5400543,-2.666809,-0.2440033,-1.3447876,-3.0543604,-6.6337795,-0.24588442
1570726819,-3.5223846,-15.308212,-2.5400543,-2.666809,-0.2440033,-1.3447876,-3.0543604,-6.6337795,-0.24588442
1570726819,-3.5223846,-15.308212,-2.5400543,-2.666809,-0.2440033,-1.3447876,-3.0543604,-6.6337795,-0.24588442
1570726819,-3.5223846,-15.308212,-2.5400543,-2.666809,-0.2440033,-1.3447876,-3.0543604,-6.6337795,-0.24588442
1570726819,-3.5223846,-15.308212,-2.5400543,-2.666809,-0.2440033,-1.3447876,-3.0543604,-6.6337795,-0.24588442
1570726819,-3.5223846,-15.308212,-2.5400543,-2.666809,-0.2440033,-1.3447876,-3.0543604,-6.6337795,-0.24588442
1570726819,-3.5223846,-15.308212,-2.5400543,-2.666809,-0.2440033,-1.3447876,-3.0543604,-6.6337795,-0.24588442
1570726819,-3.5223846,-15.308212,-2.5400543,-2.666809,-0.2440033,-1.3447876,-3.0543604,-6.6337795,-0.24588442
1570726819,-3.5223846,-15.308212,-2.5400543,-2.666809,-0.2440033,-1.3447876,-3.0543604,-6.6337795,-0.24588442
1570726819,-3.5223846,-15.308212,-2.5400543,-2.666809,-0.2440033,-1.3447876,-3.0543604,-6.6337795,-0.24588442
1570726819,-3.5223846,-15.308212,-2.5400543,-2.666809,-0.2440033,-1.3447876,-3.0543604,-6.6337795,-0.24588442
1570726819,-3.5223846,-15.308212,-2.5400543,-2.666809,-0.2440033,-1.3447876,-3.0543604,-6.6337795,-0.24588442
1570726819,-3.5223846,-15.308212,-2.5400543,-2.666809,-0.2440033,-1.3447876,-3.0543604,-6.6337795,-0.24588442
1570726819,-3.5223846,-15.308212,-2.5400543,-2.666809,-0.2440033,-1.3447876,-3.0543604,-6.6337795,-0.24588442
1570726819,-3.5223846,-15.308212,-2.5400543,-2.666809,-0.2440033,-1.3447876,-3.0543604,-6.6337795,-0.24588442
1570726819,-3.5223846,-15.308212,-2.5400543,-2.666809,-0.2440033,-1.3447876,-3.0543604,-6.6337795,-0.24588442
1570726819,-3.5223846,-15.308212,-2.5400543,-2.666809,-0.2440033,-1.3447876,-3.0543604,-6.6337795,-0.24588442
1570726819,-3.5223846,-15.308212,-2.5400543,-2.666809,-0.2440033,-1.3447876,-3.0543604,-6.6337795,-0.24588442
1570726819,-3.5223846,-15.308212,-2.5400543,-2.666809,-0.2440033,-1.3447876,-3.0543604,-6.6337795,-0.24588442
1570726819,-3.5223846,-15.308212,-2.5400543,-2.666809,-0.2440033,-1.3447876,-3.0543604,-6.6337795,-0.24588442
1570726819,-3.5223846,-15.308212,-2.5400543,-2.666809,-0.2440033,-1.3447876,-3.0543604,-6.6337795,-0.24588442
1570726819,-3.5223846,-15.308212,-2.5400543,-2.666809,-0.2440033,-1.3447876,-3.0543604,-6.6337795,-0.24588442
1570726819,-3.5223846,-15.308212,-2.5400543,-2.666809,-0.2440033,-1.3447876,-3.0543604,-6.6337795,-0.24588442
1570726819,-3.5223846,-15.308212,-2.5400543,-2.666809,-0.2440033,-1.3447876,-3.0543604,-6.6337795,-0.24588442
1570726819,-3.5223846,-15.308212,-2.5400543,-2.666809,-0.2440033,-1.3447876,-3.0543604,-6.6337795,-0.24588442
1570726819,-3.5223846,-15.308212,-2.5400543,-2.666809,-0.2440033,-1.3447876,-3.0543604,-6.6337795,-0.24588442
1570726819,-3.5223846,-15.308212,-2.5400543,-2.666809,-0.2440033,-1.3447876,-3.0543604,-6.6337795,-0.24588442
1570726819,-3.5223846,-15.308212,-2.5400543,-2.666809,-0.2440033,-1.3447876,-3.0543604,-6.6337795,-0.24588442
1570726819,-3.5223846,-15.308212,-2.5400543,-2.666809,-0.2440033,-1.3447876,-3.0543604,-6.6337795,-0.24588442
1570726819,-3.5223846,-15.308212,-2.5400543,-2.666809,-0.2440033,-1.3447876,-3.0543604,-6.6337795,-0.24588442
1570726819,-3.5223846,-15.308212,-2.5400543,-2.666809,-0.2440033,-1.3447876,-3.0543604,-6.6337795,-0.24588442
1570726819,-3.5223846,-15.308212,-2.5400543,-2.666809,-0.2440033,-1.3447876,-3.0543604,-6.6337795,-0.24588442
1570726819,-3.5223846,-15.308212,-2.5400543,-2.666809,-0.2440033,-1.3447876,-3.0543604,-6.6337795,-0.24588442
1570726819,-3.5223846,-15.308212,-2.5400543,-2.666809,-0.2440033,-1.3447876,-3.0543604,-6.6337795,-0.24588442
1570726819,-3.5223846,-15.308212,-2.5400543,-2.666809,-0.2440033,-1.3447876,-3.0543604,-6.6337795,-0.24588442
1570726819,-3.5223846,-15.308212,-2.5400543,-2.666809,-0.2440033,-1.3447876,-3.0543604,-6.6337795,-0.24588442
1570726819,-3.5223846,-15.308212,-2.5400543,-2.666809,-0.2440033,-1.3447876,-3.0543604,-6.6337795,-0.24588442
1570726819,-3.5223846,-15.308212,-2.5400543,-2.666809,-0.2440033,-1.3447876,-3.0543604,-6.6337795,-0.24588442
1570726819,-3.5223846,-15.308212,-2.5400543,-2.666809,-0.2440033,-1.3447876,-3.0543604,-6.6337795,-0.24588442
1570726819,-3.5223846,-15.308212,-2.5400543,-2.666809,-0.2440033,-1.3447876,-3.0543604,-6.6337795,-0.24588442
1570726819,-3.5223846,-15.308212,-2.5400543,-2.666809,-0.2440033,-1.3447876,-3.0543604,-6.6337795,-0.24588442
1570726819,-3.5223846,-15.308212,-2.5400543,-2.666809,-0.2440033,-1.3447876,-3.0543604,-6.6337795,-0.24588442
1570726819,-3.5223846,-15.308212,-2.5400543,-2.666809,-0.2440033,-1.3447876,-3.0543604,-6.6337795,-0.24588442
1570726819,-3.5223846,-15.308212,-2.5400543,-2.666809,-0.2440033,-1.3447876,-3.0543604,-6.6337795,-0.24588442
1570726819,-3.5223846,-15.308212,-2.5400543,-2.666809,-0.2440033,-1.3447876,-3.0543604,-6.6337795,-0.24588442
1570726819,-3.5223846,-15.308212,-2.5400543,-2.666809,-0.2440033,-1.3447876,-3.0543604,-6.6337795,-0.24588442
1570726819,-3.5223846,-15.308212,-2.5400543,-2.666809,-0.2440033,-1.3447876,-3.0543604,-6.6337795,-0.24588442
1570726819,-3.5223846,-15.308212,-2.5400543,-2.666809,-0.2440033,-1.3447876,-3.0543604,-6.6337795,-0.24588442
1570726819,-3.5223846,-15.308212,-2.5400543,-2.666809,-0.2440033,-1.3447876,-3.0543604,-6.6337795,-0.24588442
1570726819,-3.5223846,-15.308212,-2.5400543,-2.666809,-0.2440033,-1.3447876,-3.0543604,-6.6337795,-0.24588442
1570726819,-3.5223846,-15.308212,-2.5400543,-2.666809,-0.2440033,-1.3447876,-3.0543604,-6.6337795,-0.24588442
1570726819,-3.5223846,-15.308212,-2.5400543,-2.666809,-0.2440033,-1.3447876,-3.0543604,-6.6337795,-0.24588442
1570726819,-3.5223846,-15.308212,-2.5400543,-2.666809,-0.2440033,-1.3447876,-3.0543604,-6.6337795,-0.24588442
1570726819,-3.5223846,-15.308212,-2.5400543,-2.666809,-0.2440033,-1.3447876,-3.0543604,-6.6337795,-0.24588442
1570726819,-3.5223846,-15.308212,-2.5400543,-2.666809,-0.2440033,-1.3447876,-3.0543604,-6.6337795,-0.24588442
1570726819,-3.5223846,-15.308212,-2.5400543,-2.666809,-0.2440033,-1.3447876,-3.0543604,-6.6337795,-0.24588442
1570726819,-3.5223846,-15.308212,-2.5400543,-2.666809,-0.2440033,-1.3447876,-3.0543604,-6.6337795,-0.24588442
1570726819,-3.5223846,-15.308212,-2.5400543,-2.666809,-0.2440033,-1.3447876,-3.0543604,-6.6337795,-0.24588442
1570726819,-3.5223846,-15.308212,-2.5400543,-2.666809,-0.2440033,-1.3447876,-3.0543604,-6.6337795,-0.24588442
1570726819,-3.5223846,-15.308212,-2.5400543,-2.666809,-0.2440033,-1.3447876,-3.0543604,-6.6337795,-0.24588442
1570726819,-3.5223846,-15.308212,-2.5400543,-2.666809,-0.2440033,-1.3447876,-3.0543604,-6.6337795,-0.24588442
1570726819,-3.5223846,-15.308212,-2.5400543,-2.666809,-0.2440033,-1.3447876,-3.0543604,-6.6337795,-0.24588442
1570726819,-3.5223846,-15.308212,-2.5400543,-2.666809,-0.2440033,-1.3447876,-3.0543604,-6.6337795,-0.24588442
1570726819,-3.5223846,-15.308212,-2.5400543,-2.666809,-0.2440033,-1.3447876,-3.0543604,-6.6337795,-0.24588442
1570726819,-3.5223846,-15.308212,-2.5400543,-2.666809,-0.2440033,-1.3447876,-3.0543604,-6.6337795,-0.24588442
1570726819,-3.5223846,-15.308212,-2.5400543,-2.666809,-0.2440033,-1.3447876,-3.0543604,-6.6337795,-0.24588442
1570726819,-3.5223846,-15.308212,-2.5400543,-2.666809,-0.2440033,-1.3447876,-3.0543604,-6.6337795,-0.24588442
1570726819,-3.5223846,-15.308212,-2.5400543,-2.666809,-0.2440033,-1.3447876,-3.0543604,-6.6337795,-0.24588442
1570726819,-3.5223846,-15.308212,-2.5400543,-2.666809,-0.2440033,-1.3447876,-3.0543604,-6.6337795,-0.24588442
1570726819,-3.5223846,-15.308212,-2.5400543,-2.666809,-0.2440033,-1.3447876,-3.0543604,-6.6337795,-0.24588442
1570726819,-3.5223846,-15.308212,-2.5400543,-2.666809,-0.2440033,-1.3447876,-3.0543604,-6.6337795,-0.24588442
1570726819,-3.5223846,-15.308212,-2.5400543,-2.666809,-0.2440033,-1.3447876,-3.0543604,-6.6337795,-0.24588442
1570726819,-3.5223846,-15.308212,-2.5400543,-2.666809,-0.2440033,-1.3447876,-3.0543604,-6.6337795,-0.24588442
1570726819,-3.5223846,-15.308212,-2.5400543,-2.666809,-0.2440033,-1.3447876,-3.0543604,-6.6337795,-0.24588442
1570726819,-3.5223846,-15.308212,-2.5400543,-2.666809,-0.2440033,-1.3447876,-3.0543604,-6.6337795,-0.24588442
1570726819,-3.5223846,-15.308212,-2.5400543,-2.666809,-0.2440033,-1.3447876,-3.0543604,-6.6337795,-0.24588442
1570726819,-3.5223846,-15.308212,-2.5400543,-2.666809,-0.2440033,-1.3447876,-3.0543604,-6.6337795,-0.24588442
1570726819,-3.5223846,-15.308212,-2.5400543,-2.666809,-0.2440033,-1.3447876,-3.0543604,-6.6337795,-0.24588442
1570726819,-3.5223846,-15.308212,-2.5400543,-2.666809,-0.2440033,-1.3447876,-3.0543604,-6.6337795,-0.24588442
1570726819,-3.5223846,-15.308212,-2.5400543,-2.666809,-0.2440033,-1.3447876,-3.0543604,-6.6337795,-0.24588442
1570726819,-3.5223846,-15.308212,-2.5400543,-2.666809,-0.2440033,-1.3447876,-3.0543604,-6.6337795,-0.24588442
1570726819,-3.5223846,-15.308212,-2.5400543,-2.666809,-0.2440033,-1.3447876,-3.0543604,-6.6337795,-0.24588442
1570726819,-3.5223846,-15.308212,-2.5400543,-2.666809,-0.2440033,-1.3447876,-3.0543604,-6.6337795,-0.24588442
1570726819,-3.5223846,-15.308212,-2.5400543,-2.666809,-0.2440033,-1.3447876,-3.0543604,-6.6337795,-0.24588442
1570726819,-3.5223846,-15.308212,-2.5400543,-2.666809,-0.2440033,-1.3447876,-3.0543604,-6.6337795,-0.24588442
1570726819,-3.5223846,-15.308212,-2.5400543,-2.666809,-0.2440033,-1.3447876,-3.0543604,-6.6337795,-0.24588442
1570726819,-3.5223846,-15.308212,-2.5400543,-2.666809,-0.2440033,-1.3447876,-3.0543604,-6.6337795,-0.24588442
1570726819,-3.5223846,-15.308212,-2.5400543,-2.666809,-0.2440033,-1.3447876,-3.0543604,-6.6337795,-0.24588442
1570726819,-3.5223846,-15.308212,-2.5400543,-2.666809,-0.2440033,-1.3447876,-3.0543604,-6.6337795,-0.24588442
1570726819,-3.5223846,-15.308212,-2.5400543,-2.666809,-0.2440033,-1.3447876,-3.0543604,-6.6337795,-0.24588442
1570726819,-3.5223846,-15.308212,-2.5400543,-2.666809,-0.2440033,-1.3447876,-3.0543604,-6.6337795,-0.24588442
1570726819,-3.5223846,-15.308212,-2.5400543,-2.666809,-0.2440033,-1.3447876,-3.0543604,-6.6337795,-0.24588442
1570726819,-3.5223846,-15.308212,-2.5400543,-2.666809,-0.2440033,-1.3447876,-3.0543604,-6.6337795,-0.24588442
1570726819,-3.5223846,-15.308212,-2.5400543,-2.666809,-0.2440033,-1.3447876,-3.0543604,-6.6337795,-0.24588442
1570726819,-3.5223846,-15.308212,-2.5400543,-2.666809,-0.2440033,-1.3447876,-3.0543604,-6.6337795,-0.24588442
1570726819,-3.5223846,-15.308212,-2.5400543,-2.666809,-0.2440033,-1.3447876,-3.0543604,-6.6337795,-0.24588442
1570726819,-3.5223846,-15.308212,-2.5400543,-2.666809,-0.2440033,-1.3447876,-3.0543604,-6.6337795,-0.24588442
1570726819,-3.5223846,-15.308212,-2.5400543,-2.666809,-0.2440033,-1.3447876,-3.0543604,-6.6337795,-0.24588442
1570726819,-3.5223846,-15.308212,-2.5400543,-2.666809,-0.2440033,-1.3447876,-3.0543604,-6.6337795,-0.24588442
1570726819,-3.5223846,-15.308212,-2.5400543,-2.666809,-0.2440033,-1.3447876,-3.0543604,-6.6337795,-0.24588442
1570726819,-3.5223846,-15.308212,-2.5400543,-2.666809,-0.2440033,-1.3447876,-3.0543604,-6.6337795,-0.24588442
1570726819,-3.5223846,-15.308212,-2.5400543,-2.666809,-0.2440033,-1.3447876,-3.0543604,-6.6337795,-0.24588442
1570726819,-3.5223846,-15.308212,-2.5400543,-2.666809,-0.2440033,-1.3447876,-3.0543604,-6.6337795,-0.24588442
1570726819,-3.5223846,-15.308212,-2.5400543,-2.666809,-0.2440033,-1.3447876,-3.0543604,-6.6337795,-0.24588442
1570726819,-3.5223846,-15.308212,-2.5400543,-2.666809,-0.2440033,-1.3447876,-3.0543604,-6.6337795,-0.24588442
1570726819,-3.5223846,-15.308212,-2.5400543,-2.666809,-0.2440033,-1.3447876,-3.0543604,-6.6337795,-0.24588442
1570726819,-3.5223846,-15.308212,-2.5400543,-2.666809,-0.2440033,-1.3447876,-3.0543604,-6.6337795,-0.24588442
1570726819,-3.5223846,-15.308212,-2.5400543,-2.666809,-0.2440033,-1.3447876,-3.0543604,-6.6337795,-0.24588442
1570726819,-3.5223846,-15.308212,-2.5400543,-2.666809,-0.2440033,-1.3447876,-3.0543604,-6.6337795,-0.24588442
1570726819,-3.5223846,-15.308212,-2.5400543,-2.666809,-0.2440033,-1.3447876,-3.0543604,-6.6337795,-0.24588442
1570726819,-3.5223846,-15.308212,-2.5400543,-2.666809,-0.2440033,-1.3447876,-3.0543604,-6.6337795,-0.24588442
1570726819,-3.5223846,-15.308212,-2.5400543,-2.666809,-0.2440033,-1.3447876,-3.0543604,-6.6337795,-0.24588442
1570726819,-3.5223846,-15.308212,-2.5400543,-2.666809,-0.2440033,-1.3447876,-3.0543604,-6.6337795,-0.24588442
1570726819,-3.5223846,-15.308212,-2.5400543,-2.666809,-0.2440033,-1.3447876,-3.0543604,-6.6337795,-0.24588442
1570726819,-3.5223846,-15.308212,-2.5400543,-2.666809,-0.2440033,-1.3447876,-3.0543604,-6.6337795,-0.24588442
1570726819,-3.5223846,-15.308212,-2.5400543,-2.666809,-0.2440033,-1.3447876,-3.0543604,-6.6337795,-0.24588442
1570726819,-3.5223846,-15.308212,-2.5400543,-2.666809,-0.2440033,-1.3447876,-3.0543604,-6.6337795,-0.24588442
1570726819,-3.5223846,-15.308212,-2.5400543,-2.666809,-0.2440033,-1.3447876,-3.0543604,-6.6337795,-0.24588442
1570726819,-3.5223846,-15.308212,-2.5400543,-2.666809,-0.2440033,-1.3447876,-3.0543604,-6.6337795,-0.24588442
1570726819,-3.5223846,-15.308212,-2.5400543,-2.666809,-0.2440033,-1.3447876,-3.0543604,-6.6337795,-0.24588442
1570726819,-3.5223846,-15.308212,-2.5400543,-2.666809,-0.2440033,-1.3447876,-3.0543604,-6.6337795,-0.24588442
1570726819,-3.5223846,-15.308212,-2.5400543,-2.666809,-0.2440033,-1.3447876,-3.0543604,-6.6337795,-0.24588442
1570726819,-3.5223846,-15.308212,-2.5400543,-2.666809,-0.2440033,-1.3447876,-3.0543604,-6.6337795,-0.24588442
1570726819,-3.5223846,-15.308212,-2.5400543,-2.666809,-0.2440033,-1.3447876,-3.0543604,-6.6337795,-0.24588442
1570726819,-3.5223846,-15.308212,-2.5400543,-2.666809,-0.2440033,-1.3447876,-3.0543604,-6.6337795,-0.24588442
1570726819,-3.5223846,-15.308212,-2.5400543,-2.666809,-0.2440033,-1.3447876,-3.0543604,-6.6337795,-0.24588442
1570726819,-3.5223846,-15.308212,-2.5400543,-2.666809,-0.2440033,-1.3447876,-3.0543604,-6.6337795,-0.24588442
1570726819,-3.5223846,-15.308212,-2.5400543,-2.666809,-0.2440033,-1.3447876,-3.0543604,-6.6337795,-0.24588442
1570726819,-3.5223846,-15.308212,-2.5400543,-2.666809,-0.2440033,-1.3447876,-3.0543604,-6.6337795,-0.24588442
1570726819,-3.5223846,-15.308212,-2.5400543,-2.666809,-0.2440033,-1.3447876,-3.0543604,-6.6337795,-0.24588442
1570726819,-3.5223846,-15.308212,-2.5400543,-2.666809,-0.2440033,-1.3447876,-3.0543604,-6.6337795,-0.24588442
1570726819,-3.5223846,-15.308212,-2.5400543,-2.666809,-0.2440033,-1.3447876,-3.0543604,-6.6337795,-0.24588442
1570726819,-3.5223846,-15.308212,-2.5400543,-2.666809,-0.2440033,-1.3447876,-3.0543604,-6.6337795,-0.24588442
1570726819,-3.5223846,-15.308212,-2.5400543,-2.666809,-0.2440033,-1.3447876,-3.0543604,-6.6337795,-0.24588442
1570726819,-3.5223846,-15.308212,-2.5400543,-2.666809,-0.2440033,-1.3447876,-3.0543604,-6.6337795,-0.24588442
1570726819,-3.5223846,-15.308212,-2.5400543,-2.666809,-0.2440033,-1.3447876,-3.0543604,-6.6337795,-0.24588442
1570726819,-3.5223846,-15.308212,-2.5400543,-2.666809,-0.2440033,-1.3447876,-3.0543604,-6.6337795,-0.24588442
1570726819,-3.5223846,-15.308212,-2.5400543,-2.666809,-0.2440033,-1.3447876,-3.0543604,-6.6337795,-0.24588442
1570726819,-3.5223846,-15.308212,-2.5400543,-2.666809,-0.2440033,-1.3447876,-3.0543604,-6.6337795,-0.24588442
1570726819,-3.5223846,-15.308212,-2.5400543,-2.666809,-0.2440033,-1.3447876,-3.0543604,-6.6337795,-0.24588442
1570726820,-3.5223846,-15.308212,-2.5400543,-2.666809,-0.2440033,-1.3447876,-3.0543604,-6.6337795,-0.24588442
1570726820,-3.5223846,-15.308212,-2.5400543,-2.666809,-0.2440033,-1.3447876,-3.0543604,-6.6337795,-0.24588442
1570726820,-3.5223846,-15.308212,-2.5400543,-2.666809,-0.2440033,-1.3447876,-3.0543604,-6.6337795,-0.24588442
1570726820,-3.5223846,-15.308212,-2.5400543,-2.666809,-0.2440033,-1.3447876,-3.0543604,-6.6337795,-0.24588442
1570726820,0.9822998,-8.258484,-1.364502,-2.666809,-0.2440033,-1.3447876,3.0236454,-1.7665596,3.3373117
1570726820,3.8481598,-9.311935,0.36889648,-2.666809,-0.2440033,-1.3447876,2.426269,-3.024438,1.7934848
1570726820,3.8481598,-9.311935,0.36889648,-2.666809,-0.2440033,-1.3447876,2.426269,-3.024438,1.7934848
1570726820,3.8481598,-9.311935,0.36889648,-2.666809,-0.2440033,-1.3447876,2.426269,-3.024438,1.7934848
1570726820,-0.4230957,-8.505096,-15.754852,2.1971893,1.6937103,-0.74398804,0.15328866,0.11771679,-15.512541
1570726820,-0.4230957,-8.505096,-15.754852,2.1971893,1.6937103,-0.74398804,0.15328866,0.11771679,-15.512541
1570726820,-0.4230957,-8.505096,-15.754852,2.1971893,1.6937103,-0.74398804,0.15328866,0.11771679,-15.512541
1570726820,-0.4230957,-8.505096,-15.754852,2.1971893,1.6937103,-0.74398804,0.15328866,0.11771679,-15.512541
1570726820,-0.4230957,-8.505096,-15.754852,2.1971893,1.6937103,-0.74398804,0.15328866,0.11771679,-15.512541
1570726820,-0.4230957,-8.505096,-15.754852,2.1971893,1.6937103,-0.74398804,0.15328866,0.11771679,-15.512541
1570726820,-0.37760925,-12.456726,1.8832245,0.3383026,0.91819763,-0.23265076,-0.0047741234,-3.494156,2.7947912
1570726820,-1.0336151,-11.162659,1.4079742,1.0094299,1.498764,-0.42333984,-0.64559114,-2.4282694,2.3709614
1570726820,-1.4921112,-9.126389,0.73880005,1.6421967,1.4902496,-0.3327942,-1.3700367,-0.22060776,1.2063345
1570726820,-0.8779907,-7.0242767,-0.23803711,1.551651,1.006607,-0.17939758,-0.7547536,1.6706266,-0.037680995
1570726820,0.58724976,-6.6029053,-6.941803,1.0275269,1.3102112,0.09011841,0.42688602,2.4019785,-6.21243
1570726820,-0.5284424,-5.7577515,-3.2523346,-1.0220337,1.1078186,0.11036682,-0.17383674,3.1364622,-4.7364554
1570726820,-0.7977905,-5.420166,1.7228241,-0.73228455,0.27264404,0.4853363,-0.7657266,3.556098,1.6543828
1570726820,-0.01966858,-5.67276,-0.16381836,-0.36476135,-0.2866211,0.5907898,0.30266348,3.3370113,0.25804278
1570726820,0.9056854,-5.605713,-3.1302338,-0.39672852,0.16612244,0.65257263,1.2655355,3.0957499,-2.5832405
1570726820,1.275589,-5.784088,-0.502594,-0.8782196,0.7083435,0.5183563,1.9481894,3.3770695,-0.53573346
1570726820,0.9535675,-9.451996,1.6138763,-0.6172333,0.22471619,0.5907898,1.5673792,-0.34694767,2.2410188
1570726820,3.0724335,-9.004288,-1.1813507,-0.1719513,-0.5646515,0.641922,3.8890834,-0.33092976,-0.27909547
1570726820,2.1231384,-8.086105,-1.6817322,-0.4936676,-0.82777405,0.40437317,3.4741058,1.0285501,-1.0419364
1570726820,1.9076538,-14.378067,-4.8217316,-0.24545288,-0.77238464,0.25949097,2.853517,-5.243581,-2.9618924
1570726820,3.0532837,-12.621918,-8.053909,-1.6846313,0.60287476,-0.02279663,4.3514194,-3.988533,-8.365085
1570726820,0.66625977,-13.714874,-3.5719604,-2.8212738,-2.6568298,-0.37113953,2.1101537,-4.792429,-2.0408542
1570726820,-1.234726,-14.894028,-1.7451782,-3.018341,-1.880249,-0.40522766,-0.14222991,-6.420847,-0.23354721
1570726820,-1.5687256,-12.866135,2.663742,-2.346161,0.16612244,-0.89845276,-0.2615813,-4.8414335,5.3987594
1570726820,-1.4202881,-10.492279,3.6333923,-0.757843,0.34295654,-0.9144287,-0.98174477,-2.0796528,7.448132
1570726820,3.5895844,-11.704941,-2.6717377,-0.6332092,-0.40272522,-1.046524,3.9791133,-3.7362509,0.7061496
1570726821,2.0261688,-7.992737,-0.99580383,0.017669678,-0.44747925,-1.5961914,2.9984975,-0.097797394,2.823734
1570726821,-1.3951416,-6.3790436,-0.052474976,0.184906,-1.7620087,-1.4534454,-1.2473478,1.8241978,3.2618108
1570726821,-2.186432,-5.804428,-0.28231812,0.35961914,-1.6203308,-1.1413269,-2.2620394,2.5246906,3.0877798
1570726821,-2.345642,-7.349884,0.28988647,0.6791992,-1.3859711,-0.8196106,-2.5838087,1.227665,3.6713095
1570726821,-2.345642,-7.036255,-0.641449,0.86561584,-1.7609406,-0.6651459,-2.541107,1.1490498,2.550051
1570726821,-2.2750092,-5.6164856,-0.9562988,0.79956055,-1.8269958,-0.51174927,-2.4646204,2.7693348,1.938175
1570726821,-2.431839,-5.339966,-1.3776703,0.883728,-0.9044647,-0.24757385,-2.6129436,3.2009153,1.3301094
1570726821,-1.4059143,-6.3239746,-0.7731323,1.0573578,-0.5380249,0.08053589,-1.7762314,2.3308706,1.6110921
1570726821,0.44241333,-7.676697,-0.4774475,1.3236847,-1.0184479,0.27760315,0.21772498,1.1490011,1.6638703
1570726821,1.3103027,-8.482346,-1.4997711,1.5718842,-1.6799774,0.24671936,1.3446776,0.22298908,0.42802298
1570726821,1.3522034,-8.385391,-4.9641876,1.5154266,-1.9345856,0.07946777,1.6172373,0.3921175,-3.4335515
1570726821,0.79315186,-9.101257,-7.499649,0.4043579,-1.6842499,-0.13571167,1.2076135,-0.25915718,-6.753604
1570726821,-0.16452026,-9.574112,-6.601822,-0.28167725,-1.7865143,-0.2624817,0.24058828,-0.8397484,-5.542377
1570726821,-0.07354736,-8.365036,-4.5284424,-0.65345764,-1.3327026,-0.25715637,0.15690926,0.25909328,-3.722554
1570726821,-0.018478394,-8.318344,-4.0783386,-0.5309448,-0.923645,-0.23797607,0.31510395,0.7043772,-2.3689585
1570726821,-1.7171631,-11.380524,-3.6234283,-0.80685425,-0.22695923,-0.28910828,-1.0779467,-2.4504805,-2.3824673
1570726821,-5.108551,-10.278,3.438263,-0.84413147,-0.6946106,-0.040908813,-4.7561398,-1.6266947,4.6159344
1570726821,-3.2027588,-10.034988,3.3640442,-0.05050659,-2.0624084,0.64512634,-3.283291,-1.5765028,5.7451324
1570726821,0.019836426,-10.810715,2.129837,-1.0625153,-2.2190094,0.83154297,0.5881887,-1.5244589,3.788797
1570726821,0.018630981,-16.830933,5.170471,-0.7035217,-2.8794708,0.7772217,1.0944916,-8.025883,7.4004602
1570726821,2.046524,-14.990982,0.8309784,1.7508545,-2.260559,0.003829956,3.6719203,-6.8742523,3.1728895
1570726821,0.2748108,-11.924011,-0.7767334,1.5750732,-0.7670593,-0.5788727,1.7137042,-3.3892221,0.46670115
1570726821,-1.7015991,-10.231308,-0.4918213,1.7615051,0.66786194,-0.8675537,-0.3369496,-1.5029459,0.22927552
1570726821,-2.2630463,-8.369827,-0.34098816,1.7380676,0.35040283,-0.49577332,-1.3000352,0.24145031,0.28771693
1570726821,-2.076294,-5.720642,-3.2403564,0.8208771,-1.1217804,0.13378906,-1.405549,3.08574,-3.0137277
1570726821,0.62197876,-6.4508667,-0.55885315,-0.1762085,-1.607544,0.5886688,1.3354015,2.7502556,-1.1884385
1570726821,2.0213776,-7.487564,1.7264099,-0.0388031,-1.6672058,0.5183563,3.0776536,1.4639254,1.4829897
1570726821,1.0708771,-7.49115,1.5049438,0.42991638,-1.1739807,0.1359253,2.4560647,1.4186201,1.3778163
1570726821,-0.570343,-8.126816,1.3900299,0.8720093,-0.033081055,-0.070739746,0.80056393,0.84698486,1.0531293
1570726821,-1.5591431,-8.20343,1.125473,0.99983215,0.11178589,0.095443726,-0.3567263,0.6674919,0.45756322
1570726821,-1.298172,-8.562561,0.8812561,0.9827881,-0.47624207,0.37561035,-0.15796387,0.28636265,-0.025514185
1570726821,-0.72836304,-10.017029,0.259964,0.86668396,-1.0376282,0.5577698,0.48699415,-0.95646286,-0.876212
1570726821,0.10003662,-11.414047,-2.2982483,0.66215515,-1.0589294,0.48640442,1.600964,-2.7112703,-3.6336343
1570726822,0.53219604,-9.1575165,-4.0041046,-0.15811157,-0.38142395,0.22221375,1.9495538,-0.35320282,-5.4828625
1570726822,0.07728577,-9.582489,-2.7112427,-0.83454895,-0.34733582,0.42460632,1.5462716,-0.6073475,-4.036543
1570726822,1.5389557,-13.552078,-2.495758,-1.6473389,-1.5702667,0.6898651,2.840661,-4.132947,-3.6925437
1570726822,2.295517,-12.459122,-4.4853516,-2.5283203,-2.0315247,0.72927856,3.886281,-4.1308355,-4.6961555
1570726822,2.3793182,-11.235687,-0.34457397,-2.9959717,-2.5577545,0.2808075,4.7177286,-2.6969023,-0.60794985
1570726822,1.7472534,-10.770004,-0.08480835,-3.3954468,-1.2016754,-0.52134705,4.063159,-2.0799103,-0.010052025
1570726822,-2.0188293,-13.008591,4.386368,-3.0119476,0.671051,-1.1232147,-0.2739799,-3.81645,5.474348
1570726822,0.7357025,-10.681427,6.0371704,-2.1000824,-0.9161835,-0.72480774,1.5334051,-2.4936752,8.072027
1570726822,2.6570435,-9.27124,3.122223,-1.4982147,-2.6941223,-0.6161499,3.878251,-0.7350311,5.8132105
1570726822,2.6570435,-9.27124,3.122223,-1.4982147,-2.6941223,-0.6161499,3.878251,-0.7350311,5.8132105
1570726822,2.6570435,-9.27124,3.122223,-1.4982147,-2.6941223,-0.6161499,3.878251,-0.7350311,5.8132105
1570726822,2.6570435,-9.27124,3.122223,-1.4982147,-2.6941223,-0.6161499,3.878251,-0.7350311,5.8132105
1570726822,2.6570435,-9.27124,3.122223,-1.4982147,-2.6941223,-0.6161499,3.878251,-0.7350311,5.8132105
1570726822,2.6570435,-9.27124,3.122223,-1.4982147,-2.6941223,-0.6161499,3.878251,-0.7350311,5.8132105
1570726822,2.6570435,-9.27124,3.122223,-1.4982147,-2.6941223,-0.6161499,3.878251,-0.7350311,5.8132105
1570726822,2.6570435,-9.27124,3.122223,-1.4982147,-2.6941223,-0.6161499,3.878251,-0.7350311,5.8132105
1570726822,2.6570435,-9.27124,3.122223,-1.4982147,-2.6941223,-0.6161499,3.878251,-0.7350311,5.8132105
1570726822,2.6570435,-9.27124,3.122223,-1.4982147,-2.6941223,-0.6161499,3.878251,-0.7350311,5.8132105
1570726822,2.6570435,-9.27124,3.122223,-1.4982147,-2.6941223,-0.6161499,3.878251,-0.7350311,5.8132105
1570726822,2.6570435,-9.27124,3.122223,-1.4982147,-2.6941223,-0.6161499,3.878251,-0.7350311,5.8132105
1570726822,-4.4142303,-5.994766,-2.6477966,0.51194763,-2.2637482,-0.50749207,-5.654227,2.695777,-0.10599971
1570726822,-3.1560822,-7.2014465,-1.3525391,0.6291199,-1.6448364,-0.0675354,-3.9305544,1.5091915,0.90622735
1570726822,-2.55513,-8.192657,-5.3628235,0.50341797,-1.718338,0.34684753,-3.2171957,0.78713703,-1.6257317
1570726822,0.899704,-10.242081,-7.654068,-0.6481323,-1.9239349,0.5407257,-0.4065576,-1.1088676,-6.1339927
1570726822,5.4642487,-10.989075,-3.6042786,-0.5437317,-2.119934,-0.0717926,4.669452,-2.3358326,-1.7370145
1570726822,7.101883,-11.842606,-3.139801,0.114608765,-0.9279022,-1.0965881,7.317057,-3.2737904,-1.2619245
1570726822,1.611969,-8.884567,-2.3437347,0.5577545,-0.57211304,-1.3639679,2.0870373,-0.97275066,0.37570477
1570726822,0.14552307,-5.5326996,-3.0967102,0.39263916,-1.5233917,-0.7748718,-0.33840328,2.6370049,-0.9567075
1570726822,-0.8552551,-5.274124,0.4981842,0.3809204,-1.2837067,-0.2859192,-0.746123,3.8633366,2.3820298
1570726822,-7.211853,-16.004929,1.4271393,1.3460541,0.3078003,0.3681488,-6.933723,-4.6757975,4.686653
1570726822,-3.6600647,-13.779526,-18.51178,-0.88142395,-1.1995544,0.34898376,-5.511821,-7.412362,-21.228626
1570726822,-2.649704,-3.3827057,4.3851776,-0.9432068,0.5101929,0.6014404,-3.0002637,3.1799097,4.767309
1570726822,-1.4334564,-3.8040771,3.987732,-0.74612427,0.3088684,0.6792145,-1.4062963,5.2053337,6.9143276
1570726823,-1.1317749,-7.1368103,5.9737244,-0.12402344,-0.89701843,1.0009155,-1.254129,2.846284,7.82064
1570726823,1.2324982,-15.895996,4.565933,-0.06755066,-3.7998657,0.80278015,1.1863495,-5.623948,7.5480175
1570726823,5.8281555,-12.405243,-3.7383575,2.2536469,-2.179596,0.9412689,5.5290265,-5.1592436,0.89172864
1570726823,2.3326263,-6.2952423,-4.6469574,2.2408752,1.4625397,-0.7557068,5.2153764,1.223361,-2.7705994
1570726823,-1.2886047,-7.72937,-3.1230469,0.49597168,1.7959747,-1.3085785,-0.21418959,1.8129311,-2.8467174
1570726823,-3.7785645,-9.791977,0.46107483,0.08157349,0.22576904,-1.1743469,-3.0763338,-0.68961716,0.9307636
1570726823,-2.989685,-9.9045105,1.1553955,0.25628662,-0.62750244,-0.22946167,-3.2730634,-1.2325258,2.3442082
1570726823,-1.5555573,-7.403763,0.94111633,0.4224701,-0.8352356,-0.035583496,-1.4760977,1.0611925,1.9973383
1570726823,-0.27944946,-7.6994476,-0.047698975,0.63871765,-1.0440216,0.2893219,-0.48607528,1.4722385,1.0521401
1570726823,1.2097473,-8.59967,-2.7687073,0.8293915,-0.30046082,0.10076904,1.2610896,0.50051117,-1.6309323
1570726823,0.4328308,-8.367432,-3.4965363,0.5758667,0.37278748,-0.12931824,0.9988968,0.42657948,-2.9896345
1570726823,-1.3508453,-8.345886,-3.5647736,0.20301819,0.24813843,-0.1101532,-1.1094488,0.62742424,-3.1905887
1570726823,-1.5842896,-7.0661774,-2.7196198,-0.15171814,0.5645294,0.05709839,-1.4353925,1.5053558,-2.799907
1570726823,-0.73194885,-6.139618,-1.067627,-0.53201294,0.63056946,0.19770813,-0.6610491,2.5397186,-0.83996785
1570726823,0.41007996,-5.5207214,-0.7276459,-0.49046326,0.85321045,0.34365845,0.63848925,3.3850708,-0.082767665
1570726823,1.5796509,-6.520294,-0.33499146,-0.5852814,0.7488251,0.39691162,1.8459809,2.5678072,0.3469382
1570726823,1.5018463,-8.068146,-0.676178,-0.33387756,0.8979492,0.26055908,1.9608035,1.0893764,0.18085408
1570726823,1.1379242,-8.535019,-1.1681824,-0.22947693,0.69662476,0.11994934,1.6232247,0.25454807,-0.051454782
1570726823,0.9068756,-7.6240234,-1.4195709,-0.47129822,0.5261841,0.2296753,1.303721,0.96218014,-0.41285598
1570726823,1.2097473,-9.460373,-3.079956,-0.48727417,-0.12150574,0.15829468,1.7106771,-0.2106142,-1.3724769
1570726823,0.84103394,-14.793457,-8.88829,-1.074234,0.36532593,-0.07499695,1.3783658,-4.927142,-6.846983
1570726823,1.5006409,-14.88324,-3.7503204,-2.3568115,-0.4634552,-0.40097046,1.5449806,-6.5422163,-2.4469337
1570726823,-0.0687561,-14.333771,-0.8018646,-2.174652,-0.18328857,-1.0656891,0.97869325,-5.542611,0.55276036
1570726823,-3.997635,-13.252792,2.2782745,-1.8028717,-0.1928711,-1.444931,-3.994895,-4.870944,4.327195
1570726823,-4.6668243,-12.5967865,-2.4131622,-0.6001892,0.5868988,-0.99539185,-5.130576,-3.6220446,2.142449
1570726823,-0.77864075,-11.743256,-3.392395,-0.67689514,0.51553345,-0.65982056,-2.1681576,-3.8380947,-0.47511053
1570726823,0.8422394,-8.005905,-1.6110992,-0.39672852,0.20446777,-0.79937744,0.25597823,-0.18131733,1.8723061
1570726823,-1.7411041,-5.2908783,-0.6354675,-0.15171814,0.10220337,-0.619339,-2.4496999,2.668641,2.8805668
1570726823,-3.080658,-4.6384583,-0.5528717,0.01020813,-0.23867798,-0.25608826,-4.1751704,3.5890932,2.9654517
1570726823,-2.3073273,-5.368683,-0.5636444,0.3841095,-0.36863708,-0.12612915,-3.3694463,2.8214483,2.982871
1570726823,-2.39711,-4.60614,0.064834595,0.61421204,-0.3931427,0.1327362,-3.4123216,3.3679008,3.3261576
1570726823,-2.610199,-3.2785492,0.098358154,0.9092865,-0.105529785,0.45550537,-3.4556675,4.819066,3.44958
1570726823,-1.9865112,-2.6237335,0.68014526,1.1873169,0.50914,0.7409973,-2.9000554,5.661666,3.2438636
1570726823,-0.056777954,-3.6520538,2.560791,1.4451141,0.054260254,1.2725677,-0.78084195,5.0247536,4.8967953
1570726824,1.9950409,-8.536224,1.8868256,1.9585724,-1.784378,1.5580597,1.5957719,0.93040943,4.317996
1570726824,4.4443207,-14.436722,-3.234375,3.2006683,-2.9263458,0.6131592,4.7183404,-5.570593,-0.6205367
1570726824,1.8059082,-8.6080475,-14.587677,1.9617767,2.565094,-0.17832947,3.850382,-2.7034578,-21.290573
1570726824,0.20896912,-6.120468,-4.068756,0.3244629,1.2995605,-0.3370514,0.36970574,2.6485443,-4.8585014
1570726824,-2.4653473,-9.424469,-2.2348022,-0.23054504,-1.7875824,-0.8569031,-1.9089187,0.25314426,-1.6129738
1570726824,-3.5403442,-15.770294,-4.934265,0.48957825,0.105392456,-0.4861908,-3.9354193,-6.444086,-4.1640425
1570726824,-2.7550507,-12.49025,1.2044678,0.14016724,1.721405,-0.32746887,-2.80076,-4.4632063,0.66690207
1570726824,-1.9697571,-9.949997,3.2215881,-0.40098572,-0.16091919,0.16575623,-2.3693542,-1.4733372,3.769896
1570726824,1.1558838,-10.953171,2.9259033,-1.0912781,-2.482132,0.63020325,1.2592088,-1.7601137,3.6355622
1570726824,2.0177917,-12.57045,-0.42956543,-0.12081909,-2.1945038,0.2808075,2.1879883,-3.6933088,0.8893752
1570726824,0.38134766,-12.613541,-0.5648346,0.04109192,0.5922241,-0.42546082,0.8603518,-3.6836376,-2.9808283E-4
1570726824,-1.74469,-13.473068,1.3241882,0.26161194,1.9003754,-0.59910583,-1.7209493,-4.641679,1.9300246
1570726824,-1.2622681,-9.903305,1.2236328,0.47253418,1.7235413,-0.21774292,-1.5662284,-1.2394476,1.9085472
1570726824,-0.65174866,-7.974777,1.0141296,0.51620483,1.1280518,-0.1612854,-0.93702567,0.67167664,1.5485449
1570726824,-0.65174866,-7.974777,1.0141296,0.51620483,1.1280518,-0.1612854,-0.93702567,0.67167664,1.5485449
1570726824,-0.65174866,-7.974777,1.0141296,0.51620483,1.1280518,-0.1612854,-0.93702567,0.67167664,1.5485449
1570726824,-0.65174866,-7.974777,1.0141296,0.51620483,1.1280518,-0.1612854,-0.93702567,0.67167664,1.5485449
1570726824,-0.65174866,-7.974777,1.0141296,0.51620483,1.1280518,-0.1612854,-0.93702567,0.67167664,1.5485449
1570726824,-0.65174866,-7.974777,1.0141296,0.51620483,1.1280518,-0.1612854,-0.93702567,0.67167664,1.5485449
1570726824,-0.65174866,-7.974777,1.0141296,0.51620483,1.1280518,-0.1612854,-0.93702567,0.67167664,1.5485449
1570726824,-0.65174866,-7.974777,1.0141296,0.51620483,1.1280518,-0.1612854,-0.93702567,0.67167664,1.5485449
1570726824,-0.65174866,-7.974777,1.0141296,0.51620483,1.1280518,-0.1612854,-0.93702567,0.67167664,1.5485449
1570726824,-0.65174866,-7.974777,1.0141296,0.51620483,1.1280518,-0.1612854,-0.93702567,0.67167664,1.5485449
1570726824,-0.65174866,-7.974777,1.0141296,0.51620483,1.1280518,-0.1612854,-0.93702567,0.67167664,1.5485449
1570726824,-0.65174866,-7.974777,1.0141296,0.51620483,1.1280518,-0.1612854,-0.93702567,0.67167664,1.5485449
1570726824,4.632263,-11.625931,-2.0684052,-2.1043396,0.7413635,-0.59591675,6.4675293,-2.3174744,-3.696278
1570726824,-1.5100708,-13.610733,-3.1960754,-1.761322,-2.4320679,-0.8526459,-0.5766007,-4.8261976,-0.49809062
1570726824,-4.0934143,-13.477844,-4.281845,-2.0223236,-0.701004,-0.9591675,-3.6461055,-4.892928,-2.221217
1570726824,-6.369095,-12.680588,0.14863586,-1.9338989,0.9618683,-1.1210785,-6.01873,-4.3337383,1.9803011
1570726824,-0.7463074,-13.226456,-2.4299164,-1.2947388,-0.16517639,-0.18791199,-2.6759486,-4.1474943,3.3738284
1570726824,3.2974854,-12.65065,-2.2108612,-1.3192444,-0.25572205,-0.41375732,3.1394806,-5.1549206,0.97196436
1570726824,-1.4202881,-7.5881195,0.14743042,-0.5661011,-0.24293518,-0.94744873,-1.0152997,-0.35029316,3.8178458
1570726824,-2.1840363,-5.1376495,-1.3166199,-0.02494812,-0.65519714,-0.7557068,-2.946718,2.7966347,2.6728344
1570726825,-2.1373444,-4.3272095,0.08758545,0.2637329,-0.1928711,-0.40203857,-2.5809221,3.6328697,3.5915892
1570726825,-3.4385986,-4.577408,0.81422424,0.6568146,0.1831665,-0.05581665,-3.8832269,3.6657057,4.4089985
1570726825,-2.9214478,-4.434952,0.89682007,0.9827881,0.14801025,0.23286438,-3.7387314,3.7652264,4.2917805
1570726825,-2.4940796,-4.2948914,0.5640259,1.3258057,0.20446777,0.4704132,-3.0101671,3.914135,3.8857224
1570726825,-2.6365356,-3.6592255,-0.4834442,1.5356598,0.3781128,0.94873047,-2.9610791,4.595129,2.475405
1570726825,0.24009705,-5.3854523,1.1601868,1.408905,-0.09806824,1.4557953,-0.5391061,3.7820854,3.1341982
1570726825,3.0496979,-8.927673,2.066391,1.7977142,-1.5851746,1.4163818,2.9973059,0.34676838,3.8183203
1570726825,3.9403381,-14.506165,-2.645401,3.8579407,-3.1308746,0.38093567,4.5816607,-4.737115,2.243006
1570726825,1.4395905,-10.249268,-17.297913,1.3843994,4.61467,-0.50323486,2.3222113,-2.1696672,-19.961048
1570726825,-2.5575256,-8.175888,-4.8923645,-0.35624695,-1.2368317,-1.0656891,-1.4773577,0.7497616,-4.613326
1570726825,-4.5878143,-8.986328,-1.7667236,-1.280899,-0.24613953,-0.6140137,-4.3677435,0.24812698,-3.2382324
1570726825,-1.7028046,-14.747971,3.1629333,-0.031341553,0.85321045,-0.15382385,-1.6504841,-5.273673,4.819745
1570726825,-1.7494812,-12.698532,1.9610443,-0.0015106201,0.206604,-0.050491333,-1.7788858,-5.137068,3.2558188
1570726825,0.1299591,-10.646713,2.4374847,-0.30085754,-0.541214,0.3915863,-0.026655622,-1.9328623,3.0629165
1570726825,0.6171875,-10.018234,1.3780518,-0.21350098,-2.5971832,0.32128906,1.0469759,-1.3767004,3.296616
1570726825,-0.23873901,-10.784378,0.4191742,-0.36582947,-1.2932892,0.06135559,0.3102538,-1.1722727,1.2050575
1570726825,-0.24353027,-14.398422,1.4738159,0.454422,0.59754944,-0.33918762,0.4214699,-5.4706306,2.6013246
1570726825,0.3179016,-10.882538,0.98420715,1.1340637,1.3080902,-0.28485107,0.4839111,-2.7156096,2.0201752
1570726825,0.69140625,-8.388977,0.49578857,1.1734772,0.79782104,-0.28059387,0.814942,0.33432865,1.1495292
1570726825,-0.35006714,-8.429672,-0.32421875,1.2224731,0.6625366,-0.30189514,-0.042131223,0.5807829,-0.008959994
1570726825,-0.42549133,-7.5414276,-0.53970337,1.1212769,0.89582825,-0.10908508,-0.5389118,1.1719418,-0.58140457
1570726825,0.49627686,-6.159973,-1.1179047,0.82832336,0.72325134,0.046447754,0.2811332,2.5053005,-1.35081
1570726825,0.5597229,-4.973648,-2.1294556,0.20195007,0.30033875,0.06135559,0.5894586,3.9180717,-2.6520288
1570726825,-0.6984253,-6.306015,-1.8349609,-0.09526062,0.17996216,0.030471802,-0.4561034,2.9144182,-2.3734071
1570726825,-0.4697876,-8.128006,-1.7787018,-0.24758911,0.34721375,0.3127594,-0.7223076,1.1937532,-2.0156662
1570726825,2.1722107,-8.398544,-7.645691,-0.6523895,1.0928955,0.3404541,1.7664739,0.11687565,-6.424783
1570726825,0.8266754,-5.7182465,-1.1418457,-2.2449646,1.4945068,0.095443726,1.742348,2.6685076,-3.4142716
1570726825,0.29037476,-5.491989,2.6817017,-1.9541473,-0.006454468,0.24351501,0.5384309,3.630846,3.2733312
1570726825,1.1199646,-8.616425,2.2507477,-1.1967316,-0.95666504,0.47573853,1.3212323,1.090148,3.4680128
1570726825,3.0652618,-11.540939,0.7005005,-0.535202,-1.7023621,0.6099701,3.0807924,-2.4728785,2.3548915
1570726825,4.1989136,-13.307861,-5.815323,0.11672974,-0.65626526,0.2424469,4.778714,-4.205159,-2.071612
1570726825,2.484665,-14.616287,-9.058273,-1.5695801,1.2154083,-0.65982056,3.5355115,-5.444418,-9.574244
1570726825,-1.9134827,-13.969864,-3.993332,-2.4484253,-1.4530792,-1.2137604,-1.2112881,-5.225748,-1.8068745
1570726826,-5.674774,-13.968658,-0.660614,-2.6167297,-0.28448486,-1.5205536,-4.501242,-5.4465513,0.85367465
1570726826,-6.4086,-13.230057,0.8609009,-1.2084503,0.4611969,-0.78552246,-7.1294203,-4.792613,5.089217
1570726826,-1.2610626,-12.313065,-6.2091675,-1.4087219,-0.21844482,-0.2166748,-2.8606825,-4.7160215,-2.3628094
1570726826,3.5177612,-9.145538,-0.8282013,-1.060379,0.18103027,-0.52986145,2.8723502,-1.8336306,2.5678396
1570726826,-0.43507385,-5.53508,-0.75398254,-0.43188477,0.011657715,-0.8664856,-0.7191799,2.2010946,3.3308942
1570726826,-1.9494019,-4.2948914,-0.7408142,-0.15490723,-0.30792236,-0.52667236,-2.729807,3.7708502,3.2438793
1570726826,-1.8847504,-4.800064,0.064834595,0.29249573,-0.2908783,-0.1974945,-2.6662915,3.2852669,3.9487112
1570726826,-2.7957458,-4.1739807,0.2240448,0.76760864,-0.2440033,0.023010254,-3.4709415,3.686265,4.0008745
1570726826,-3.1105957,-3.3120728,0.119903564,1.2320709,-0.019241333,0.32234192,-3.8225224,4.8079214,3.7308142
1570726826,-2.8843384,-3.4509277,-0.109939575,1.5196838,0.40367126,0.6046448,-3.4334445,4.7961073,3.1094518
1570726826,-2.5850677,-3.747818,0.115112305,1.5633545,0.591156,1.2928009,-3.1281714,4.667385,2.7057514
1570726826,1.2181244,-7.705429,1.956253,1.7668304,-0.28555298,2.1119995,0.5997927,1.5023136,4.0871496
1570726826,5.336151,-11.573257,1.7515564,2.5284882,-2.0964966,1.612381,5.1759043,-2.6218405,3.6261218
1570726826,9.345245,-15.111893,-18.575226,4.6228027,-1.481842,0.2147522,8.579204,-5.559291,-8.0726385
1570726826,1.5233917,-9.678253,-14.928848,0.7303314,4.8010864,-0.7322693,3.2713764,-1.6567221,-18.667295
1570726826,-3.3559875,-7.127228,-6.9525757,-0.4499817,-2.309555,-1.2478485,-2.3479784,1.6000633,-5.8384337
1570726826,-5.2246704,-10.37616,-3.5324554,-1.8806458,-0.8171234,-0.87394714,-4.994792,-0.121017456,-4.8458686
1570726826,-2.5994263,-15.733185,5.9785156,-0.51815796,0.24176025,-0.18365479,-3.0480063,-7.302577,8.146081
1570726826,-2.1265717,-12.648254,2.2351837,-0.16023254,-0.2823639,-0.11122131,-2.0312316,-4.453018,3.824397
1570726826,0.43043518,-10.306732,2.2435608,0.6014252,-0.0128479,0.35324097,-0.0123799145,-1.651989,3.3653908
1570726826,0.43043518,-10.306732,2.2435608,0.6014252,-0.0128479,0.35324097,-0.0123799145,-1.651989,3.3653908
1570726826,0.43043518,-10.306732,2.2435608,0.6014252,-0.0128479,0.35324097,-0.0123799145,-1.651989,3.3653908
1570726826,0.43043518,-10.306732,2.2435608,0.6014252,-0.0128479,0.35324097,-0.0123799145,-1.651989,3.3653908
1570726826,0.43043518,-10.306732,2.2435608,0.6014252,-0.0128479,0.35324097,-0.0123799145,-1.651989,3.3653908
1570726826,0.43043518,-10.306732,2.2435608,0.6014252,-0.0128479,0.35324097,-0.0123799145,-1.651989,3.3653908
1570726826,0.43043518,-10.306732,2.2435608,0.6014252,-0.0128479,0.35324097,-0.0123799145,-1.651989,3.3653908
1570726826,0.43043518,-10.306732,2.2435608,0.6014252,-0.0128479,0.35324097,-0.0123799145,-1.651989,3.3653908
1570726826,0.43043518,-10.306732,2.2435608,0.6014252,-0.0128479,0.35324097,-0.0123799145,-1.651989,3.3653908
1570726826,0.43043518,-10.306732,2.2435608,0.6014252,-0.0128479,0.35324097,-0.0123799145,-1.651989,3.3653908
1570726826,0.43043518,-10.306732,2.2435608,0.6014252,-0.0128479,0.35324097,-0.0123799145,-1.651989,3.3653908
1570726826,-0.49372864,-7.689865,-3.7419434,-0.23480225,0.7264557,0.11462402,-0.12415323,1.0114002,-3.816197
1570726826,-0.28063965,-4.944916,-1.5608215,-1.121109,0.92459106,0.2147522,-0.019402057,3.6059418,-2.2424483
1570726826,-0.34049988,-4.9329376,1.1134949,-1.3884888,0.25134277,0.26481628,0.055157155,4.233639,1.2672181
1570726826,0.39811707,-9.068924,1.4414978,-0.8004608,-0.33987427,0.52049255,0.6908897,0.26502705,2.0645604
1570726827,2.4667053,-11.83902,-2.3856354,0.008071899,-0.5593262,0.6568451,2.51498,-2.7128382,-0.28740132
1570726827,3.8661194,-11.461929,-7.3117065,-1.0188446,0.57624817,0.35856628,4.645997,-2.8338852,-6.853839
1570726827,2.896469,-13.391663,-2.7052612,-1.7485504,-0.7446747,-0.25076294,3.9079552,-4.1508217,-1.6297889
1570726827,0.3825531,-16.32695,-5.693222,-2.380249,-1.6725311,-0.92933655,1.3743188,-7.43023,-3.91327
1570726827,-3.9258118,-15.019714,-0.7096863,-2.330185,0.8638611,-1.606842,-2.7925668,-6.6045113,0.81698895
1570726827,-8.68309,-11.733673,0.88723755,-1.5024719,1.1120758,-1.2947235,-8.163787,-3.696927,4.0156107
1570726827,-2.3264923,-12.788315,-3.2511292,-1.28302,-0.24507141,-0.0206604,-5.538265,-3.468627,3.1696393
1570726827,3.425583,-10.893311,-1.6877136,-0.9954071,0.19274902,-0.26567078,2.9329596,-3.193922,1.3850098
1570726827,-0.06277466,-5.859497,0.38327026,-0.3221588,-0.15771484,-0.87820435,0.036040485,2.019703,3.8553283
1570726827,-1.6728668,-4.5558624,0.008575439,-0.041992188,-0.68821716,-0.6896515,-2.1755838,3.5864964,3.5602005
1570726827,-2.2522736,-4.474457,0.37487793,0.34257507,-0.39846802,-0.32426453,-2.796605,3.7977772,3.9241266
1570726827,-3.041153,-4.4265747,0.47184753,0.81555176,-0.08848572,-0.037704468,-3.593183,3.7570505,3.900955
1570726827,-3.1501007,-3.6795807,0.50297546,1.1138153,0.026565552,0.19984436,-3.7678685,4.5187635,3.6143844
1570726827,-2.9920807,-2.8882904,-0.25598145,1.411026,0.42817688,0.65045166,-3.4846864,5.426484,2.5412233
1570726827,-1.7423096,-3.5072021,0.08279419,1.504776,0.3365631,1.3524628,-2.444644,5.443183,2.301784
1570726827,1.9555359,-7.839508,1.7575378,1.5122223,-0.8256378,1.8307648,1.3498394,1.8288212,3.308036
1570726827,3.7643585,-11.95993,2.2938385,2.028885,-3.3492584,1.118103,4.3493094,-2.663374,3.6656184
1570726827,6.6110687,-13.959091,-34.52899,2.7585907,1.6638794,-0.16661072,9.74584,-7.815634,-38.60367
1570726827,-0.39196777,-7.2409515,-7.531967,-0.030273438,0.6327057,-0.85050964,1.5019119,1.1954899,-7.999884
1570726827,-4.973282,-9.519043,-4.946228,-1.3181763,-0.34414673,-1.1647644,-3.5316787,0.5276613,-5.484844
1570726827,-2.938202,-13.386871,4.691635,-0.63002014,0.8670654,-0.14743042,-3.710062,-4.4647293,5.673828
1570726827,-1.2048035,-13.038513,5.667267,-0.8835449,-0.30366516,-0.04623413,-0.5809964,-3.8473234,7.1402884
1570726827,-0.4111328,-12.486649,1.7012787,0.38838196,-0.8203125,0.31169128,-0.6650293,-3.8007107,3.3523402
1570726827,-1.269455,-15.346527,2.5392456,0.3095398,-1.5276489,0.32022095,-0.17711866,-5.0310965,3.6335855
1570726827,0.37657166,-14.987396,0.793869,1.6933289,-1.0568085,0.40223694,0.7020531,-8.910718,2.3071845
1570726827,0.050949097,-8.842682,-1.6242676,1.1873169,-0.84375,0.10290527,0.6042197,-0.23803806,-1.0063183
1570726827,0.6758423,-8.0585785,-0.71328735,-4.4250488E-4,-0.49647522,-0.2358551,1.3342891,0.7748232,-0.74911845
1570726827,-0.025665283,-8.981537,0.112716675,-0.199646,0.75520325,-0.44784546,0.59219813,0.36341667,0.16706577
1570726827,-1.293396,-8.910904,1.9730072,0.6120758,3.0977325,-0.22413635,-0.88154995,-0.2697649,2.1646829
1570726827,-0.5104828,-6.6627502,2.529663,1.2586975,1.9706726,-0.066467285,-0.12851486,1.9052362,2.4831567
1570726827,-1.0312195,-5.8798523,1.1206818,1.4792023,-0.7191162,0.04963684,-0.54322517,3.020667,1.3485228
1570726827,0.4400177,-5.808029,-3.3397217,1.1894531,-0.88742065,0.47894287,-0.022794336,3.194583,-2.1818237
1570726827,2.8282318,-6.3239746,-9.185165,-0.25823975,1.1440277,0.003829956,3.5867434,2.4013214,-11.354034
1570726828,-0.46380615,-6.847107,0.03730774,-1.1647797,0.32591248,-0.021728516,0.6228292,1.9085913,-1.329338
1570726828,0.7943573,-6.9799805,-0.48104858,-0.86224365,-0.26531982,0.15083313,1.1190976,1.8177013,-0.24672383
1570726828,1.2241058,-8.065765,-5.4980927,-0.7972717,0.7104645,0.19026184,1.5945604,0.9752054,-4.6617312
1570726828,0.7752075,-6.2605286,1.1996918,-1.7346954,0.47824097,0.2424469,1.37625,2.3056803,0.31833702
1570726828,0.2640381,-6.215042,2.0807495,-1.2201691,-0.9662628,0.4139557,0.97515666,2.7217865,2.9067714
1570726828,2.1626434,-10.185822,1.3792572,-0.80685425,-1.6927643,0.5343323,2.5023818,-0.18381786,2.7788377
1570726828,3.9822388,-14.951477,-12.560989,-0.246521,-0.26531982,0.10076904,4.8930407,-6.241172,-6.9202833
1570726828,0.9511719,-15.781067,-3.5396423,-2.6103516,-0.40911865,-1.0049744,2.9185555,-6.8209543,-4.3575873
1570726828,-3.697174,-14.958664,-1.0173492,-2.3131409,0.09794617,-1.6100464,-2.585459,-6.4561033,0.27604675
1570726828,-6.571411,-14.959854,0.60832214,-1.6771698,0.32591248,-1.3543854,-6.3856115,-5.549535,3.7280874
1570726828,-1.9182739,-16.474197,-2.7040558,-0.6236267,0.46012878,-0.6204071,-4.2146163,-9.6721735,2.3932788
1570726828,3.0879974,-9.3203125,-1.5524445,-0.54159546,0.3312378,-0.5905762,2.6325707,-1.561409,0.4203093
1570726828,0.71414185,-6.3012238,0.115112305,-0.22096252,-0.34733582,-0.8494415,0.94259185,1.7173557,2.8329284
1570726828,-2.0080566,-3.701126,-0.5145569,0.01020813,-0.6029968,-0.81855774,-2.2249193,4.096833,2.8955586
1570726828,-3.5379486,-3.182785,-0.39485168,0.25628662,-0.65093994,-0.62254333,-3.945847,5.489129,2.7860613
1570726828,-3.5690765,-5.11969,-0.289505,0.41819763,-1.0962219,-0.018539429,-4.382928,3.2952213,2.7865634
1570726828,-2.862793,-5.025116,0.093566895,0.49809265,-0.74894714,0.44059753,-3.4186368,3.3422928,3.07877
1570726828,-2.6856232,-4.36792,-0.3397827,0.9242096,0.2705078,0.5812073,-3.1007547,3.9606743,2.4570062
1570726828,-2.574295,-3.7035217,0.18814087,1.2608337,1.0960999,0.864563,-2.9944286,4.5915976,2.3746383
1570726828,-1.4118958,-5.818802,2.0280762,1.3407288,0.52404785,1.213974,-1.6540463,3.9557629,3.6889486
1570726828,2.2536163,-10.679031,1.224823,1.9638977,-1.0056763,1.5623169,1.5517957,-0.90487003,3.47704
1570726828,6.682892,-11.981476,-7.6708374,3.226242,-1.3007507,0.79852295,6.0196095,-3.0112295,-1.6827714
1570726828,1.9447632,-9.408905,-15.229324,-0.0068359375,2.102768,-0.60124207,4.0358663,-1.1082726,-20.057072
1570726828,-2.4090881,-8.720566,-5.3029633,-0.5682373,0.28222656,-0.7557068,-1.4830207,-0.079592705,-5.7651086
1570726828,-4.9277954,-9.241318,-4.3225403,-0.6747589,0.35786438,-0.5319977,-4.1676674,0.46704292,-3.8538451
1570726828,-0.709198,-12.125122,4.0811005,0.29356384,0.09901428,0.2424469,-2.4406443,-3.7931995,3.2925143
1570726828,0.24128723,-13.593964,3.872818,-1.4279022,-1.6554871,0.3596344,1.0925541,-1.8826818,5.171252
1570726828,0.89730835,-15.178925,2.3429108,0.93058777,-0.7233734,0.702652,-0.23097438,-8.8279505,5.5180526
1570726828,-1.5735168,-14.2296295,6.340042,0.24668884,1.006607,0.06774902,-0.39776725,-4.2897177,7.128061
1570726828,1.5186005,-12.896057,1.3936157,1.8041077,0.3908844,0.012359619,1.9681162,-5.013281,2.2236047
1570726828,-1.7411041,-10.27919,-0.4559021,0.8570862,-0.13534546,-0.54904175,-0.23687693,-1.0430975,0.45869112
1570726828,-2.9609528,-8.329117,0.49699402,0.35108948,0.6135254,-0.4361267,-2.7141492,0.7773056,0.7685107
1570726828,-3.1608734,-9.436432,-0.20570374,0.454422,1.8140869,-0.4446411,-2.7608953,-0.38387775,0.04444012
1570726829,-2.6999817,-7.0542145,1.1410217,0.31700134,2.58107,0.14978027,-2.5985763,1.7753887,1.0850067
1570726829,-0.4302826,-7.5342407,1.0991364,0.6493683,1.4625397,0.559906,-0.31817982,1.2363672,1.2111884
1570726829,0.041381836,-5.859497,1.1960907,0.0592041,-1.4115448,0.7090454,0.48369148,3.1273375,1.1195867
1570726829,-0.74990845,-7.7413483,-0.064453125,-0.23373413,-3.4376678,1.1372681,0.11163986,1.7964935,-0.10447566
1570726829,0.2053833,-8.977951,-1.0736084,-0.21350098,-4.679764,1.4824219,0.87462175,-0.44440365,-1.1181927
1570726829,2.659439,-9.089279,-0.40203857,0.8112793,-2.9955902,0.9370117,3.5182195,-0.2499857,-0.83557796
1570726829,2.20932,-8.685852,-0.8174286,1.2938538,-0.39207458,0.28825378,3.6875515,0.27675438,-1.5366001
1570726829,1.2217255,-11.2452545,-1.882843,0.6312561,0.6859741,0.12313843,2.6408381,-1.466877,-2.8152504
1570726829,0.99786377,-9.474747,-1.3070374,-0.22947693,1.4998322,0.3958435,2.44668,-1.3254318,-2.3922043
1570726829,0.66986084,-7.618042,0.050476074,-0.3999176,2.1613617,0.39691162,2.469981,1.4103165,-0.9743731
1570726829,0.10601807,-12.1754,2.5967102,0.883728,0.69981384,-0.24118042,1.8528417,-3.0586224,3.0127392
1570726829,-1.2119904,-9.424469,1.2439728,1.1755981,0.46865845,-1.6281586,0.6101438,-1.2586193,0.11664164
1570726829,-2.1110077,-9.19104,3.6585388,1.7700195,-0.11404419,-1.205246,-1.1973591,0.11209488,2.186799
1570726829,-1.6154175,-8.598465,2.3860168,1.1298065,-1.3263092,-0.4819336,-0.82417953,1.0071554,1.0210936
1570726829,-3.657669,-12.107178,-1.1490326,0.76760864,-2.484253,-0.41375732,-3.1559854,-3.5283794,-2.4983284
1570726829,-3.8348389,-11.335037,-3.7778625,-0.037734985,-1.0024719,0.017684937,-3.4032297,-2.5464993,-5.664091
1570726829,-3.7043457,-10.104416,-3.8089905,-1.359726,1.0406952,0.3905182,-2.9971228,-1.1177692,-6.611145
1570726829,-4.1891785,-12.03894,-0.80307007,-2.001007,1.2026215,0.52368164,-3.6583912,-3.0414495,-2.5520911
1570726829,-2.6987915,-12.334625,3.1928558,-2.044693,2.2274017,0.32234192,-1.9080607,-3.3472414,1.8390695
1570726829,-2.71315,-12.180191,7.0618896,-1.4545288,3.0487213,-0.024932861,-1.6304673,-3.1500483,6.011654
1570726829,-2.500061,-11.868942,10.438904,-0.70991516,1.3006287,0.069885254,-1.6339519,-3.019516,10.355744
1570726829,2.2500305,-10.67424,-3.6234283,-1.1445465,0.80314636,-0.8845978,3.5690358,-0.99771595,-4.2569413
1570726829,-6.396637,-10.558121,1.1362457,-1.1967316,0.32591248,-0.77593994,-5.5710635,-2.9975643,0.5864262
1570726829,-2.5922394,-9.953583,0.4874115,-0.68222046,-1.0919647,-0.5106964,-3.120902,0.24027443,3.7805803
1570726829,1.1307373,-9.938019,3.3700256,1.5111694,2.389328,-1.5418701,1.5178833,-1.5174713,2.3976116
1570726829,-0.8157501,-8.793594,0.012161255,3.0291595,3.201065,-2.513382,-0.7752218,-0.17106915,-0.034480914
1570726829,-2.8532104,-5.7541504,-4.0974884,1.9617767,2.7057037,-1.4854126,-4.2489114,3.5037766,-6.4951954
1570726829,-2.5695038,-7.954422,0.7411957,1.457901,0.0340271,-0.2081604,-3.3262386,1.8622875,-2.510632
1570726829,0.35621643,-4.9963837,-0.87368774,2.5050507,2.5235443,0.39479065,-0.7165062,3.2274857,-4.1114526
1570726829,-2.8927155,-2.5447235,-1.5811768,1.122345,0.36106873,1.1266174,-4.1656837,5.6279173,-3.6177676
1570726829,-2.203186,2.1467133,-1.7787018,-0.8739624,-0.57318115,1.0456696,-1.9535909,10.991744,-4.434973
1570726829,-4.4297943,-1.1165924,1.3289795,-1.822052,-2.3830566,1.9021301,-4.3575563,8.420865,-0.62007403
1570726829,-1.2395172,-4.0387115,0.31982422,-0.5437317,0.42817688,3.1175995,-1.2316079,4.312317,-1.415626
1570726829,1.7221069,-3.0977936,1.6450043,0.009140015,1.54776,2.9620667,1.9793229,5.216485,-0.76202965
1570726830,-1.135376,-4.436142,1.121872,0.9071655,2.1688232,1.563385,1.5230644,3.9419918,-0.5079442
1570726830,-4.7266693,-5.6943054,-0.18296814,0.6483002,0.8063507,0.87202454,-1.3556325,2.981347,-1.633524
1570726830,-6.211075,-13.902817,0.07321167,1.2853241,3.2394104,0.93273926,-3.6158984,-4.5305176,-3.2804198
1570726830,-1.5842896,-14.728821,2.3776398,1.3535004,1.7459106,1.0328827,0.34346128,-7.1910334,1.7365628
1570726830,-1.135376,-15.348923,0.2886963,0.99131775,2.0740051,-0.4073639,2.6966903,-6.822153,-2.2672086
1570726830,-1.9362335,-20.258224,6.15448,1.2853241,3.5632477,-1.4566498,0.98442984,-11.380362,2.9031596
1570726830,-0.45422363,-20.233093,10.423355,2.1013184,4.0202484,-2.4622498,2.465575,-12.237288,7.7345715
1570726830,-0.6170349,-17.093094,10.340744,2.5029297,2.738739,-3.7416382,1.8840506,-9.429041,8.34694
1570726830,-1.6321716,-14.514542,11.147598,3.3455505,2.4436493,-4.467087,-0.036652923,-6.7934494,8.22514
1570726830,-2.2929688,-11.610367,9.305252,3.893097,2.0814667,-4.9432526,-1.3045605,-3.5422707,5.723878
1570726830,-2.680832,-9.469955,9.1484375,4.4321136,2.3914642,-4.6119537,-3.017761,-2.285439,4.3374667
1570726830,-2.641327,-7.3103943,7.4090424,4.882721,2.1858673,-4.280655,-3.3990908,-0.62651014,1.9829183
1570726830,-2.4102783,-5.04068,5.130966,5.3237457,2.4756165,-3.9909058,-3.5991511,0.41523695,-1.6197042
1570726830,-1.8308868,-3.684372,4.105057,5.0489044,2.150711,-3.5850372,-3.1087313,0.8227291,-3.7439833
1570726830,-1.4657745,-3.3276367,3.60466,4.279785,1.130188,-3.5030212,-2.667702,-0.15720057,-4.8994045
1570726830,-0.6613159,-1.9114685,3.1090546,3.4233093,0.25559998,-3.3272552,-2.1327882,0.04407549,-5.6626015
1570726830,-0.85046387,-1.3871307,2.181305,2.1481934,-0.45599365,-3.2185974,-2.2444093,-0.12588978,-6.575424
1570726830,-0.36683655,0.1583252,1.0883484,0.64616394,-0.0021972656,-2.6848907,-2.0328104,0.50943345,-7.709482
1570726830,9.616989,-9.3598175,11.402573,1.0243378,3.4300842,-2.32164,4.5460634,-5.511648,-0.9799442
1570726830,0.25924683,0.8167267,9.008377,0.76441956,1.2111511,-2.1895447,0.1599235,0.5667312,-0.25495625
1570726830,-1.4142914,0.8334961,10.209061,0.4309845,0.92884827,-1.0806122,-1.2467414,1.0860978,-0.1283226
1570726830,-0.83729553,0.17747498,9.984009,0.49916077,-0.7936859,-1.1072388,-1.2428213,0.02953203,1.7917643
1570726830,-0.08911133,-0.40072632,9.171173,0.37771606,-0.9641266,-1.1466522,-1.0736017,-0.39338648,-0.3123989
1570726830,0.7249298,-0.1385498,9.381866,0.33511353,-1.1143341,-1.031601,-0.25500566,-0.4952915,0.2851963
1570726830,1.9818726,0.4156952,8.680374,0.22964478,-1.115387,-0.7226715,0.89606357,-0.34721014,0.02812767
1570726830,2.007019,0.5378113,7.886688,0.24349976,-0.26211548,-0.5000305,0.92756605,0.18987536,-1.0165567
1570726830,1.2576294,1.1207886,10.155197,0.14974976,0.68170166,-0.6150818,0.10744226,0.3523159,1.075922
1570726830,1.0661011,1.8857422,10.505951,0.25308228,0.3876953,-0.70243835,0.23452973,1.0061259,1.4764786
1570726830,1.0194092,2.0760803,10.618469,0.33724976,0.20127869,-0.6406555,-0.048303604,1.2910672,1.6066065
1570726830,1.0337677,1.9755249,10.334763,0.33937073,-0.24188232,-0.65556335,0.2263866,1.1824181,1.6144905
1570726830,1.0577087,2.1718445,9.688324,0.27972412,-0.37077332,-0.6811371,0.123407006,1.0879323,0.9611473
1570726830,1.0134277,2.4435883,9.837967,-0.094192505,-0.0128479,-0.6022949,0.105995536,1.3979566,0.62490654
1570726830,0.50823975,2.6183624,10.389832,-0.10697937,0.04360962,-0.5511627,-0.46988398,1.4983308,1.3714905
1570726831,0.4052887,2.5908356,9.980423,0.024047852,-0.10020447,-0.45742798,-0.5094755,1.5522084,1.0305471
1570726831,0.9320221,2.3765564,9.836761,6.2561035E-4,-0.09913635,-0.42333984,-0.23650831,1.29052,0.7919731
1570726831,1.0960236,2.2628326,9.817612,-0.09844971,-0.066101074,-0.48086548,0.06691623,1.1832473,0.79404354
1570726831,1.1858063,2.1299438,9.831985,-0.17515564,-0.02456665,-0.57141113,0.6865131,0.25984275,0.5620308
1570726831,1.1271515,2.229309,9.545868,-0.3764801,0.3557434,-0.7077637,0.18359488,1.1310749,0.37940407
1570726831,1.165451,1.6582947,10.510742,-0.375412,0.41645813,-0.6374512,0.5260121,1.1012764,1.1757107
1570726831,0.5309906,1.003479,10.213852,0.13270569,-0.25253296,-0.64172363,-0.082116544,0.07079291,1.2912216
1570726831,0.6782379,0.80355835,9.786484,0.36813354,-0.5603943,-0.7365265,-0.32739455,-0.28478646,0.702549
1570726831,1.3761444,0.7604675,9.59256,0.8080902,-0.7233734,-0.7514343,0.44893628,-0.53171444,0.6102047
1570726831,1.1474915,1.3829651,8.561859,1.3577728,-0.97584534,-0.7674103,-0.03472078,-0.051879525,-0.17020416
1570726831,1.3773346,1.6690674,8.790497,1.5761414,-1.0408325,-0.6022949,-0.07111597,-0.22528744,-0.12723827
1570726831,1.5497284,2.4292297,8.949722,2.2579193,-1.193161,-0.9378662,-0.08689058,0.02113533,0.40056133
1570726831,2.5313416,4.5349274,8.768951,1.9607086,-0.9193878,-0.52879333,0.5402782,1.2392874,0.49381924
1570726831,2.78154,4.767166,7.746628,1.4323273,0.41539,-0.26567078,1.1782544,1.2507546,-0.5281296
1570726831,1.2013702,3.8980713,8.883881,1.1585541,0.62205505,-0.24118042,-0.32551622,0.31996393,0.30665398
1570726831,1.1247559,4.0345306,9.575806,1.2448425,0.13948059,-0.25289917,-0.63185036,-0.2947364,1.6102791
1570726831,1.591629,5.1394653,8.534317,1.3439178,-0.093811035,-0.15914917,-0.0056214333,0.6689191,0.70909405
1570726831,1.4647369,5.8792725,8.553482,1.1660156,-0.2727661,-0.07713318,-0.20218587,1.0237775,0.84324694
1570726831,1.7640076,6.2515717,7.886688,0.95402527,-0.23123169,0.0017089844,0.06700528,1.2432008,0.62487745
1570726831,1.8777313,6.69928,7.102585,0.7367096,-0.15238953,-0.059020996,0.17472363,1.3643723,-0.21349382
1570726831,2.0525055,6.76033,7.533554,0.4597473,-0.070373535,-0.05581665,0.3902309,1.395071,0.12233591
1570726831,2.1698303,6.5795746,7.9872437,0.3244629,-0.04586792,-0.052627563,0.41636193,1.251348,0.58675146
1570726831,1.880127,6.6897125,7.9297943,0.3574829,-0.115112305,-0.113342285,0.17113888,1.1434317,0.8091116
1570726831,2.1195374,7.011734,7.814865,0.3713379,-0.10020447,-0.105895996,0.30149603,1.3380003,0.67637014
1570726831,2.0692596,6.845337,7.629318,0.34469604,-0.105529785,-0.1144104,0.35605037,1.1013389,0.5634947
1570726831,2.2380524,6.850113,7.689163,0.32232666,-0.1459961,-0.0867157,0.48706543,1.0300498,0.63129234
1570726831,2.2895355,7.0141144,6.7877502,0.28077698,-0.020309448,-0.08564758,0.4617784,1.0907745,-0.122348785
1570726831,2.2548218,7.212845,7.224701,0.11140442,0.11073303,-0.09629822,0.5732169,1.4204054,0.20946503
1570726831,2.1027832,7.044052,7.762192,-0.0036468506,0.008453369,-0.07286072,0.32771218,1.0690784,0.76243067
1570726831,2.247635,7.2547455,7.7262726,-0.06542969,-0.22802734,-0.03451538,0.5036999,1.2533059,0.83542013
1570726831,1.9088593,6.617874,7.181595,-0.12614441,-0.2205658,-0.040908813,0.40600824,0.80889654,0.4245062
1570726831,2.113556,6.972229,7.04274,-0.27635193,0.016983032,-0.09950256,0.25960004,0.9887104,0.0221982
1570726831,2.0764465,7.052429,7.545517,-0.5533142,0.08622742,-0.13998413,0.34140706,1.2001405,0.42022228
