time,ax,ay,az,gx,gy,gz,la_x,la_y,la_z,fox,foy,foz
1570715420,5.2959743,7.6135616,0.51714754,1.7311075,1.0610358,-0.22158176,-1.8722657,1.067814,-0.8810662
1570715420,5.674258,6.751649,-0.04309563,0.9118942,2.127398,-0.16618632,-1.388637,0.11492168,-1.5466543
1570715420,6.421249,8.537724,-1.0103531,0.0031958907,2.7836208,0.11292148,-0.49799395,1.8722657,-2.9735985
1570715420,6.1100025,6.823475,-1.460463,0.16512102,3.806306,0.43251055,-0.641646,0.22505496,-4.1180267
1570715420,6.7372837,7.7093296,0.45010993,0.72333664,4.707547,0.57099915,0.2777274,1.1683705,-2.96881
1570715420,9.011775,7.5465236,3.064578,1.0652969,4.286755,0.49855897,2.96881,1.0007763,-1.0390835
1570715420,9.23683,7.029376,4.0222588,1.5308317,2.350045,0.16299044,3.53863,0.36870706,-0.37828386
1570715420,7.848193,6.3829417,3.8259344,1.890902,0.68072474,-0.2098635,2.336741,-0.51235914,-0.44532153
1570715420,7.603985,6.540959,4.405331,2.1263328,-0.39948636,-0.6626147,2.1978772,-0.6799533,0.5554548
1570715420,8.274361,7.771579,3.193865,2.0901127,-1.1068435,-0.88952297,2.954445,0.18674773,-0.02873042
1570715420,8.274361,7.867347,3.41892,2.02726,-1.1377372,-0.65089643,3.169923,0.05746084,0.45489833
1570715420,7.28795,8.341399,2.504335,1.8664002,-1.1260189,-0.3185238,2.27928,0.18195933,0.33518824
1570715420,6.775591,7.97748,4.309563,1.7460216,-0.9481143,-0.17151281,1.5993267,-0.24420857,0.5746084
1570715420,6.459556,5.9902925,1.0582372,-0.67752886,-1.9249916,-0.5177343,1.6807296,-2.9592333,0.019153614
1570715420,5.5258174,7.5944076,-1.9728222,1.0770152,-1.531897,-0.22477765,0.46447513,-1.1300632,-3.2561142
1570715420,5.9567738,8.963891,-2.0350714,1.8813144,-0.4154658,-0.05539544,0.842759,0.79008657,-2.4899697
1570715420,5.717354,6.813898,11.45865,1.5255052,-0.74570787,-0.08522376,0.60333884,-0.6943185,5.9663506
1570715420,6.4164605,6.9862804,-3.5338416,-0.13103153,-1.754544,-0.3898987,1.4173675,-1.1827357,-2.2984335
1570715420,5.0757074,7.225701,-0.9911995,0.44635943,-1.0312074,-0.18216577,0.521936,-1.1204864,-0.9959879
1570715420,4.9655743,6.4068837,0.5315128,0.24927948,-1.2719646,-0.19175345,0.6368576,-1.3024458,-0.40701428
1570715420,5.281609,5.3821654,-2.5474305,-0.4516859,-1.8983592,-0.40587813,0.45489833,-3.0358477,-0.6751649
1570715420,4.189853,5.947197,-1.8004397,-0.32278496,-1.4445426,-0.37178862,-0.21068975,-2.4947581,-0.44532153
1570715420,4.5298295,7.225701,-1.5466543,-0.7180101,-0.87993526,-0.14274979,-0.1388637,-1.8674773,-0.009576807
1570715420,6.019023,9.763555,-4.1611223,-0.8639558,-0.54649734,-0.009587673,1.6041151,0.94810385,-2.8491
1570715420,4.7309427,8.834604,-2.3942018,-0.89698005,-0.7297284,0.11824796,0.6847417,0.41180268,-1.3551182
1570715420,3.964798,6.564901,-1.508347,-0.96302843,-0.4218576,-0.16831692,-0.51235914,-2.1643584,-1.1971009
1570715421,3.8259344,6.9288197,-0.062249243,-0.9907262,-0.15872924,-0.122509144,-0.51235914,-2.1452048,1.7477672
1570715421,4.6686935,12.885593,-2.9975405,-0.53264844,0.88952297,0.7510343,0.6368576,6.2728086,-4.122815
1570715421,5.2959743,8.288726,1.3982137,-0.36646214,-0.22797355,0.6977695,0.6943185,-0.36391866,1.70946
1570715421,5.0613422,6.459556,-1.3742718,0.23862651,-1.198459,0.9417225,0.2681506,-2.0829554,-0.8858546
1570715421,4.31914,-7.153875,-3.0262709,0.15553336,-1.4519997,-3.4664762,-3.5865142,-15.892711,-0.47884035
1570715421,8.37013,26.819847,-0.49799395,0.9406572,-2.895477,-3.4686067,4.855441,17.731459,0.61770403
1570715421,2.504335,8.470686,-2.135628,0.3483521,0.6796594,-0.78192794,-0.5315128,-0.50278234,-2.207454
1570715421,2.4756045,7.589619,-1.091756,0.49429777,0.28869548,-0.5784562,-0.38307226,-1.6950948,0.23463176
1570715421,1.9967642,5.085284,-3.0358477,-0.033024207,-0.12890093,-0.40161693,-0.7182605,-4.237737,-1.6759412
1570715421,2.4660277,5.765238,-3.7684734,0.487906,0.81282157,0.14594568,-0.2681506,-3.5482068,-2.3798366
1570715421,3.9360676,6.277597,0.4213795,0.6295905,0.7925809,0.23010413,1.0869676,-2.9831753,1.9297266
1570715421,4.525041,11.03727,-2.336741,0.0085223755,-0.839454,-0.067113705,1.6663644,1.7908629,-0.7469909
1570715421,2.9400797,14.058752,-4.027047,-0.54330146,-1.0056403,0.07350549,0.14844051,4.7884035,-2.432509
1570715421,3.5290532,11.473015,-5.161899,-1.0652969,-0.12890093,0.18855755,0.6799533,2.1930888,-3.7493198
1570715421,3.821146,10.778696,-1.292869,-1.0067056,0.6413088,-0.22158176,0.9911995,1.4460979,-0.23463176
1570715421,3.5434184,8.944737,-0.5602432,-0.2098635,0.28549957,-0.11505207,0.79966336,-0.521936,0.30645782
1570715421,2.4277205,9.662998,-3.1124623,0.50068957,0.14594568,-0.07883197,-0.37828386,0.31603462,-2.1068976
1570715421,3.6822822,8.422802,-1.7812861,-0.14061919,0.32491556,-0.120378554,0.94331545,-1.4173675,-1.1875241
1570715421,2.2744915,9.131485,-1.541866,0.1395539,0.012783563,-0.029828314,-0.5315128,-0.20590134,-0.521936
1570715421,2.4851813,8.911219,-1.9680338,0.22797355,0.0,0.0074570784,-0.33997664,-0.41180268,-0.8714894
1570715421,2.5378537,8.939949,-2.480393,0.019175345,0.017044751,-0.022371236,-0.29688102,-0.37349546,-1.340753
1570715421,3.107674,8.030152,-3.6774938,-0.47299185,0.089484945,0.07776668,-0.04309563,-0.94810385,-2.2888567
1570715421,2.4468741,5.616797,-1.3311762,-1.2634422,0.41013932,0.16512102,-0.6368576,-3.0597897,-0.81402856
1570715421,4.0557775,4.19943,-0.08140286,-0.5976316,0.27165073,-0.017044751,0.90500826,-5.3007627,0.22026655
1570715421,2.6192567,6.1100025,-0.6799533,0.22584295,-0.46127358,-0.8319969,0.17717093,-4.1276035,0.07182605
1570715421,2.4612393,8.1163435,-2.1883004,0.54543203,-0.50282013,-0.624264,-0.35913026,-0.8571242,-1.7142484
1570715421,2.2649148,10.481815,-3.4476504,0.8479764,-0.8437152,-0.81708276,0.07182605,0.9528923,-1.6807296
1570715421,2.3798366,11.113884,-2.1404164,-0.17151281,-0.017044751,-0.46873066,0.023942016,2.6288335,-0.9911995
1570715421,2.231396,8.810662,-1.9057846,-0.29295665,0.044742472,-0.42505348,0.17238252,-0.7326257,-0.9720459
1570715421,2.1164744,10.16578,-1.733402,0.2087982,0.06604841,0.036220096,0.19153613,1.0151415,-0.8379706
1570715421,1.292869,13.570335,-1.388637,0.60189277,-0.574195,0.4889713,-0.79966336,4.050989,-0.30645782
1570715421,3.3423057,10.409989,-2.2122424,-0.88952297,0.34302562,-0.05646074,1.1971009,1.8195933,-1.6280571
1570715421,2.4851813,11.903971,-2.6048915,-0.47192654,0.10652969,-0.070309594,1.316811,-1.685518,-1.2641385
1570715422,0.6464345,10.563218,-3.0214825,-0.009587673,0.7297284,-0.054330144,-1.1779473,0.2681506,-3.0550013
1570715422,2.0685902,10.19451,-0.8571242,-0.11079088,0.57739097,-0.23330003,-0.22026655,0.8619126,0.4309563
1570715422,2.4181437,10.405201,-1.5131354,-0.40161693,0.5518238,-0.058591332,0.06703765,1.0055647,-1.1779473
1570715422,3.5003228,9.773131,-0.076614454,-0.60615396,0.35793978,0.068179004,0.58897364,-0.17238252,0.93373865
1570715422,2.3702598,10.093954,0.40701428,-0.3792457,-0.009587673,-0.2428877,0.521936,-0.095768064,-1.1061212
1570715422,2.8443117,9.562442,-1.4030021,-0.3877681,0.23116943,-0.419727,0.7326257,-0.009576807,-1.1492168
1570715422,3.0262709,9.873688,-1.3694834,-0.692443,-0.039415985,-0.46127358,1.043872,0.2681506,-1.3120226
1570715422,3.5817258,9.581595,-1.8962077,-0.64876586,0.36965802,-0.56673795,1.5035586,-0.05267244,-1.8483237
1570715422,4.3382936,9.394848,-2.3127987,-0.60082746,0.60189277,-0.5283873,2.6719291,-0.2633622,-2.6623523
1570715422,4.156334,9.433155,-2.5953147,-0.49855897,0.81495214,-0.46873066,2.6527755,-0.23942018,-3.1172507
1570715422,3.6870706,8.6334915,-2.9257145,-0.3078708,1.1686307,-0.32704616,2.3080103,-1.0486604,-3.6056678
1570715422,4.1276035,9.184157,-4.185065,-0.046873067,1.6480143,-0.17151281,2.858677,-0.50757074,-4.975151
1570715422,6.066907,8.887277,-4.807557,0.31319728,2.3298044,0.3494174,4.817134,-0.80445176,-5.631162
1570715422,6.133945,4.745308,-3.3854012,0.74996907,2.525819,0.7126837,4.76925,-4.936844,-4.1371803
1570715422,4.050989,7.4746976,-3.5577838,0.87567407,2.2829313,0.54330146,2.5761611,-2.1978772,-4.175488
1570715422,-1.4077905,9.179369,-3.3662477,1.004575,2.2552335,0.29402196,-2.9640217,-0.48841715,-3.8163576
1570715422,-0.2777274,7.800309,-2.4516625,1.3039235,2.2030342,0.1395539,-1.8483237,-1.8722657,-2.6719291
1570715422,0.023942016,8.394072,-1.3311762,1.5691824,2.3010414,0.5262567,-1.6472107,-1.2641385,-1.2258313
1570715422,2.3127987,7.4746976,-1.5179238,1.7566746,1.453065,1.015228,0.38307226,-2.1260512,-1.0295067
1570715422,3.5673606,8.37013,-3.122039,1.9580158,1.1526513,1.1164312,1.292869,-1.1204864,-2.1691468
1570715422,4.8602295,9.399636,-2.7820623,2.1518998,1.4381509,0.9672896,2.2601264,0.05746084,-1.3359646
1570715422,5.0038815,8.001422,-3.5242648,1.9217957,1.0237503,0.74038136,2.0973208,-1.1683705,-1.6136919
1570715422,6.2632318,6.95755,-5.9280434,1.56066,0.9097636,0.4911019,3.1316159,-2.0494366,-3.6343982
1570715422,7.4746976,10.462662,-6.8330517,1.1185617,1.0344033,-0.12677033,4.223372,1.5658079,-4.280833
1570715422,7.9822683,9.299079,-7.953538,0.71055305,1.0003139,-0.8852618,4.9655743,1.1109096,-5.2385135
1570715422,7.153875,5.731719,-8.719683,0.46340418,0.886327,-1.6693203,4.3526587,-2.753332,-6.0142345
1570715422,6.799533,5.7269306,-8.734048,0.11824796,1.0834069,-2.2190135,4.390966,-3.4380736,-6.469133
1570715422,-0.29209262,1.6280571,-3.6152446,0.43890235,0.37285393,-2.4800112,-0.31124622,-6.751649,-2.0973208
1570715422,-3.7253778,19.278112,-4.644751,0.36539686,0.3824416,-2.428877,-5.521029,4.405331,-1.5035586
1570715422,7.393295,7.4268136,0.866701,0.37178862,-1.2346791,-0.02130594,4.8458643,3.1986535,3.9504328
1570715422,-2.0494366,7.067683,-1.5370775,-0.16512102,-1.940971,-0.6295905,-2.4468741,-4.4580035,1.3215994
1570715422,-1.0199299,13.220781,-1.4556746,-0.64450467,-2.0751984,-0.7670138,-0.9959879,4.9895163,1.7190368
1570715422,-2.9592333,7.9008656,-0.82360536,-0.92041653,-2.777229,-0.6189375,-2.791639,-1.5275006,2.2936451
1570715422,-4.8841715,10.448297,-4.7070007,-1.2250915,-3.476064,-0.4474247,-4.5872903,0.20111294,-1.7669208
1570715423,3.1794999,11.161768,-6.349423,-1.6586673,-3.5634181,-0.17044751,2.4468741,1.2976574,-3.490746
1570715423,8.24563,13.426683,-11.434708,-2.2083604,-3.6859274,-0.41653112,9.370906,4.012682,-9.030929
1570715423,1.7908629,14.81532,-9.773131,-2.3873305,-3.0851,-1.2432015,4.548983,4.5537715,-10.864887
1570715423,8.078036,18.847157,-9.586384,-2.880563,-1.8738573,-2.7186377,7.5561004,8.882488,-9.414001
1570715423,7.9248075,14.877569,-6.919243,-2.4810765,-0.67752886,-1.4807627,13.613431,8.111555,-10.103531
1570715423,-2.2601264,11.362882,-3.6104562,-2.3074331,-0.3898987,-1.2059162,0.5410896,2.1164744,-5.2863975
1570715423,10.481815,-3.3135753,-6.38773,-0.2098635,-0.09587672,-0.53264844,12.430696,-10.70687,-7.3406224
1570715423,9.169792,-7.6614456,-9.260772,1.4040613,2.5268843,0.3877681,13.479356,-16.323668,-11.559206
1570715423,2.9017725,-7.896077,-6.8809357,1.5659865,3.1554096,1.4583915,6.081272,-17.0946,-8.063671
1570715423,-2.0398598,5.2002063,-4.9943047,1.9622769,2.748466,2.1284633,0.7038953,-4.2042184,-5.410896
1570715423,-7.714118,20.38902,-9.050082,2.951938,4.30593,2.5801492,-5.693412,10.802638,-8.537724
1570715423,-3.9264908,32.134975,-5.0182467,2.3159556,1.704475,4.0715647,-3.0214825,22.476765,-3.572149
1570715423,9.562442,12.89517,-1.7046716,3.4249296,4.4827695,1.7481523,9.514558,3.3614593,0.59855044
1570715423,16.237476,24.92364,-3.8786068,3.0020068,4.5115323,2.7825556,15.049952,15.739482,-0.641646
1570715423,-2.0111294,19.6133,-13.843274,1.3998002,0.95024484,2.1295285,-4.012682,10.764331,-10.113108
1570715423,-5.81791,9.888053,1.7286136,1.5883577,2.902934,1.7300422,-8.561666,1.3694834,5.731719
1570715423,-5.813122,-0.47884035,0.19153613,-0.8564987,0.39309457,0.46233886,-8.99741,-8.90643,4.0557775
1570715423,-8.973468,-1.2401965,1.4413095,-1.8014171,-0.43677175,-0.9278736,-12.042834,-9.854534,4.975151
1570715423,-8.652645,-0.78529817,-1.6759412,-1.7960906,-1.8600085,-1.8759879,-11.209652,-9.715671,1.460463
1570715423,0.4357447,-0.29209262,-1.9632454,-0.60082746,-3.203348,-1.4179102,-1.4077905,-9.442732,1.0295067
1570715423,5.4539914,5.9519854,-1.2785037,-0.19921052,-3.228915,-0.6157416,4.175488,-3.265691,1.8004397
1570715423,10.6637745,10.424355,2.3511062,-0.71161836,-1.8035477,0.2098635,8.868123,0.5267244,4.4963107
1570715423,3.3758245,40.414124,-16.759413,-0.2418224,-2.119941,-0.46233886,2.5234885,31.081526,-13.867216
1570715423,-14.853627,-14.958972,-5.2480903,-0.28123838,-0.8714129,0.47512242,-15.83525,-24.320301,-2.4947581
1570715423,-4.1371803,22.548592,4.2042184,-2.7292907,-3.1618013,-0.9108289,-4.7165775,13.086706,6.7324953
1570715423,1.1061212,16.960526,-17.559074,-3.0190516,-5.2007794,-1.6821039,1.0390835,7.3071036,-15.8065195
1570715423,5.2768207,18.215086,-11.999739,-3.5580919,-2.6238263,-1.4754362,5.8466406,8.446744,-11.343728
1570715423,8.101978,14.513651,-15.514427,-4.3549337,-2.2669518,-2.4331381,11.453861,4.793192,-16.122555
1570715423,6.397307,10.19451,-7.455544,-2.6877441,-1.6022066,-1.3731678,8.121132,0.6751649,-9.078813
1570715423,4.6830587,2.0494366,-2.9161377,-1.6309696,-0.5539544,-0.7925809,5.0038815,-1.3551182,-5.947197
1570715423,14.4609785,-8.159439,-9.141062,1.8674655,1.9367099,-1.1782184,15.619772,-18.26776,-12.445061
1570715423,11.286267,-8.183381,-10.874464,2.3127596,3.9096398,0.78299326,15.461755,-18.813637,-12.842498
1570715423,-1.043872,-2.0973208,-9.054871,2.823037,5.2316732,1.5329623,2.4899697,-15.164873,-9.457097
1570715424,-5.2002063,15.20797,-9.074024,2.2211442,5.7888236,1.980387,-3.5482068,5.568913,-8.283937
1570715424,-9.5385,33.88753,-14.781801,2.8475387,5.620507,4.6478906,-9.634268,18.420988,-13.690045
1570715424,3.0262709,29.410374,-1.7717092,3.845722,3.3375752,3.8020449,-3.6248214,26.585217,-2.753332
1570715424,15.121778,16.563087,-3.7205894,4.095001,3.601769,2.830494,12.344504,7.297527,1.3694834
1570715424,-1.043872,21.854273,-12.966996,1.2069814,0.5113425,1.6757121,-0.51235914,13.958196,-9.648633
1570715424,-7.4268136,9.56723,8.939949,1.241071,1.865335,2.18812,-11.286267,5.243302,9.461885
1570715424,-14.738706,-1.3311762,1.1061212,-2.415028,-0.19601464,-0.0692443,-16.845604,-7.9966335,8.0924015
1570715424,-14.245501,-4.477157,-2.1068976,-2.2435153,-1.8291148,-2.3393922,-19.589357,-13.565547,0.9959879
1570715424,3.4620156,2.135628,-0.19153613,-1.1292148,-4.165311,-1.7492175,-1.2689269,-6.7947445,2.8538885
1570715424,9.825804,6.0477533,-1.8770541,-0.75742614,-2.6312835,-0.3462215,7.3789296,-3.0502129,1.1971009
1570715424,-1.364695,6.3350577,8.365341,-1.0248157,-2.9860272,-0.0692443,-1.2401965,-3.5913026,11.798626
1570715424,-2.4851813,75.383835,-24.056938,0.39415985,-0.3472868,0.7883197,-4.060566,46.902412,-32.470165
1570715424,-5.8466406,-11.899182,-10.333375,-0.67326766,-3.7786083,-0.07776668,-9.983821,-20.12087,-4.5777135
1570715424,8.51857,21.787235,-0.63206923,-3.6997762,-3.8957908,-0.4868407,7.015011,12.5504055,2.2984335
1570715424,7.3406224,14.331692,-20.867863,-5.0388546,-3.6401196,-3.37273,6.7324953,4.7022123,-19.10094
1570715424,9.32781,22.625206,-9.270349,-4.050259,-1.3145764,-2.6877441,9.691729,12.832921,-8.801085
1570715424,1.484405,8.66701,-10.989386,-4.101393,-1.2815522,-2.005954,2.6240451,-1.0342951,-11.836933
1570715424,3.1555579,2.825158,-6.7851677,-2.7708373,-3.2459598,-0.47299185,4.4244847,-6.7085533,-8.6813755
1570715424,22.175097,-16.002844,-10.13705,0.9768773,1.1473248,-0.28763017,23.467964,-25.49346,-12.239159
1570715424,7.943961,-5.482722,-8.949526,2.5130355,2.3628285,-0.63065577,9.552865,-15.045163,-10.381259
1570715424,-2.542642,-3.5482068,-6.9527617,2.9359584,4.2558613,0.25567126,-0.81402856,-13.187263,-7.4124484
1570715424,-3.4045548,9.873688,-5.9567738,2.6962667,5.030332,1.1675655,-1.8818425,0.20111294,-5.3342814
1570715424,-8.274361,17.3005,-11.18571,3.4643457,4.926998,2.8145144,-7.560889,7.656657,-9.543288
1570715424,-4.8841715,41.706993,-13.158532,2.1795976,3.7903266,6.8658385,-5.889736,32.25947,-10.721235
1570715424,14.00608,11.492168,0.7230489,4.947239,1.7715888,2.7932086,11.3964,2.585738,3.9025488
1570715424,16.955736,20.245369,-7.350199,3.591116,1.5840966,1.7406952,13.55597,12.061988,-3.1411927
1570715424,-1.9728222,21.74414,-5.3821654,0.7979074,1.5361582,1.5382888,-5.899313,13.958196,-0.89064306
1570715424,-13.723564,0.6560113,5.8945246,-0.50388545,1.324164,1.4914157,-20.163967,-6.8330517,10.25676
1570715424,-25.517403,-5.6120086,-4.486734,-3.095753,-0.07244019,-1.5063299,-30.119057,-13.426683,-0.7613561
1570715424,1.8962077,-2.9640217,1.043872,-1.7129974,-3.185238,-1.6522756,-2.0015526,-11.281479,4.462792
1570715424,13.101071,4.213795,-1.3503298,-1.786503,-3.942664,-0.19494934,6.8186865,-6.114791,4.414908
1570715424,6.6750345,5.90889,6.421249,-1.4594568,-1.9217957,0.36220095,3.3279405,-2.72939,9.634268
1570715424,7.038953,46.15063,-29.92752,-2.0421743,-3.8222854,-1.5148523,-6.3350577,19.70428,15.62456
1570715425,-9.059659,-15.940595,-3.0693667,-1.7129974,0.064983115,1.1771531,-8.279149,-13.761871,0.7422025
1570715425,-6.6606693,-6.5936313,1.4460979,-2.1923811,-2.3745468,-1.9899746,-14.053964,-26.671408,-2.1308396
1570715425,5.1379566,42.37258,-22.213404,-3.297094,-4.8726683,-4.230294,2.9400797,25.187002,-18.540697
1570715425,9.959879,25.641901,-4.6112323,-3.8915298,-0.39415985,-2.9583297,11.425131,19.215862,-0.770933
1570715425,-4.9895163,-1.1013328,-10.524911,-5.1400576,-2.22434,-0.5731298,-0.033518825,-7.6853876,-10.520123
1570715425,3.0023289,-5.2528787,-3.7541082,-2.9316971,-2.4597707,-0.63917816,-2.1452048,-9.974244,-6.8330517
1570715425,25.752033,-16.22311,-11.789049,1.883445,-0.24714889,-0.2780425,25.479094,-25.718515,-12.301409
1570715425,4.6255975,-4.7884035,-9.174581,2.1305938,1.6874304,0.0,6.540959,-14.42746,-12.919112
1570715425,-3.0262709,-1.733402,-5.118803,3.5783324,2.6643076,0.6999001,-2.3750482,-12.799402,-5.0996494
1570715425,1.4173675,11.410766,-8.039729,3.3599465,3.3429017,1.2708993,-0.110133275,-0.90979666,-8.288726
1570715425,-5.0661306,29.242779,-13.402741,5.6119843,5.2369995,2.1625528,-6.8043213,11.918336,-12.014104
1570715425,0.62249243,57.470417,-5.0996494,3.6965804,3.321596,7.6264606,-2.6479871,50.670883,-10.290278
1570715425,19.800049,3.0885203,6.612785,5.642878,2.9071953,2.468293,11.96622,-2.0925324,9.054871
1570715425,13.43626,12.62702,-15.380352,2.9796355,0.9023065,1.6874304,11.473015,1.388637,-10.007763
1570715425,-1.2785037,18.397045,3.821146,1.8845103,1.2123079,1.2900746,-6.6079965,11.999739,3.265691
1570715425,-12.492945,-4.0940847,2.825158,-0.46340418,1.0184239,-0.039415985,-17.707516,-9.720459,9.562442
1570715425,-20.63323,-3.6248214,-3.53863,-2.4650972,1.1952631,-2.5428638,-26.336218,-10.419566,-0.7086837
1570715425,-0.18195933,1.0007763,2.4181437,-2.271213,-2.1295285,-2.3873305,-8.537724,-7.129933,3.9791632
1570715425,10.745177,4.6926355,1.5370775,-1.8578779,-2.0229988,-0.7563608,6.3925185,-3.347094,5.085284
1570715425,18.148048,8.748413,-0.35913026,-0.40055165,0.16831692,1.5563989,14.015656,0.07182605,-0.22505496
1570715425,-15.002068,14.111424,32.221165,-1.1164312,-4.953631,0.34302562,-19.541473,6.181829,35.77895
1570715425,7.5800424,24.521414,-0.81402856,-1.1473248,0.73931605,1.4211061,3.466804,16.448166,2.944868
1570715425,-2.480393,-14.087482,-2.9113493,-1.2272221,-2.2648213,-0.77447087,-6.4787097,-22.304382,0.6368576
1570715425,1.484405,35.72149,-2.6479871,-6.765701,-1.5414847,-1.5180482,-2.054225,26.987442,0.062249243
1570715425,21.973984,20.30762,-31.838095,-5.3925333,-2.589737,-3.1479526,19.206285,10.998962,-30.463823
1570715425,14.068329,6.38773,-10.912771,-4.3698483,-2.4544442,-3.13943,12.20564,-3.2369606,-10.749966
1570715425,-2.3127987,6.5361705,-5.0900726,-4.782118,-1.9431016,-0.50068957,-3.7445314,-3.0933087,-6.2345014
1570715425,0.7230489,-10.5440645,-4.5681367,-2.6994624,-1.2677033,-0.506016,-0.6703765,-19.996372,-6.766014
1570715425,17.559074,-11.884817,-10.7116585,1.940971,-1.0589051,-0.2865649,16.19917,-21.38501,-12.722788
1570715425,0.93373865,-3.0310593,-2.7820623,1.4264326,0.5496932,0.19814523,-0.40222588,-12.6222315,-4.309563
1570715425,-2.4851813,-3.7301662,-1.541866,3.0936222,1.5436152,0.8469111,-3.940856,-13.383588,-2.4372973
1570715425,0.49320555,3.3901896,-8.293514,3.3993626,1.8195271,1.0173585,-1.2258313,-6.2632318,-8.283937
1570715425,-0.49799395,9.634268,-19.10573,5.009026,4.3251057,1.786503,-2.753332,0.1340753,-18.152838
1570715425,10.108319,43.84741,-22.49113,6.235183,3.100014,3.247025,8.734048,33.911472,-20.910957
1570715426,9.9790325,18.914194,0.6895301,5.280677,4.6223235,1.1100394,5.5018754,10.773908,3.8355112
1570715426,17.578228,-3.6152446,-8.322245,4.121634,1.4882199,1.8983592,12.473791,-15.131354,3.2944214
1570715426,4.3766007,20.005949,-10.448297,2.4959908,1.6927568,1.4988728,2.5570073,12.579136,-8.882488
1570715426,-9.394848,13.192051,13.072341,3.010529,-0.19494934,0.094811425,-15.38514,12.445061,21.41374
1570715426,-16.323668,1.5658079,-1.4748282,-2.2083604,2.1689446,-2.231797,-21.514296,-6.5696893,4.9559975
1570715426,-11.353305,-3.4237084,0.33997664,-3.2480903,0.09907261,-2.1210063,-17.956512,-9.600749,2.3798366
1570715426,2.5713725,1.13964,3.3327289,-2.0688066,-2.5471249,-0.87460876,-3.9121256,-7.2592196,8.762778
1570715426,8.743625,5.8322754,-7.929596,-0.050068956,-2.1103532,0.6594188,3.3518825,-3.4141316,-4.4244847
1570715426,18.602947,49.057194,-5.583278,0.036220096,-5.3158317,1.4051267,1.0869676,19.88145,17.190369
1570715426,-10.821792,-11.324574,2.1883004,-0.5646074,-0.9907262,0.7297284,-9.457097,-12.756307,9.89763
1570715426,-4.960786,7.603985,0.81881696,-4.3996763,-2.2680173,-1.6458838,-12.564771,-6.6271505,9.921572
1570715426,16.917429,47.615883,-5.4061074,-4.46679,-1.6405573,-1.6650591,14.279019,45.398853,-5.9998693
1570715426,18.847157,12.593501,-18.909405,-5.266828,-1.1324106,-2.9615254,12.828133,2.1883004,-20.15439
1570715426,8.719683,3.016694,-13.182474,-5.266828,-1.6022066,-2.0965044,10.58716,-4.5394063,-14.743494
1570715426,-0.4213795,4.6160207,-9.3421755,-5.2391305,-2.0048888,-0.84904164,-1.2689269,-4.309563,-8.37013
1570715426,8.532935,-18.612524,-4.6782703,-1.2570504,-0.07137489,-1.4402815,2.15957,-23.228544,-5.3007627
1570715426,12.243947,-7.6135616,-15.179238,2.5535169,-0.5017549,-0.8064298,12.215217,-21.274876,-15.787366
1570715426,1.6472107,-6.8091097,-5.6790466,3.1692584,2.3521757,0.1033338,0.14844051,-16.409859,-6.9719152
1570715426,-2.0685902,3.083732,-3.7205894,3.9117703,2.7996004,-0.015979454,-3.4859576,-6.612785,-4.0462008
1570715426,-0.32561144,8.054094,-8.930372,2.7367477,3.092557,0.22264706,-1.7621324,-2.1978772,-9.275137
1570715426,-7.551312,9.768343,-8.99741,3.4206684,3.874485,2.5993245,-9.433155,0.21547815,-7.809886
1570715426,15.246277,66.87963,-13.493721,5.9219856,5.5523276,6.7284155,9.26556,45.40364,-21.95004
1570715426,17.496826,12.512098,6.1866174,5.4298186,-1.5904883,1.998497,12.789825,4.6686935,9.725247
1570715426,16.275784,4.6399627,-12.943054,3.1969562,1.1792837,1.553203,11.147403,-2.2409728,-8.197746
1570715426,6.5265937,17.985243,-4.9799395,1.5052645,3.1490178,1.7492175,0.6943185,11.587936,-0.36870706
1570715426,-8.810662,6.95755,5.9280434,0.70735717,0.13422741,-0.20134112,-14.930242,1.0007763,10.749966
1570715426,-28.739998,1.4556746,-9.313444,-2.6813524,1.1462595,-2.7207685,-34.778175,-5.0182467,-5.0996494
1570715426,-2.4995465,-3.6056678,3.3279405,-3.0254433,-1.366776,-2.5769532,-7.872135,-10.931925,7.005434
1570715426,13.086706,2.2697031,-1.2306197,-1.9995624,-2.974309,-0.39735577,8.269572,-5.5641246,2.1739352
1570715426,23.587675,15.35641,-1.661576,0.050068956,-1.0269462,1.5777048,18.770542,7.599196,1.9153614
1570715426,23.319525,69.029625,-22.586899,0.7467731,-1.9622769,0.9193513,18.526333,61.444794,-18.6221
1570715426,-21.17432,-10.606314,0.63206923,-1.0429257,-1.1356065,-2.0112805,-26.010607,-18.258183,4.3957543
1570715426,7.2831616,19.685127,-0.62249243,-5.966728,-1.844029,-0.8671517,3.0502129,11.434708,2.5761611
1570715427,20.135237,20.762518,-17.707516,-7.603024,-2.6845484,-1.460522,16.385916,11.9374895,-15.638926
1570715427,10.5680065,13.627796,-13.603854,-4.6723924,-1.7758499,-2.9466114,7.7667904,4.2521024,-12.885593
1570715427,0.7613561,6.5840545,-13.972561,-5.303048,-2.27867,-0.8341275,-1.5514427,-2.920926,-14.609419
1570715427,2.4756045,-4.936844,-7.431602,-4.286755,-2.5673656,-0.74783844,0.0,-7.953538,-10.46745
1570715427,18.53591,-18.181568,-9.988609,0.9289389,-0.7329243,-0.419727,14.762648,-31.828518,-9.907207
1570715427,5.947197,-8.379706,-10.697293,3.0009415,1.9175345,-0.52945256,4.0078936,-17.922995,-11.836933
1570715427,-3.122039,-3.6487634,-1.6950948,4.229229,3.339706,-0.58378273,-3.9264908,-15.796943,-3.2513258
1570715427,-1.4173675,8.939949,-7.216124,4.2175107,3.297094,-0.18642697,-4.1515455,-1.9919758,-5.693412
1570715427,-0.32561144,14.331692,-10.869676,5.3765535,5.0889235,1.1824796,-2.873042,0.9576807,-8.413225
1570715427,6.5265937,46.902412,-22.515072,5.2636323,4.7757263,4.8130116,1.8387469,31.091103,-26.364948
1570715427,8.968679,18.128895,2.8299465,3.9554474,2.791078,2.404375,3.5865142,19.34036,6.5505357
1570715427,17.822437,13.350069,-16.40507,4.319779,-1.4253674,1.7161933,10.94629,0.06703765,-6.6175733
1570715427,-1.8770541,19.412188,-0.038307227,2.335131,2.3287392,1.553203,-5.104438,13.330915,-1.3838485
1570715427,-7.642292,1.9776106,6.0285997,-0.07244019,0.39629045,-0.30893612,-12.732365,-1.4030021,11.080365
1570715427,-20.566193,-0.78050977,-4.534618,-3.2022827,0.8309316,-1.854682,-25.723303,-7.4842744,1.0151415
1570715427,-1.5179238,-1.0726024,2.9017725,-3.074447,-1.5073951,-1.6746467,-11.21444,-8.082825,6.0525417
1570715427,11.410766,4.0797195,-3.3135753,-1.5223093,-2.6888094,-0.3472868,4.984728,-3.8833952,3.1507695
1570715427,16.79772,23.42487,7.249643,-0.42718408,-1.7236505,1.3028581,10.836157,5.530606,9.179369
1570715427,-7.7572136,0.7661445,0.07182605,-0.7510343,-0.9193513,1.9452322,-3.083732,6.4739213,-1.5131354
1570715427,-6.646304,12.612655,3.5913026,-3.1905644,-0.22690825,-2.8709753,-17.84638,0.11971009,9.174581
1570715427,8.939949,29.994558,-15.102624,-4.59356,-3.3024206,-1.7811764,4.534618,23.09447,-9.481039
1570715427,18.698715,12.100295,-17.180792,-6.5174866,-1.9995624,-2.8763018,14.992491,3.2513258,-15.136143
1570715427,9.260772,13.479356,-12.50731,-5.0899887,-1.2932705,-2.5343413,10.012551,1.0726024,-14.279019
1570715427,-0.5506664,4.7884035,-9.801862,-5.6482043,-1.4498692,-0.800038,-2.8203697,-4.7261543,-10.491392
1570715427,2.8299465,-5.7604494,-4.8027687,-3.1010795,-1.9345793,-1.0525134,0.7661445,-15.1696615,-6.6367273
1570715427,16.472107,-13.608643,-10.117896,1.460522,-0.61041516,-0.39415985,14.4849205,-23.037008,-11.927913
1570715427,4.209007,-4.333505,-9.184157,2.29678,1.2602463,-0.3920293,2.3415294,-13.881581,-10.414778
1570715427,-3.2704794,-2.2361844,-1.7238252,3.4813905,2.1614876,-0.30041373,-4.960786,-11.880029,-2.2170308
1570715427,0.1388637,3.0597897,-7.2304893,4.2601223,2.3042374,0.35793978,-1.5849615,-6.5744777,-6.6510925
1570715427,-0.92416185,8.599973,-7.1586633,4.3176484,4.0459976,2.0826554,-3.0933087,-0.8283938,-5.559336
1570715427,8.149862,48.219223,-34.15568,6.622951,4.7150044,4.032149,4.9081135,39.418137,-31.277851
1570715427,8.030152,26.57085,4.213795,3.4877822,0.36859274,2.6099775,3.1986535,18.80885,7.762002
1570715427,15.825673,-3.2992098,-4.644751,4.480639,-0.16085984,1.797156,10.620679,-10.16578,0.038307227
1570715428,9.586384,8.2169,-8.719683,1.5404193,2.410767,0.8735435,3.940856,1.8674773,-3.8115692
1570715428,-11.899182,12.378023,9.552865,1.2559851,-0.57952154,-0.12890093,-17.76019,6.3302693,14.5759
1570715428,-24.765623,2.27928,-4.6782703,-2.3042374,2.030456,-1.7524135,-30.588322,-4.060566,0.009576807
1570715428,-2.1978772,-2.0590134,2.1260512,-2.3841345,-0.9949873,-1.5638559,-7.699753,-9.030929,6.2728086
1570715428,8.556877,4.390966,-1.2354081,-1.4978075,-2.3106291,-0.44422883,3.5051112,-2.9879637,2.7868507
1570715428,14.240712,12.469003,3.2273839,-0.9534408,-1.3135111,1.1494554,9.227253,5.0613422,7.249643
1570715428,8.0924015,34.950558,-4.76925,-3.236372,-2.9071953,-2.1934464,3.53863,27.212496,-0.81881696
1570715428,-8.944737,-4.098873,-3.016694,-2.404375,-0.68605125,1.1238883,-13.522451,-11.9135475,0.7374141
1570715428,-10.673351,-1.3838485,-3.122039,-2.407571,-2.7218337,-1.3870167,-17.750612,-15.614984,-0.5650316
1570715428,11.784261,24.013844,-29.429527,-5.75793,-4.7693343,-0.38883337,11.707646,15.8544035,-10.103531
1570715428,14.729129,19.52711,-15.600618,-5.1613636,-1.0003139,-3.375926,15.126566,11.463438,-13.709199
1570715428,2.7341783,4.5154643,-18.478449,-6.015732,-2.0826554,-0.68072474,5.0757074,-2.743755,-15.246277
1570715428,-0.23463176,-2.5330653,-6.603208,-4.6510863,-1.5809007,-0.7723403,-2.5139117,-9.44752,-11.176133
1570715428,15.155296,-21.4712,-11.563994,0.85862935,-0.70735717,-0.49855897,10.180145,-29.946674,-11.247959
1570715428,8.959103,-7.762002,-10.548853,2.4192894,1.3476006,-0.96302843,7.905654,-18.86152,-15.270219
1570715428,0.5506664,-0.39264908,-1.0582372,4.283559,2.6770911,-0.4857754,-0.06703765,-12.35887,-0.7086837
1570715428,-0.9576807,9.797073,-7.359776,5.43621,5.6556616,-0.19068815,-1.292869,-0.07182605,-5.0134583
1570715428,0.15801731,45.394066,-29.27151,5.75793,2.6206305,1.0397298,-5.93762,33.150116,-21.777658
1570715428,4.122815,34.174835,-1.7477672,4.3442807,4.8630805,6.450373,-0.2681506,30.13821,-0.8331822
1570715428,1.8674773,-12.392388,-5.2624555,3.3823178,-0.800038,3.5740712,-4.975151,-17.142485,4.9176903
1570715428,25.057714,20.910957,-12.6461735,3.9469252,1.5244399,1.890902,20.494366,13.776237,-11.956643
1570715428,4.6782703,11.180922,7.3406224,2.5300803,0.7979074,0.28123838,-0.14844051,6.2392898,12.583924
1570715428,-10.25676,-2.2170308,0.11971009,-0.30041373,1.1824796,0.57952154,-12.143391,-5.923255,7.086837
1570715428,-28.965052,-0.8810662,-1.3551182,-2.2776048,2.3053026,-1.571313,-32.853237,-7.5944076,-0.320823
1570715428,-9.878476,3.5434184,0.8619126,-2.1039615,-1.9292527,-2.0933084,-15.576676,-2.719813,5.889736
1570715428,8.499416,5.0757074,2.135628,-2.5098395,-1.9686687,-1.0876682,1.9201498,-2.657564,7.0485296
1570715428,18.813637,6.991069,-2.2457612,-1.1100394,-0.41013932,0.6647453,13.982138,-0.63206923,-0.24420857
1570715428,23.520638,53.457737,-10.831368,-0.13635801,-5.194388,2.5417986,18.598158,45.968674,-6.83784
1570715428,-17.444153,1.4508862,-0.31124622,-1.7204546,-0.7052266,-0.78725445,-22.414516,-5.78918,4.0462008
1570715428,2.8874073,13.570335,-0.12449849,-4.656413,-1.316707,-1.9654728,-1.460463,5.616797,3.6152446
1570715428,10.553641,18.148048,-15.006856,-5.0282016,-2.92424,-0.5891092,6.679823,9.548077,-12.310986
1570715428,17.156849,14.240712,-17.7554,-4.890778,-1.5265706,-3.1532788,13.962984,5.070919,-16.376339
1570715428,5.439626,3.3614593,-13.532028,-5.069748,-1.140933,-1.1473248,2.9161377,-6.1100025,-13.345281
1570715428,0.9911995,1.4221559,-6.421249,-4.9461737,-1.1739572,-0.19281875,-1.4748282,-7.9870567,-7.632715
1570715429,11.219229,-16.46732,-7.015011,-0.38883337,-0.06285252,-0.9353307,8.896853,-25.804707,-8.90643
1570715429,8.623915,-2.0207062,-14.001291,1.3689066,-0.113986775,-1.5979455,6.646304,-11.496957,-15.547946
1570715429,-5.779603,-3.4141316,-0.6751649,2.0869167,1.6416225,-0.4836448,-7.4028716,-13.010092,-1.8483237
1570715429,-1.0199299,-2.8203697,-2.8060043,4.186617,1.9143386,0.6988348,-2.705448,-12.473791,-3.0885203
1570715429,0.3878607,6.445191,-7.398083,4.9909163,3.663556,1.5809007,-1.6663644,-3.098097,-6.493075
1570715429,5.257667,46.236824,-34.246662,6.6250815,2.3180861,2.4981213,2.6671407,37.1197,-31.713596
1570715429,9.878476,37.00957,3.5434184,3.5516999,3.612422,5.6087885,4.8458643,28.835766,6.71813
1570715429,15.452178,-13.072341,-2.2601264,5.230608,-1.0035098,2.3116944,10.342952,-20.39381,1.7956513
1570715429,23.63556,12.698846,-9.787497,3.680601,2.263756,1.1899366,20.130447,5.884948,-0.9864111
1570715429,1.2114661,15.634137,7.920019,1.9953011,0.98113847,0.058591332,-6.694188,9.495404,12.957419
1570715429,-13.493721,-1.7908629,-1.1444284,-0.10972559,1.4285632,-0.36859274,-15.8065195,-4.8698063,6.0046577
1570715429,-20.508732,-0.7038953,1.2114661,-2.3447185,1.2964664,-2.3074331,-26.355371,-7.369353,5.391742
1570715429,-1.9440918,0.8810662,5.813122,-2.4086363,-1.3444047,-1.865335,-10.43872,-6.2105594,7.560889
1570715429,9.165004,2.9017725,-0.17717093,-1.8951633,-2.3937223,-0.74996907,4.1659107,-4.663905,3.5529952
1570715429,16.122555,6.8809357,-1.0007763,-0.46340418,-0.41653112,1.0866029,11.899182,-2.6671407,-1.4891934
1570715429,26.953922,76.75811,-13.742718,1.4946116,-3.074447,1.4828933,26.700138,69.139755,-15.643714
1570715429,-13.541605,-7.6135616,-1.412579,-0.6168069,-0.21412468,-2.3031719,-18.310854,-15.002068,1.7956513
1570715429,5.315128,26.068068,-6.909666,-5.3765535,-1.9825176,-2.1977077,-3.5865142,9.773131,2.183512
1570715429,21.830332,22.021868,-16.711529,-6.5750127,-2.5236886,-1.5436152,17.587805,19.517532,-11.903971
1570715429,15.696386,10.6398325,-12.425907,-4.010843,-0.9055024,-3.3599465,16.845604,1.7477672,-12.5504055
1570715429,0.009576807,4.3239284,-10.860099,-5.180539,-1.0610358,-0.6189375,-0.33518824,-4.975151,-12.694057
1570715429,-0.08140286,-6.0860605,-5.243302,-4.1024585,-0.8714129,-0.43677175,-1.9440918,-12.943054,-7.0341644
1570715429,7.8050976,-19.541473,-5.023035,0.80749506,0.13529271,-1.2506586,4.4819455,-28.352137,-5.2863975
1570715429,4.2185836,-4.7022123,-8.240842,2.1231368,0.6285252,-0.5976316,4.5777135,-15.911864,-12.334928
1570715429,-0.08619126,-1.13964,-0.6368576,3.7082987,1.7321728,0.35687447,-1.3359646,-12.105083,-0.79487497
1570715429,4.663905,8.470686,-4.9464207,3.9362721,2.4405954,0.9097636,2.135628,-2.2984335,-4.4101195
1570715429,-2.0111294,15.02601,-13.2351465,4.9355206,2.9221096,1.2474627,-3.845088,5.5258174,-11.611878
1570715429,5.6790466,39.456444,-10.721235,3.774347,2.995615,5.836762,1.4796166,26.221296,-14.887146
1570715429,9.524135,23.506271,-1.0342951,3.5793977,3.321596,3.2992246,7.16824,19.55584,1.2593501
1570715429,19.393034,5.631162,-9.859323,4.341085,-1.3795595,1.5436152,13.728353,-7.398083,-4.2760444
1570715429,7.5944076,13.579912,-4.381389,1.7236505,1.1750225,1.2144386,5.5162406,6.646304,0.7661445
1570715429,-1.0630256,8.978256,5.2385135,0.82027864,0.88313115,0.7595567,-6.9623384,2.7246015,9.9550905
1570715429,-22.67788,-5.923255,-9.916783,-2.0048888,2.106092,-1.7300422,-28.711267,-12.109872,1.4939818
1570715430,-15.088259,-1.541866,3.107674,-1.9931706,0.36646214,-2.1891851,-20.896593,-8.480263,6.871359
1570715430,6.2584434,3.2369606,7.3789296,-1.7492175,-1.5148523,-0.35900506,0.78529817,-4.1036615,10.888829
1570715430,16.673222,8.413225,-6.8186865,-0.3419603,-0.7691444,1.1899366,11.224017,1.067814,-3.2704794
1570715430,28.735209,61.076084,-11.219229,0.14594568,-3.637989,1.3476006,23.199814,53.89827,-7.469909
1570715430,-14.111424,-1.3742718,1.1827357,-1.334817,-0.90869826,-1.531897,-19.560627,-8.499416,5.1379566
1570715430,3.1986535,14.72434,0.15322891,-5.092119,0.22584295,-2.407571,-1.6807296,6.8665705,3.41892
1570715430,13.177686,22.601265,-11.63582,-5.227412,-2.1220715,-1.3433394,8.892065,14.092271,-9.294291
1570715430,16.711529,16.429012,-16.812084,-4.944043,-2.0496314,-3.4164073,13.206416,7.321469,-15.796943
1570715430,7.819463,2.3989902,-12.890382,-4.783183,-1.1824796,-1.2229608,4.960786,-6.981492,-13.038822
1570715430,3.667917,4.6351743,-8.264784,-4.6936984,-1.1601083,-0.84584576,2.2409728,-4.4484267,-9.016563
1570715430,14.96376,-18.579004,-5.425261,-0.050068956,0.25673655,-1.6906263,12.713211,-27.916391,-7.398083
1570715430,4.2904096,-6.670246,-13.450625,1.9367099,1.0684928,-1.492481,2.504335,-16.189592,-14.978126
1570715430,-7.398083,-5.4539914,-0.023942016,3.619879,2.245646,-0.29721785,-8.882488,-15.107412,-0.89064306
1570715430,1.6663644,7.1395097,-6.3542113,4.835383,2.3202167,0.5933704,0.11492168,-2.5378537,-6.0142345
1570715430,-0.50757074,10.817003,-13.757083,5.348856,3.9991248,1.0663623,-1.532289,-1.283292,-9.045294
1570715430,4.453215,45.374912,-10.85531,3.9959288,4.166376,5.0420504,1.532289,36.44454,-8.034941
1570715430,7.929596,30.46861,1.8579005,4.4113946,3.0307698,4.8556232,5.109226,30.253132,5.2959743
1570715430,12.756307,-4.1371803,-10.429143,4.6052785,-2.7580538,2.686679,6.3206925,-15.021221,2.2170308
1570715430,15.121778,11.631032,-7.714118,2.8677793,1.5169828,1.2698339,11.999739,3.9983168,-4.3287168
1570715430,0.9816227,12.392388,7.551312,1.6299043,0.8064298,0.46020827,-3.098097,8.37013,10.328587
1570715430,-19.665974,1.4939818,-0.320823,-1.6565367,1.904751,-0.26312834,-20.12087,-4.1276035,7.469909
1570715430,-18.104954,2.0015526,3.4380736,-2.3521757,0.17683929,-2.5599086,-29.649794,-4.3526587,5.2049947
1570715430,4.1706996,-0.31603462,6.1387334,-2.9583297,-1.8994244,-0.99392205,-2.7485435,-7.809886,10.55843
1570715430,12.717999,4.4723687,-6.3542113,-0.8767394,-1.4328244,0.29082605,6.670246,-4.1419687,-3.1124623
1570715430,9.232041,34.1892,2.3558946,-1.7854377,-4.4880958,0.15233746,1.2114661,13.608643,23.204603
1570715430,-8.959103,-2.3894134,5.4061074,-1.6639938,0.8703476,1.0503827,-6.861782,0.20111294,8.336611
1570715430,-6.0716953,5.731719,-2.4516625,-3.480325,-0.71055305,-1.3028581,-12.090718,-6.631939,0.11971009
1570715430,14.049175,25.565287,-17.597382,-4.7949014,-3.4558232,-0.78725445,7.7572136,14.829685,-9.739613
1570715430,23.951593,16.965313,-14.480132,-4.7661386,-1.0514481,-3.3631425,22.476765,8.264784,-15.710752
1570715430,3.2609026,4.084508,-14.168885,-4.846036,-1.3294905,-1.3220335,3.8019924,-2.3750482,-13.455414
1570715430,1.4987702,6.244078,-9.232041,-5.0420504,-1.4083226,-0.42718408,-1.8052281,-3.2561142,-11.429919
1570715430,15.547946,-15.59583,-6.133945,-0.6935083,0.031958908,-0.42718408,11.190498,-20.503942,-4.9559975
1570715430,8.504205,-8.930372,-14.829685,1.5936842,0.47938362,-1.1963284,9.385271,-20.743364,-15.98369
1570715431,-6.0477533,-5.9280434,-2.2266076,3.15754,2.3255432,-0.23330003,-6.5218053,-16.448166,-5.2720323
1570715431,-1.4556746,2.4420857,-2.111686,4.7842484,2.5354066,0.43783703,-4.429273,-8.236053,-1.3263878
1570715431,4.8267107,8.805874,-10.189722,4.397546,3.15754,1.015228,2.6431987,-0.6703765,-8.920795
1570715431,1.2162545,30.143,-28.864496,6.2053547,3.8105671,1.5830313,-1.5753847,21.059399,-26.431986
1570715431,14.992491,55.588573,1.6376339,3.8936603,4.655348,5.893223,10.716447,47.38604,4.8985367
1570715431,13.728353,-5.7508726,5.5018754,5.055899,0.65196174,2.575888,8.451532,-12.981361,9.509769
1570715431,10.395624,11.712435,-16.429012,2.5982592,1.0674275,0.8692823,4.8841715,5.2145715,-11.559206
1570715431,1.1540052,12.665327,5.530606,1.6948874,1.7353687,-0.05646074,-4.6926355,6.4978633,10.424355
1570715431,-7.1347213,0.62728083,2.9352913,-0.83306223,1.1494554,-0.29295665,-13.077129,-5.473145,7.7907324
1570715431,-27.80626,-1.436521,-4.0797195,-2.9178483,1.9548199,-1.883445,-33.753456,-8.087613,-0.01436521
1570715431,-1.9249382,0.12928689,4.1371803,-2.5215578,-2.3809388,-1.4445426,-7.4124484,-7.144298,7.752425
1570715431,11.789049,5.142745,-3.1890767,-1.833376,-2.9285014,-0.46766534,6.8426285,-2.5187001,0.40701428
1570715431,23.736116,13.737929,-0.7374141,-0.21838588,-0.9065677,1.3752984,18.780119,6.1100025,2.930503
1570715431,18.511967,52.322884,-12.971785,0.39629045,-1.7875682,1.198459,13.690045,44.8434,-8.839393
1570715431,-18.674774,-3.7301662,-0.63206923,-2.1678793,0.5688686,-1.9644076,-23.640348,-11.377247,2.9640217
1570715431,6.789956,23.27164,-6.7468605,-4.7767916,-1.912208,-1.7343034,2.5474305,14.973337,-3.691859
1570715431,17.266983,14.618996,-21.911734,-6.644257,-3.5793977,-2.1050267,13.599066,5.717354,-20.020315
1570715431,18.306067,12.028469,-14.465767,-4.2249675,-1.7129974,-2.762315,15.543158,2.6431987,-13.752295
1570715431,2.585738,2.8921957,-9.251195,-4.7554855,-0.46979594,-0.6988348,0.18674773,-6.5984197,-9.835381
1570715431,4.261679,-1.9488802,-4.7261543,-3.2736576,-0.7957768,-1.2687687,2.1164744,-11.353305,-6.4739213
1570715431,15.318103,-15.667656,-10.668563,1.503134,-0.9822038,-0.9395919,13.077129,-25.124752,-12.454638
1570715431,1.3311762,-4.936844,-12.229582,1.883445,1.1015171,-0.8341275,3.4476504,-14.073117,-15.212758
1570715431,-6.2345014,-7.6853876,-0.272939,3.716821,2.4650972,0.13316211,-9.179369,-18.310854,-1.7764976
1570715431,4.050989,6.5601125,-4.687847,4.8172727,2.5844104,0.9065677,0.545878,-1.4652514,-5.5258174
1570715431,-1.2449849,26.51339,-14.422671,6.293774,2.938089,0.81708276,-3.5434184,9.323022,-10.036493
1570715431,11.9853735,51.9446,-13.206416,4.7512245,3.2715268,6.005079,7.1634517,42.65031,-13.575124
1570715431,12.899959,14.121001,3.2513258,3.4600844,2.2850618,2.2413847,6.3781533,13.8241205,3.7828386
1570715431,20.211851,7.3166804,-15.413871,4.3709135,-0.38883337,1.7353687,13.670892,-4.903325,-9.5385
1570715431,4.596867,14.192827,-0.6751649,1.3529271,2.6856136,1.5159175,2.0973208,7.465121,1.1444284
1570715431,-10.998962,6.205771,4.486734,0.8810006,-0.94704896,0.30360964,-14.5567465,3.8163576,16.309301
1570715431,-20.33635,1.9919758,-2.504335,-2.3116944,1.7406952,-2.1902504,-29.937098,-2.087744,0.8379706
1570715431,-0.6512229,0.25378537,2.6767175,-2.5236886,-1.0077709,-1.9494934,-10.496181,-6.5984197,7.038953
1570715431,9.873688,2.3798366,-2.72939,-1.9079468,-1.9857135,-0.47512242,2.8491,-5.449203,4.548983
1570715431,14.039598,10.807426,3.8402996,-0.83306223,-1.1100394,0.9694202,9.251195,-0.2681506,2.5139117
1570715432,15.600618,34.49087,-8.145074,-0.2737813,-0.5816521,2.6323488,32.374397,67.37283,-14.743494
1570715432,-13.249513,-2.4756045,-0.7134721,-1.4189755,-1.9953011,-1.7204546,-20.12087,-14.417883,3.3279405
1570715432,10.563218,23.075315,-12.435484,-5.353117,-2.396918,-1.5010034,2.3750482,9.021352,-2.0638018
1570715432,18.794483,15.275007,-17.946936,-6.798725,-1.9185997,-1.4328244,11.745954,9.77792,-14.341269
1570715432,18.181568,12.0093155,-15.907076,-4.746963,-1.13028,-1.8163313,14.748282,2.9017725,-16.452953
1570715432,3.1555579,4.817134,-6.0621185,-4.6585436,-0.7126837,-0.09055024,0.05746084,-5.425261,-8.901642
1570715432,4.0078936,1.364695,-6.5361705,-3.627336,-0.3185238,-0.8341275,0.9576807,-7.8769236,-7.73806
1570715432,14.269443,-24.368185,-12.650962,1.2218956,-0.01065297,-2.062415,11.659762,-33.719936,-14.020445
1570715432,-0.6799533,-8.556877,-12.531252,2.5194273,2.274409,-1.9537545,-2.5378537,-18.148048,-13.364434
1570715432,-5.803545,-0.32561144,-3.0071173,4.6404333,3.2821798,0.5315832,-7.5561004,-9.969456,-2.9352913
1570715432,2.0398598,9.466674,-9.251195,4.4220476,3.3588812,1.0844723,0.0047884034,-0.04309563,-7.9966335
1570715432,-4.43885,21.873426,-21.332336,5.764322,3.5250676,1.5627906,-7.1347213,12.732365,-19.019539
1570715432,11.669339,75.987175,1.3934253,4.1099157,4.5072713,7.3462877,7.4746976,67.74633,4.663905
1570715432,15.375564,-0.35913026,8.987833,5.492671,0.21518998,2.3489797,10.146626,-7.517793,13.177686
1570715432,16.151285,5.2768207,-18.119318,2.7633803,0.9278736,0.8277357,10.611102,-1.0247183,-13.043611
1570715432,6.0046577,10.376471,1.8579005,1.7140628,1.571313,0.35687447,0.04309563,4.4675803,6.933608
1570715432,-11.324574,7.1395097,3.0885203,0.25141007,0.12677033,-0.3398297,-17.324444,1.4413095,8.346188
1570715432,-26.345795,-1.0821792,1.5179238,-2.5247538,2.784686,-2.4437912,-32.417492,-7.321469,6.0238113
1570715432,-0.7134721,-2.1164744,3.2369606,-2.5929327,-1.7769153,-1.9111427,-6.2823853,-9.093178,7.2927384
1570715432,10.611102,0.6895301,-2.231396,-1.9068816,-2.6856136,-0.71907544,5.60722,-6.7564373,1.7238252
1570715432,21.634007,9.911995,3.107674,-0.5944357,-0.12357444,0.60082746,16.74026,2.360683,7.0102224
1570715432,6.196194,31.062372,-4.9320555,-2.784686,-2.9466114,-1.8972938,1.6184803,23.290794,-1.067814
1570715432,-8.197746,-2.7581203,-5.3821654,-1.4956769,2.353241,0.49642837,-12.737153,-10.644621,-1.733402
1570715432,-14.585477,-1.1348516,1.0486604,-1.5936842,-2.7719026,-2.2286012,-18.660408,-9.332599,4.5537715
1570715432,8.197746,37.986404,-23.247698,-4.377305,-5.5470014,-2.156161,4.8937483,29.156588,-20.527885
1570715432,24.995466,25.24925,-16.606182,-5.4734955,-1.7151281,-3.0297046,16.041151,9.92636,-15.1696615
1570715432,0.19153613,5.2624555,-17.439365,-5.970989,-2.6430018,-1.1089741,1.757344,-4.074931,-15.734694
1570715432,0.9911995,-0.7086837,-6.5505357,-4.8236647,-1.5723783,-0.77873206,-3.7110126,-8.561666,-10.539276
1570715432,24.406492,-22.347479,-10.295067,1.4413468,-0.65622294,-0.3185238,21.049822,-32.053574,-8.695741
1570715432,8.283937,-9.878476,-12.052411,3.081904,1.7811764,-1.0375992,10.031705,-19.713858,-14.901511
1570715432,-6.1387334,-2.9496565,-4.6351743,4.4060683,2.8091881,-0.06604841,-5.813122,-15.409082,-4.31914
1570715432,-0.6703765,13.374011,-5.8945246,4.2718406,3.4302561,0.8852618,-3.4811692,2.0925324,-4.3957543
1570715432,-4.0892963,27.332207,-19.479225,4.644695,3.10321,2.63661,-8.1881695,11.544841,-10.34774
1570715433,14.441825,62.459934,-5.7987566,4.021496,4.7810526,7.4368377,10.031705,55.770535,-13.55597
1570715433,18.090588,-6.6893997,12.014104,5.657792,-1.6842345,3.4781945,15.547946,-3.7445314,16.898275
1570715433,10.395624,4.7788267,-16.654066,2.5822797,0.82134396,1.3827554,8.7771435,-3.1268275,-12.425907
1570715433,0.4405331,13.843274,-0.23942018,1.2932705,1.7087363,0.71587956,-1.5514427,6.483498,1.0821792
1570715433,-10.836157,-0.866701,5.329493,-0.0074570784,0.9438531,-0.046873067,-14.867992,-5.511452,12.220005
1570715433,-25.70415,3.9217024,1.0055647,-2.5950634,1.8855755,-2.5663004,-33.241096,-3.9073372,3.0550013
1570715433,1.4460979,0.5602432,4.88896,-3.035031,-1.6799732,-1.804613,-6.775591,-6.2967505,8.259995
1570715433,13.843274,4.7165775,-6.2584434,-1.9814523,-2.859257,-0.119313255,6.6654577,-2.9831753,1.1587936
1570715433,17.223886,10.204087,3.2609026,-1.022685,-0.3845722,1.3220335,14.432248,1.6903064,2.7724855
1570715433,19.239805,56.780888,-25.52219,-0.21945117,-3.4004278,-0.54117084,2.633622,30.22919,-14.772224
1570715433,-12.74673,-8.595184,2.0494366,-2.0794597,0.30467492,0.26952013,-17.630901,-16.242264,5.755661
1570715433,0.24899697,6.909666,-1.2066777,-3.3780565,-1.8376372,-1.2815522,-4.0892963,-1.163582,2.2649148
1570715433,16.567875,30.688877,-11.899182,-6.583535,-2.5322108,-1.6671897,12.789825,21.940464,-9.562442
1570715433,17.750612,18.310854,-17.563864,-4.804489,-1.2549198,-2.9274359,14.824897,8.99741,-16.587029
1570715433,0.7757214,1.043872,-13.057976,-5.5768294,-1.4029961,-0.32491556,-1.7956513,-8.403648,-13.551182
1570715433,4.8937483,-1.6567876,-6.766014,-3.6315973,-1.6650591,0.01065297,2.27928,-10.955867,-8.451532
1570715433,18.579004,-18.641254,-12.320562,0.9406572,-0.16831692,-0.98966086,16.036364,-27.92118,-14.197616
1570715433,4.271256,-6.244078,-10.429143,2.6792219,1.9857135,-1.5457458,2.1978772,-15.734694,-11.741165
1570715433,-7.7189064,-2.9640217,-3.145981,4.095001,3.0989487,-0.5177343,-9.44752,-12.603078,-3.6248214
1570715433,-0.4261679,9.428367,-7.4124484,5.162429,4.2718406,0.26419365,-2.1404164,-0.19632454,-6.6989765
1570715433,-2.6719291,26.848577,-15.26543,5.0495076,2.5130355,1.0887334,-4.6591167,17.463306,-13.220781
1570715433,8.087613,45.7915,-8.772355,4.3815665,4.7309837,6.124392,4.7548847,37.06224,-5.779603
1570715433,13.718776,6.1530986,0.009576807,4.4838347,0.9438531,1.8749226,9.078813,-1.6711528,3.667917
1570715433,19.258959,7.369353,-10.0269165,4.326171,0.7648832,1.3987349,14.365211,0.40222588,-5.1571107
1570715433,2.815581,18.904617,-2.743755,1.0748847,1.7428257,0.8650211,-2.6001031,12.483368,2.3080103
1570715433,-11.793838,4.0557775,7.4603324,1.3049887,-0.1022685,0.91615534,-17.492037,-1.958457,12.698846
1570715433,-22.744917,2.6192567,-2.1404164,-2.7058542,1.4456079,-1.8482902,-28.514942,-3.715801,2.6240451
1570715433,-0.9768343,-2.858677,0.62249243,-2.6291528,-1.5382888,-1.4019308,-6.3063273,-9.868899,4.927267
1570715433,11.233594,0.7374141,-2.3511062,-1.1345413,-2.335131,-0.25354066,6.315904,-6.631939,1.8531121
1570715433,14.93503,6.775591,-0.095768064,-0.692443,-0.9449184,0.6200028,10.376471,-3.3039982,0.24899697
1570715433,34.256237,71.462135,-13.187263,0.54330146,-2.0357823,1.5819659,25.45994,61.78477,-17.903841
1570715433,-12.229582,-4.223372,0.272939,-1.5180482,-0.8021686,-1.5308317,-16.22311,-13.302185,4.3766007
1570715433,4.644751,22.864626,-3.9025488,-5.1858654,-1.3507965,-2.274409,-3.5865142,10.390836,5.0421886
1570715434,13.048399,16.606182,-19.503166,-6.957454,-3.2171967,-2.1774669,6.4739213,10.429143,-15.150508
1570715434,16.486473,17.18558,-14.84405,-4.9813285,-1.8717268,-2.5918674,16.01242,7.7332716,-15.969325
1570715434,1.6998832,5.2289367,-14.705187,-5.446863,-1.9356445,-0.26632422,0.18674773,-3.7541082,-14.590265
1570715434,7.603985,-7.326257,-2.3558946,-3.1671278,-0.70629185,-0.53904027,3.1555579,-11.884817,-5.66947
1570715434,17.252617,-16.558298,-11.281479,1.531897,-0.36752746,-1.324164,16.151285,-32.221165,-11.314998
1570715434,1.2880806,-6.9479733,-12.674904,2.8262327,1.8759879,-1.2996622,2.6192567,-17.372328,-16.802507
1570715434,-6.483498,0.9528923,-1.3215994,4.311257,2.9732437,-0.05539544,-8.073248,-10.740389,-1.7812861
1570715434,0.48362875,9.490616,-7.776367,4.5701237,3.3407712,0.68605125,-1.3120226,-0.9864111,-5.9567738
1570715434,-2.4181437,26.858154,-15.74427,5.477757,3.106406,1.6671897,-5.080496,12.306197,-11.702858
1570715434,10.864887,59.5007,-4.4436383,4.194074,4.6830454,7.367594,7.062895,48.295837,-8.820239
1570715434,22.323536,-0.320823,9.92636,6.2192035,0.023436533,2.069872,14.915876,1.8435353,13.651738
1570715434,13.972561,7.642292,-14.03481,3.286441,1.5223093,0.98966086,12.378023,-1.0199299,-8.6334915
1570715434,-0.10534488,14.54717,-1.2018893,1.4498692,2.2808008,0.5688686,-2.3080103,7.575254,1.4317327
1570715434,-12.708423,-1.091756,3.2944214,0.51240784,1.1398677,-0.312132,-16.390705,-5.267244,11.018116
1570715434,-29.57318,4.620809,-1.1444284,-2.5449944,2.3479145,-2.3202167,-35.39109,-1.661576,3.6248214
1570715434,-5.33907,0.5746084,1.8195933,-2.7548578,-2.0602844,-1.3092499,-10.726024,-6.38773,6.129156
1570715434,7.953538,3.821146,-2.3319526,-2.0890472,-2.5172966,-0.4112046,2.9783869,-3.5625722,1.7717092
1570715434,27.839777,13.977349,5.0613422,-0.122509144,-0.1054644,1.0461216,22.936453,6.555324,9.193734
1570715434,15.739482,35.831623,-15.921441,0.30360964,-2.4459217,1.7556094,10.979809,28.558039,-11.377247
1570715434,-11.477803,-0.9720459,2.360683,-1.9537545,0.39948636,-2.4299424,-16.146496,-8.528147,6.50744
1570715434,-4.5058875,21.303606,-2.9113493,-5.7025347,-0.95983255,-2.6461976,-8.5473,12.914324,0.16759412
1570715434,12.928689,18.751389,-24.167072,-5.2369995,-4.5445566,-1.7801112,9.696517,9.749189,-21.997925
1570715434,22.984337,2.9113493,-11.573571,-5.0889235,-1.6852998,-2.1028962,20.503942,-6.5361705,-10.7356
1570715434,1.1731589,3.9552212,-8.010999,-5.077205,-1.1515859,-0.028763017,-1.0486604,-5.57849,-8.566454
1570715434,6.517017,-0.51714754,-7.153875,-3.1564748,-1.2005897,-0.5859133,4.309563,-9.92636,-8.810662
1570715434,14.585477,-20.671537,-7.3645644,0.975812,-0.3483521,-1.4775668,12.689269,-30.10948,-9.232041
1570715434,-1.7429788,-5.5258174,-11.69807,1.5542682,1.3294905,-1.6842345,-3.1411927,-15.126566,-13.10586
1570715434,-5.803545,-6.277597,-0.19153613,3.6933844,2.3883958,0.16085984,-6.9623384,-15.98369,-0.92895025
1570715434,3.6583402,11.051635,-3.4811692,5.0100913,3.4749987,1.1931325,2.327164,1.3455414,-3.0023289
1570715434,-2.1068976,35.491646,-19.330784,6.5025725,2.4022446,0.4825795,-3.7588966,26.05849,-17.204733
1570715434,8.532935,57.365074,-4.855441,4.6436296,4.480639,7.271717,5.4300494,48.597507,-1.733402
1570715434,18.08101,4.8985367,7.599196,5.5001283,1.4274979,1.2964664,13.690045,-2.858677,11.683704
1570715434,17.990032,3.289633,-15.777789,4.194074,0.10013791,1.6426879,14.116213,-9.217676,-8.968679
1570715434,2.5570073,12.837709,0.02873042,1.940971,2.422485,1.0812764,-0.05267244,5.5976434,2.2505496
1570715435,-9.998186,3.98874,7.1634517,1.7758499,-0.12357444,0.4570124,-13.239936,1.3503298,15.591042
1570715435,-24.866179,1.2689269,-2.030283,-2.4917295,2.9103913,-1.7460216,-29.941887,-3.596091,2.4037786
1570715435,-5.9519854,1.685518,2.920926,-2.7452703,-1.772654,-2.1316593,-16.563087,-4.7405195,8.350976
1570715435,5.592855,2.8203697,1.7046716,-2.5162313,-2.7292907,-0.9449184,-1.0151415,-5.827487,8.6095495
1570715435,18.05228,6.363788,-8.959103,-0.020240642,-0.28869548,0.4506206,11.602302,-1.6998832,-6.9958572
1570715435,42.420467,77.548195,-21.528662,0.5102772,-6.1425023,2.4853377,23.683443,43.086052,-5.2002063
1570715435,-17.314867,-6.919243,0.9624691,-0.21732058,0.3856375,-1.7343034,-19.814413,-11.9135475,5.717354
1570715435,1.0247183,15.705963,0.40222588,-5.280677,-0.6626147,-2.3053026,-4.865018,5.281609,7.8625584
1570715435,12.464214,26.652254,-11.611878,-4.6521516,-2.9764397,-1.2474627,6.7468605,20.96363,-7.503428
1570715435,17.463306,13.982138,-15.409082,-4.481704,-2.106092,-3.2459598,18.210299,6.421249,-14.030022
1570715435,-1.043872,3.6583402,-15.1696615,-5.0953155,-2.106092,-0.72333664,-2.0446482,-4.4723687,-15.739482
1570715435,5.8562174,-0.23463176,-7.5848308,-4.6255193,-1.4083226,-0.56247675,2.0111294,-8.39886,-9.739613
1570715435,19.081787,-22.050598,-7.493851,0.41653112,-0.1725781,-0.8309316,17.587805,-28.993782,-5.913678
1570715435,4.4005427,-5.023035,-13.551182,1.7588053,1.0099015,-1.5574641,6.411672,-15.682021,-14.628572
1570715435,-9.121908,-3.7732618,-0.90979666,3.4302561,2.160422,0.12463974,-9.394848,-15.040375,-3.1028855
1570715435,-2.336741,3.040636,-0.7517793,4.5861034,2.2019687,0.936396,-3.4141316,-6.6606693,0.18195933
1570715435,2.078167,10.055647,-7.1730285,3.3695343,2.2903883,1.7662623,0.45489833,-1.0342951,-6.3111157
1570715435,-6.50744,13.402741,-22.888569,4.202596,2.059219,4.049194,-9.050082,4.3766007,-20.015526
1570715435,25.215733,77.2561,8.394072,4.66387,4.254796,5.6961427,21.11207,69.211586,12.224793
1570715435,23.041798,-1.13964,10.31901,6.3576922,0.19388404,2.884824,18.167202,-7.9487495,15.418659
1570715435,8.556877,5.1235914,-24.013844,1.1100394,1.3912778,0.800038,3.0933087,-0.8858546,-18.516756
1570715435,-0.076614454,15.543158,5.985504,1.2282873,1.922861,0.40481284,-6.033388,9.782708,11.228806
1570715435,-12.904747,2.3511062,-1.115698,-0.63811284,1.237875,-1.4456079,-18.813637,-3.2992098,4.295198
1570715435,-16.357185,-2.327164,2.1260512,-2.8432775,1.6799732,-2.9572642,-22.179884,-8.820239,6.5984197
1570715435,1.163582,-2.2697031,4.8985367,-2.6792219,-1.9100775,-0.8703476,-4.185065,-9.433155,8.916007
1570715435,7.824251,3.7014358,-1.661576,-0.9960526,-1.6075331,0.26312834,2.753332,-3.6774938,2.336741
1570715435,9.414001,37.33997,11.918336,-1.3550577,-3.3599465,0.6231987,4.453215,29.951464,16.036364
1570715435,-0.58418524,6.6415157,2.3750482,-1.2080467,-0.04261188,0.9353307,-5.5018754,-0.7326257,6.564901
1570715435,-7.383718,-1.412579,0.23463176,-2.4310076,-1.1462595,-2.2861273,-11.860875,-9.136273,4.280833
1570715435,13.441049,27.308264,-9.892841,-5.969924,-2.091178,-1.1941979,9.629479,18.7466,-6.981492
1570715435,22.40015,23.324312,-19.37388,-5.4010553,-0.8469111,-2.9434154,19.25417,14.188039,-17.678785
1570715435,3.8402996,1.9009962,-13.503298,-5.312636,-1.2836828,-1.6331002,1.4891934,-7.608773,-13.024457
1570715435,-2.408567,0.5554548,-9.414001,-5.3722925,-1.4189755,-0.20027582,-4.6351743,-8.939949,-10.424355
1570715436,8.772355,-18.013973,-5.094861,-0.05113425,-0.36752746,-0.46766534,10.13705,-27.427975,-6.823475
1570715436,14.60463,-10.01734,-15.8065195,2.5726922,-0.19601464,-1.4072572,15.05474,-25.517403,-16.883911
1570715436,-1.508347,-3.8067808,-4.9943047,3.0552716,2.2158177,-0.46127358,-0.9528923,-12.909535,-4.027047
1570715436,-3.5817258,3.9600096,-2.6527755,4.1557236,2.557778,0.22797355,-6.4308257,-7.4603324,-1.508347
1570715436,-1.5370775,10.117896,-10.764331,5.102772,4.049194,0.95024484,-1.8579005,-2.0159178,-6.2488666
1570715436,5.391742,46.979027,-25.364172,5.1922574,2.560974,3.7860653,2.4851813,35.726276,-24.334665
1570715436,13.22557,28.91238,4.31914,3.7881958,3.860636,4.8066196,9.600749,29.348124,8.485051
1570715436,20.144814,-4.3047748,-10.635044,4.4252434,-2.1050267,2.245646,14.350845,-15.456966,3.0597897
1570715436,9.892841,12.717999,-7.704541,2.4405954,2.1785321,1.0482522,7.0102224,5.363012,-4.213795
1570715436,-5.0182467,10.352529,5.5880666,1.4903504,0.91295946,0.6988348,-8.192958,7.177817,7.5848308
1570715436,-16.903065,-3.5482068,2.255338,-0.3462215,1.2016549,-0.7222713,-19.167978,-9.816227,7.85777
1570715436,-23.041798,2.7485435,3.3997664,-2.4416606,1.0791458,-2.615304,-31.40235,-5.353435,4.8745947
1570715436,1.163582,2.8203697,2.992752,-2.5780187,-2.6057162,-0.4154658,-6.9958572,-3.9217024,7.129933
1570715436,15.466543,7.8146744,-11.305421,-0.7286631,-1.8578779,0.2791078,7.8912888,-0.37349546,-5.722142
1570715436,8.542512,17.606958,30.305805,-2.5854757,-3.6284013,0.10120321,8.968679,1.6950948,19.64682
1570715436,4.185065,26.676195,-2.4277205,-0.41013932,1.5436152,1.9899746,16.347609,47.8984,-7.503428
1570715436,-4.7070007,0.40701428,-0.60333884,-2.7474008,-1.2708993,-1.6916915,-8.944737,-11.640609,2.4947581
1570715436,6.105214,18.650831,-1.5131354,-4.9855895,-2.116745,-0.7766015,-3.064578,8.264784,0.46447513
1570715436,30.86126,11.142614,-26.767176,-5.736624,-1.5862272,-3.010529,22.218191,2.8203697,-28.026525
1570715436,8.90643,16.51999,-7.920019,-3.7551718,-1.1878061,-2.8688447,6.315904,7.1347213,-6.7133417
1570715436,-0.94331545,2.6671407,-9.222465,-4.783183,-1.2911398,-0.33876443,-5.5976434,-4.999093,-11.123461
1570715436,16.122555,-17.128119,-6.2009826,0.02130594,-0.653027,0.057526033,11.319786,-24.416069,-5.4779334
1570715436,10.654198,-7.9391727,-15.279796,1.6405573,0.9118942,-0.50388545,11.300632,-18.646044,-17.597382
1570715436,-3.0262709,-4.132392,-5.6646814,2.6387405,2.4768155,-0.8298663,-4.975151,-13.737929,-5.78918
1570715436,-2.7006595,-0.12928689,-3.394978,4.2068577,2.787882,-0.08202787,-4.5633483,-9.725247,-2.6144683
1570715436,-0.48841715,6.655881,-5.521029,4.1738334,2.9828315,0.63811284,-2.528277,-2.753332,-3.667917
1570715436,-12.904747,16.180016,-20.106506,4.8332524,2.7175725,2.5641696,-15.71554,7.1969705,-17.348385
1570715436,18.976442,72.11814,-9.227253,5.0633564,4.3037996,6.7848763,14.753071,64.17418,-5.3103395
1570715436,26.048914,5.4300494,15.433024,5.877243,-0.044742472,1.2368097,20.791248,-1.3455414,20.187908
1570715436,7.3166804,2.5091233,-20.412964,2.019803,0.64770055,0.6540923,1.8866309,-3.394978,-14.767436
1570715436,9.361329,10.965444,-1.1109096,1.1888714,1.5446806,-0.03728539,3.5482068,5.267244,4.3622355
1570715436,-0.58418524,2.834735,7.062895,-0.22584295,1.639492,-0.116117366,-7.493851,0.2681506,13.426683
1570715436,-26.968288,-5.363012,-5.2720323,-2.4086363,2.9913538,-2.152965,-33.07829,-11.48738,-0.6607997
1570715437,-10.960655,2.1787236,3.241749,-1.5659865,-2.1465733,-1.4402815,-13.776237,-3.3518825,7.469909
1570715437,8.590396,8.1642275,-0.48362875,-1.0535786,-1.7588053,-0.6839206,3.371036,1.0821792,3.8594532
1570715437,16.429012,11.664551,0.48362875,-0.6903124,-2.073068,0.66900647,10.730812,3.193865,4.4675803
1570715437,7.7667904,21.65316,-9.045294,-4.223902,-3.239568,-1.754544,-0.94810385,14.887146,17.204733
1570715437,-7.038953,3.1172507,-8.054094,-1.8344413,0.45914298,1.1633042,-8.226477,6.8091097,-4.7261543
1570715437,-4.1946416,6.5984197,-4.6255975,-2.7133112,-2.8507347,-1.5052645,-10.362105,-6.703765,-1.6041151
1570715437,11.252748,18.55985,-12.148179,-5.5203686,-3.1884336,-1.5990107,10.582372,16.429012,-2.0159178
1570715437,23.161507,21.935677,-15.251065,-4.4220476,-0.25567126,-2.791078,22.85505,13.881581,-15.576676
1570715437,1.532289,2.255338,-12.780249,-5.3573785,-1.1941979,-1.004575,3.0693667,-7.192182,-12.167333
1570715437,0.770933,-1.8483237,-7.9008656,-4.125895,-1.2613115,-0.45914298,-2.1691468,-8.805874,-11.089942
1570715437,15.093047,-18.962078,-8.90643,0.73185897,-0.52519137,-0.6189375,12.181698,-26.771963,-9.059659
1570715437,6.5122285,-6.373365,-10.242394,2.9444807,1.5968801,-0.8671517,7.129933,-16.950949,-13.139379
1570715437,-2.825158,-2.8778305,-4.0653543,4.1269603,2.486403,0.12144385,-3.6631286,-14.518439,-4.237737
1570715437,-0.1436521,9.490616,-7.393295,3.792457,2.6057162,0.16512102,-2.4037786,-0.79966336,-5.659893
1570715437,-3.715801,15.016433,-12.229582,3.9724922,3.4057543,1.6884956,-3.8019924,3.5098996,-6.7612257
1570715437,9.816227,51.60462,-9.888053,4.6521516,4.531773,3.9543822,3.9504328,33.70557,-14.226347
1570715437,12.176909,23.57331,6.9527617,5.5512624,4.312322,2.88802,7.225701,22.07454,6.8809357
1570715437,5.3342814,-6.742072,-11.482592,3.3375752,-2.551386,2.5812144,-0.842759,-21.634007,2.8682537
1570715437,11.224017,13.000515,-8.887277,1.9100775,1.316707,0.7350549,5.473145,4.7548847,-7.541735
1570715437,-1.4891934,10.912771,9.251195,2.191316,1.1377372,-0.0042611877,-6.4308257,9.576807,12.344504
1570715437,-8.834604,1.4460979,2.858677,-1.4828933,1.8610737,-0.81069094,-10.515334,-4.0892963,9.428367
1570715437,-27.131094,3.3518825,-4.1276035,-2.8358204,1.3603842,-1.8994244,-33.04956,-3.0023289,0.4213795
1570715437,-3.787627,-1.1540052,2.5953147,-3.021182,-2.0997002,-0.7595567,-9.275137,-8.1402855,6.742072
1570715437,6.71813,3.4045548,-1.5275006,-1.9665382,-2.4885337,-0.31319728,-0.78050977,-5.2528787,4.3047748
1570715437,20.882227,22.869415,11.908759,-0.79045033,-2.697332,0.81708276,15.945383,15.509639,16.108189
1570715437,-5.5258174,6.540959,-1.1731589,-1.2250915,-0.8607599,2.4768155,-10.510546,-0.62249243,3.289633
1570715437,-8.322245,6.2488666,-0.47405192,-3.2619393,0.30467492,-2.3905263,-13.067553,-1.3120226,3.572149
1570715437,11.099519,25.297134,-14.465767,-4.8833213,-3.1223853,-1.0130974,6.943185,16.97489,-11.343728
1570715437,10.390836,5.645528,-13.986926,-4.9600224,-1.1111047,-1.6192514,7.627927,-3.7253778,-13.144167
1570715437,10.390836,5.645528,-13.986926,-4.9600224,-1.1111047,-1.6192514,7.627927,-3.7253778,-13.144167
1570715437,2.1883004,3.2225955,-9.983821,-5.1677556,-0.79151565,0.040481284,-0.44532153,-6.205771,-10.534488
1570715437,10.041282,-15.662868,-2.7485435,-1.4669139,0.3792457,-0.75209963,7.5321584,-25.01462,-4.2760444
1570715437,11.089942,-13.364434,-14.489709,2.898673,0.19814523,-2.3148901,9.059659,-22.888569,-15.610195
1570715437,-2.9831753,-7.7667904,-6.9958572,3.329053,2.8241022,-0.6881818,-4.510676,-17.444153,-7.2927384
1570715438,-3.8977604,6.5840545,-3.2465374,4.7480283,3.2555475,0.36859274,-5.4922986,-3.0550013,-2.4420857
1570715438,0.91937345,10.773908,-8.42759,3.609226,2.9870925,1.0130974,-0.9864111,1.3311762,-6.588843
1570715438,-2.6671407,15.404294,-15.332468,4.9248676,3.8297424,3.200152,-5.4683566,6.397307,-12.6461735
1570715438,16.630125,56.431335,-22.591688,4.674523,4.701155,4.7661386,7.9391727,37.445316,-19.972431
1570715438,16.898275,7.240066,7.809886,6.375802,-0.9438531,2.9199789,11.348516,12.871228,11.69807
1570715438,13.034034,7.867347,-15.816096,3.0307698,0.11824796,1.2080467,7.627927,-3.0119057,-6.8186865
1570715438,6.469133,13.40753,-4.2185836,1.5553335,1.6618632,0.868217,2.992752,6.8186865,0.33997664
1570715438,-3.0214825,1.4700398,8.743625,0.89591473,0.24608359,-0.24501829,-10.041282,-0.090979666,16.577452
1570715438,-23.357832,4.7500963,-2.0685902,-2.7037237,1.7257811,-1.8717268,-26.580427,-2.384625,3.8163576
1570715438,-8.039729,0.92416185,2.5091233,-3.0542064,-1.3262947,-1.2165691,-18.602947,-3.9791632,8.221688
1570715438,4.644751,0.89543146,-2.3750482,-2.2754743,-2.669634,-0.380311,-2.719813,-7.1730285,4.2281604
1570715438,12.636597,8.24563,3.9983168,-0.9747467,-2.6706994,0.50282013,6.789956,-2.2649148,3.394978
1570715438,18.674774,24.018631,-3.7493198,-1.2432015,-1.571313,2.798535,35.874718,51.034805,-3.5673606
1570715438,-0.92895025,-2.2361844,-2.054225,-2.048566,0.3057402,-1.7683929,-5.3342814,-11.267113,0.4309563
1570715438,-4.003105,20.537462,-3.1316159,-5.2572403,-1.7481523,-3.8371994,-10.649409,8.882488,2.954445
1570715438,15.749059,17.616535,-26.159048,-5.040985,-3.6465113,-1.5159175,4.9703627,9.074024,-14.049175
1570715438,17.84159,8.772355,-10.314221,-4.66387,-0.7840586,-3.1159935,19.88624,4.7022123,-11.27669
1570715438,0.866701,6.588843,-12.162544,-4.989851,-0.8639558,-0.936396,-0.12928689,-2.9783869,-11.022904
1570715438,9.3182335,-6.9479733,-0.81881696,-2.3670897,0.5134731,-1.4488038,4.4436383,-11.046846,-4.644751
1570715438,17.51119,-17.731459,-15.002068,2.3084984,0.5219955,-2.5247538,17.860744,-35.295322,-15.279796
1570715438,0.7278373,-7.8050976,-10.448297,3.1777809,3.1341035,-1.4807627,3.7014358,-17.99482,-13.8959465
1570715438,-10.740389,2.9113493,-4.0078936,4.510467,4.2249675,-0.02769772,-11.042058,-6.8665705,-3.3758245
1570715438,-3.3566709,14.690822,-6.3925185,4.218576,4.642564,1.3039235,-2.5953147,4.0174704,-3.2465374
1570715438,-8.408437,26.111164,-16.127342,4.6468253,3.3343794,2.4139628,-9.773131,16.883911,-13.091495
1570715438,4.4675803,54.31486,-5.161899,4.1131115,4.093936,8.734369,1.1971009,45.935154,-1.2497733
1570715438,15.040375,1.6711528,5.48751,5.248718,-1.7801112,3.4888475,10.295067,-5.3725886,10.386047
1570715438,22.778435,5.8705826,-10.141838,3.1522136,0.5646074,1.3412088,17.855957,-0.1436521,-4.156334
1570715438,8.6813755,14.911088,-3.8259344,1.1185617,1.4519997,0.8341275,3.3183637,9.399636,2.2601264
1570715438,-3.6008794,1.5370775,8.762778,0.16299044,1.4871545,0.4953631,-9.3421755,-3.6966474,14.743494
1570715438,-29.549238,-0.36870706,-4.256891,-2.856061,2.2946496,-1.8355067,-35.525166,-6.042965,1.0534488
1570715438,-8.106767,1.484405,2.9496565,-2.898673,-1.5915536,-1.7950253,-13.666103,-4.999093,7.7572136
1570715438,6.799533,2.0254946,-3.6343982,-2.2701478,-2.2861273,-0.50068957,1.6663644,-4.999093,0.8858546
1570715438,16.347609,7.991845,2.767697,-0.59656626,-1.998497,0.9449184,11.434708,0.89064306,7.417237
1570715439,4.209007,30.933086,-21.001938,-5.133666,-4.2494693,-1.9420363,-0.22984336,23.333889,-16.673222
1570715439,-0.9528923,-1.0199299,-8.197746,-2.3127596,0.054330144,0.5241261,-5.2385135,-8.858546,-4.156334
1570715439,-1.5227122,-0.7517793,-6.6606693,-3.73067,-2.1146145,-0.7957768,-5.425261,-8.983045,-3.0310593
1570715439,8.944737,23.24291,-15.911864,-5.420231,-3.2875063,-2.7463355,5.5880666,14.346057,-13.498509
1570715439,17.980455,16.390705,-12.090718,-3.357816,-0.18110047,-2.5055783,15.696386,6.9288197,-10.874464
1570715439,-2.719813,2.5378537,-8.37013,-5.105968,-0.8479764,-0.5230608,-4.5872903,-7.086837,-8.322245
1570715439,4.1611223,-8.743625,-1.5562311,-2.6643076,0.2109288,-0.35793978,2.384625,-18.315643,-2.7102363
1570715439,17.156849,-21.777658,-14.93503,2.2829313,-0.24714889,-1.54255,14.657303,-33.006466,-13.910312
1570715439,1.9680338,-4.6255975,-5.851429,2.9966803,2.3031719,-1.0194892,0.9768343,-14.379576,-5.9759274
1570715439,-5.731719,0.9672575,-3.9791632,4.121634,3.0009415,0.1395539,-6.7085533,-8.748413,-3.0933087
1570715439,-0.30166942,7.675811,-5.281609,4.433766,3.0755122,0.5944357,-2.2361844,-3.289633,-3.5913026
1570715439,-4.405331,24.272417,-23.625982,6.165939,2.9977455,2.8528652,-6.483498,15.275007,-20.312407
1570715439,14.839262,73.018364,-17.659632,4.7245917,4.6223235,7.702097,9.069236,57.19269,-25.541344
1570715439,16.558298,0.7230489,10.232818,5.3051786,-0.39415985,2.191316,12.832921,7.4986396,14.848839
1570715439,16.864758,8.508993,-16.548721,2.9807007,0.45914298,1.2218956,12.373235,0.25378537,-8.446744
1570715439,5.6886234,11.463438,-0.56982,1.0109668,1.9143386,0.5347791,4.0414124,5.5258174,-0.272939
1570715439,-4.390966,1.2354081,1.3311762,-0.14914156,0.19175345,-0.5816521,-8.475474,-2.2218192,12.272678
1570715439,-23.539791,-0.50757074,-0.7565677,-2.3841345,3.0115945,-2.8837588,-30.305805,-7.7332716,0.59376204
1570715439,-4.807557,0.49799395,2.5905263,-2.3415227,-1.0567746,-1.3252294,-13.215993,-6.0716953,7.4363904
1570715439,6.4643445,2.1978772,-2.336741,-1.2261568,-1.5521376,-0.32385027,-0.49320555,-5.2959743,3.8881836
1570715439,16.16565,16.955736,10.19451,-0.87886995,-2.5929327,0.92254716,10.481815,4.271256,8.082825
1570715439,6.05733,24.756046,0.16759412,-1.1366718,-0.32917675,0.9108289,18.339584,44.465115,-2.1021092
1570715439,1.3263878,3.5865142,-2.2601264,-2.1646833,-0.79151565,-2.0783944,-5.391742,-6.766014,-0.7182605
1570715439,7.153875,24.928429,-9.155427,-6.177657,-2.6216958,-1.9367099,0.9720459,15.318103,-5.9567738
1570715439,17.659632,17.329231,-28.141447,-5.620507,-2.8006656,-2.593998,10.290278,7.0820484,-22.357056
1570715439,7.2352777,1.5035586,-13.79539,-4.835383,-1.9313834,-2.3116944,9.02614,-3.169923,-12.066776
1570715439,-0.91458505,1.484405,-10.529699,-5.2646976,-1.5894231,-0.4570124,-2.4660277,-8.255207,-10.745177
1570715439,10.007763,-11.147403,-1.532289,-1.2549198,0.059656627,-0.40374753,5.1810527,-17.18558,-4.4580035
1570715439,18.569427,-20.06341,-15.342045,2.0741332,-0.58484805,-1.0375992,17.209522,-29.726408,-16.309301
1570715439,0.79008657,-5.1762643,-6.397307,2.7719026,2.1497693,-1.2740952,-0.1340753,-14.93503,-6.612785
1570715439,-6.8761473,0.2873042,0.02873042,3.7935224,2.6717646,-0.22051647,-7.6135616,-9.466674,0.7134721
1570715439,0.9624691,10.180145,-5.21936,4.5392303,3.5783324,0.9523755,0.0,0.59376204,-3.3758245
1570715439,-0.8379706,38.95845,-21.38022,5.313701,2.1870546,1.8216578,-2.3415294,29.822176,-18.138472
1570715440,9.490616,46.284706,-1.9297266,3.73067,3.5538306,7.505017,6.1770406,38.019924,2.183512
1570715440,17.530344,-1.2354081,4.367024,4.3751745,0.4516859,2.1252675,13.01488,-8.504205,9.155427
1570715440,22.596476,9.361329,-7.005434,3.4920433,1.6693203,1.2325486,17.84638,2.9879637,-1.2545617
1570715440,2.8634653,15.720328,-2.2649148,1.0429257,1.660798,0.6626147,-2.3942018,9.830592,3.5529952
1570715440,-13.690045,-2.432509,4.3718123,1.3944737,-0.2098635,0.29721785,-19.158401,-7.920019,10.376471
1570715440,-24.305935,1.043872,-1.6424223,-1.8877062,2.1646833,-2.7601843,-29.831753,-4.8985367,3.8546648
1570715440,0.12449849,1.4748282,1.8387469,-2.6035857,-1.424302,-1.2549198,-4.9799395,-5.1379566,6.967127
1570715440,10.395624,1.1827357,-5.616797,-1.0876682,-1.9399058,-0.20347172,5.6359506,-5.793968,-0.63206923
1570715440,20.470425,15.006856,10.754754,-1.2048508,-0.4889713,0.6647453,15.768212,7.9726915,15.71554
1570715440,-0.6368576,30.406363,-1.5370775,0.16831692,-1.6064677,1.4434774,-4.9799395,23.314735,3.6583402
1570715440,-1.3551182,11.166556,1.6759412,-2.9306319,-0.02769772,-2.6898746,-5.3007627,3.6727054,6.612785
1570715440,10.721235,22.94603,-19.474436,-5.2316732,-3.9799492,-0.98007315,7.469909,14.638149,-15.394717
1570715440,21.049822,16.294937,-19.862297,-5.8143907,-2.0357823,-2.7495315,18.555063,7.2209125,-17.0946
1570715440,6.445191,8.911219,-13.733141,-4.9568267,-2.1305938,-2.3511102,4.8745947,-0.6368576,-12.138602
1570715440,-0.11492168,2.006341,-10.462662,-5.750473,-1.5020686,-0.35900506,-1.7381904,-7.1347213,-10.366894
1570715440,6.1626754,-5.21936,-3.6535518,-3.013725,-0.15340276,-0.58058685,3.0358477,-10.831368,-7.6853876
1570715440,17.568651,-22.850262,-14.494497,1.4115185,-0.771275,-1.1718266,17.314867,-34.39989,-12.837709
1570715440,1.1875241,-7.819463,-6.1530986,2.0549579,2.3468492,-0.85010695,3.3279405,-16.783354,-8.872911
1570715440,-4.8027687,-2.1068976,-2.5091233,4.05452,2.5130355,-0.18110047,-6.3063273,-13.599066,-1.685518
1570715440,2.954445,10.108319,-6.459556,4.563732,3.1841726,0.6977695,1.412579,-1.5514427,-4.429273
1570715440,-3.7110126,36.10456,-18.02355,5.749408,3.3450325,1.1856755,-5.6551046,17.669209,-13.642161
1570715440,6.2728086,51.097054,-3.2321723,3.214001,3.0733817,8.084538,1.412579,43.84741,-0.8858546
1570715440,15.74427,14.432248,3.7205894,4.359195,2.0890472,1.395539,6.325481,13.819332,5.2528787
1570715440,16.917429,6.6415157,-11.784261,3.5176105,-0.5443667,1.3199029,11.678916,-5.659893,-6.066907
1570715440,7.9248075,12.957419,-1.0342951,1.2634422,1.2527891,0.77766675,4.6495395,4.9655743,4.175488
1570715440,-7.5848308,3.0023289,10.529699,1.4562609,-0.20240642,0.78299326,-9.983821,0.076614454,15.940595
1570715440,-25.07208,-0.49799395,-3.5482068,-2.6632423,2.6952012,-1.2517239,-30.459034,-6.703765,0.20590134
1570715440,-13.10586,0.521936,3.0358477,-2.2701478,-0.98113847,-1.0237503,-18.430565,-5.9902925,8.0684595
1570715440,4.654328,0.8331822,2.0590134,-2.0762637,-2.3266084,0.10013791,-2.135628,-6.8186865,8.451532
1570715440,11.860875,7.374141,0.46447513,-1.4221714,-2.073068,0.8639558,7.4986396,-0.6512229,3.9983168
1570715440,3.2225955,22.725763,19.000385,-3.1990867,-3.8585055,-1.4839586,-1.0630256,15.322891,23.793577
1570715440,7.28795,12.210428,-18.076223,-1.7055404,0.64663523,1.8110048,18.454506,28.744785,-9.634268
1570715440,-8.078036,-10.280702,-10.19451,-1.2943357,-2.3415227,-1.9462975,-11.793838,-18.239029,-5.8322754
1570715440,11.142614,17.041927,4.453215,-6.023189,-2.0783944,-0.13529271,7.651869,8.532935,7.8625584
1570715441,24.641125,35.127728,-5.0134583,-4.93339,0.45914298,-4.201531,22.179884,25.914839,-2.7102363
1570715441,2.2984335,1.9536686,-8.652645,-4.5243163,-1.0013791,-0.6583535,0.4357447,-7.589619,-7.398083
1570715441,-1.8339585,2.3654714,-9.811439,-4.96961,-1.1015171,0.03835069,-3.6535518,-7.2687964,-9.940725
1570715441,14.777013,-15.83525,-5.5497594,-0.8735435,-0.24608359,-0.18110047,12.966996,-25.421633,-6.5265937
1570715441,12.837709,-15.433024,-14.149732,1.8770531,0.08735435,-1.6437532,13.31655,-27.495012,-15.442601
1570715441,-3.5673606,-9.32781,-6.033388,3.583659,2.65472,-0.9150901,-4.5777135,-19.077,-5.81791
1570715441,-3.5242648,5.118803,-3.4332852,4.4827695,3.272592,0.22371235,-4.5872903,-4.534618,-2.087744
1570715441,-3.763685,14.001291,-4.711789,4.0055165,3.6284013,1.4360203,-5.2289367,4.606444,-2.2984335
1570715441,3.5051112,46.78749,-22.788012,5.8559375,3.5868547,3.7391922,1.0965444,38.005558,-19.139248
1570715441,15.605407,37.258568,2.7006595,4.5658627,3.0765777,4.480639,11.348516,29.60191,7.1107793
1570715441,12.880805,-9.734824,-7.053318,4.707547,-2.615304,3.2331762,8.054094,-16.151285,-1.4173675
1570715441,12.923901,13.28782,-7.062895,2.0538924,2.3926568,1.1100394,7.7093296,7.603985,-1.0007763
1570715441,-4.1659107,11.358093,8.868123,1.8131354,1.4083226,0.5145384,-9.844957,6.1100025,14.896723
1570715441,-11.927913,-3.7924154,-0.7230489,-1.4306937,1.8589431,-1.2336138,-17.702728,-9.016563,5.2289367
1570715441,-22.744917,1.316811,-0.62249243,-2.4097016,1.7918295,-2.6067817,-28.754362,-6.0860605,2.2122424
1570715441,-3.1316159,0.6703765,3.4763808,-2.7356825,-1.3614495,-0.95983255,-12.349293,-5.5162406,8.255207
1570715441,6.6175733,3.1747115,-3.4524388,-1.618186,-1.9835829,-0.33876443,-0.033518825,-4.510676,2.96881
1570715441,14.331692,19.58457,8.643068,-1.3017929,-2.4853377,0.78618914,9.706094,5.8562174,7.3885064
1570715441,4.3287168,12.129025,-0.11492168,-1.0738193,-1.1100394,1.9739952,11.980585,22.548592,0.63206923
1570715441,-2.1883004,9.993398,-3.6487634,-2.5918674,-0.25354066,-1.6085984,-8.7053175,-1.6950948,1.2066777
1570715441,5.2959743,18.741812,-12.263102,-5.9582057,-2.3436532,-1.140933,-0.7326257,11.152191,-8.212111
1570715441,19.507956,14.982914,-24.56451,-5.456451,-2.8283634,-2.726095,11.51611,5.00867,-19.249382
1570715441,12.876017,6.0956373,-14.45619,-4.3346934,-1.6203166,-2.2946496,14.571112,1.3742718,-12.521675
1570715441,1.7812861,1.6041151,-9.054871,-4.6212583,-0.8362581,-0.053264845,0.023942016,-7.7189064,-9.337387
1570715441,5.1475334,-5.2145715,-4.4101195,-2.7633803,-0.42931467,-0.13209683,1.1971009,-11.84651,-5.3342814
1570715441,14.642938,-14.528016,-10.01734,1.2623769,-0.28549957,-0.85862935,13.852851,-21.763294,-8.925584
1570715441,3.4141316,-8.839393,-12.5264635,2.234993,1.6554714,-1.7737194,4.7884035,-18.784906,-15.030798
1570715441,-7.800309,-5.8801594,-0.59855044,3.4536927,2.8528652,-0.6359823,-9.605537,-17.429789,-1.0055647
1570715441,-0.20111294,9.222465,-6.181829,4.038541,2.5386026,0.13316211,-2.4708161,-3.4380736,-3.620033
1570715441,-5.080496,19.52232,-18.009186,5.430884,3.537851,1.0983212,-7.383718,5.391742,-10.7356
1570715441,5.482722,45.896847,-18.741812,5.3147664,4.1067195,4.3900886,2.96881,37.15801,-15.064317
1570715441,16.850391,19.220652,6.2392898,5.6545963,3.5570264,1.9814523,10.275913,19.507956,7.785944
1570715441,11.219229,-12.488156,-13.814544,4.1120462,-2.7218337,3.1841726,6.1626754,-18.89504,-8.379706
1570715442,9.064447,17.496826,-6.4308257,2.0751984,2.551386,1.1782184,4.6016555,10.0748005,-2.9352913
1570715442,-5.8705826,11.621455,11.860875,2.7495315,1.3571883,0.54117084,-11.836933,6.493075,17.712305
1570715442,-18.80885,1.0773908,0.32561144,-1.1643696,1.5233747,-1.6267084,-24.808718,-3.9600096,6.215348
1570715442,-19.761742,2.719813,4.3861775,-2.9146523,0.23862651,-2.3234127,-25.617958,-3.1986535,9.557653
1570715442,1.4173675,-1.5131354,3.0502129,-2.81558,-1.9963665,-0.49855897,-3.9935284,-8.0684595,7.9343843
1570715442,11.03727,2.1308396,-6.670246,-1.2495933,-1.9345793,-0.25247538,6.042965,-4.76925,-1.8100165
1570715442,7.747637,12.689269,13.623008,-1.865335,-2.4640317,0.36752746,2.9113493,5.6551046,18.454506
1570715442,26.75281,44.498634,-9.710882,-0.33130735,0.0031958907,1.1430637,22.543802,37.15322,-4.7548847
1570715442,2.1787236,-5.195418,-11.281479,-1.9622769,-0.7286631,-1.0535786,-2.1499932,-12.765883,-6.8043213
1570715442,-0.05746084,25.110388,0.34476504,-5.8399577,-1.4615874,-2.7165072,-3.7588966,16.788143,3.9743748
1570715442,14.877569,18.674774,-28.10314,-4.8556232,-3.239568,-2.2147524,12.038046,9.610326,-25.651478
1570715442,10.46745,1.0630256,-8.930372,-4.449745,-1.3326864,-2.0293906,8.307879,-8.413225,-7.627927
1570715442,-2.8491,1.1875241,-11.678916,-5.0846624,-1.7950253,-0.2087982,-4.7165775,-8.437167,-11.702858
1570715442,9.873688,-13.986926,-1.292869,-0.8341275,0.29615256,-0.5528891,8.1163435,-23.587675,-2.2218192
1570715442,16.041151,-11.693281,-14.279019,3.106406,0.067113705,-1.7385646,14.595054,-21.38501,-14.618996
1570715442,-0.4165911,-5.0278234,-6.3111157,3.5708754,2.5428638,-0.85330284,-1.4508862,-14.757859,-5.707777
1570715442,-5.33907,4.951209,-4.88896,4.132287,3.1831071,0.28549957,-5.6790466,-4.6495395,-3.2321723
1570715442,0.4261679,11.990162,-5.865794,3.7509105,3.4036238,1.5627906,-1.1252748,2.6719291,-3.217807
1570715442,-3.8019924,40.42849,-20.887016,5.596005,3.8467872,3.2459598,-6.315904,31.708807,-17.166426
1570715442,14.197616,47.02212,2.896984,4.3634562,3.0307698,6.8253574,9.730036,39.52827,7.3789296
1570715442,20.882227,-5.8226986,6.895301,4.857754,-1.7172587,3.1021447,17.209522,-1.9919758,15.002068
1570715442,14.403518,8.643068,-15.811308,2.299976,0.92574304,1.1643696,11.324574,0.35434186,-12.3876
1570715442,4.050989,15.993267,-1.6041151,1.1888714,2.2477765,0.80749506,2.552219,10.400413,1.1348516
1570715442,-3.2848446,-2.1164744,4.7405195,0.9491796,-0.7989727,-0.44209823,-8.78672,-6.133945,17.937359
1570715442,-22.91251,1.292869,-3.4045548,-2.3191514,2.7058542,-2.92424,-29.11828,-5.6551046,-0.019153614
1570715442,-4.4580035,0.2873042,3.0119057,-2.482142,-0.9321348,-1.4136491,-12.828133,-4.367024,9.006987
1570715442,5.1762643,1.2354081,-2.3319526,-1.4839586,-2.1305938,-0.52519137,-1.3215994,-5.7029886,4.76925
1570715442,11.616667,10.749966,2.0973208,-1.1792837,-1.9601463,0.20134112,6.019023,0.9864111,7.848193
1570715442,1.3551182,0.45010993,-13.163321,-1.9526893,0.15979454,0.95983255,0.842759,1.7860745,-8.236053
1570715442,1.3551182,0.45010993,-13.163321,-1.9526893,0.15979454,0.95983255,0.842759,1.7860745,-8.236053
1570715442,-10.6398325,1.067814,-9.131485,-2.669634,-3.486717,-1.140933,-15.591042,-11.722012,-4.084508
1570715442,10.084377,23.218967,-10.97502,-5.152841,-3.6859274,0.04261188,8.312668,14.020445,7.690176
1570715442,26.479872,23.18545,-10.505757,-4.9515,-0.18216577,-2.8816283,32.80535,17.946936,-11.410766
1570715443,1.2114661,6.540959,-12.947843,-5.565111,-0.92574304,-1.8525513,3.940856,-2.8634653,-9.572019
1570715443,-2.0446482,-3.8163576,-4.984728,-4.843905,0.07457078,-0.67539823,-4.88896,-10.702082,-8.51857
1570715443,13.733141,-23.381773,-12.339716,1.104713,-1.5127217,-0.5486279,10.381259,-31.000124,-9.11712
1570715443,8.106767,-7.52737,-10.807426,2.913587,1.1281495,-1.7257811,7.029376,-17.266983,-14.097059
1570715443,-1.9871874,-4.9655743,-0.5267244,4.1077847,2.1114185,-0.29828313,-2.7629087,-14.714764,0.1436521
1570715443,-2.1787236,9.222465,-7.240066,4.135483,2.6962667,0.5156037,-3.1172507,-1.8243817,-4.0940847
1570715443,-5.439626,9.586384,-6.9000893,4.0928707,3.8617015,1.553203,-6.919243,0.33518824,-3.9983168
1570715443,4.596867,44.11556,-24.032997,5.675902,2.4363341,3.3120081,2.3127987,35.549107,-19.833567
1570715443,13.292608,34.40468,6.95755,4.119503,3.4696722,4.3751745,9.102755,27.011383,11.856087
1570715443,13.450625,-9.816227,-7.1826053,3.8499832,-2.4299424,2.6643076,8.781932,-16.117765,-1.292869
1570715443,14.872781,11.080365,-9.619903,2.1977077,1.7758499,0.72759783,9.911995,5.4683566,-3.2800562
1570715443,0.05746084,11.224017,8.820239,1.600076,1.503134,-0.070309594,-5.2959743,5.9280434,15.102624
1570715443,-11.066,-3.0262709,-0.90021986,-0.5901745,1.4551957,-0.907633,-16.46253,-8.1881695,5.449203
1570715443,-26.700138,6.0381765,2.6479871,-2.3415227,1.8323107,-2.2584295,-32.221165,0.20111294,8.269572
1570715443,-0.49320555,1.7477672,3.4141316,-2.571627,-2.0634801,-0.7552955,-5.568913,-4.7261543,8.743625
1570715443,12.105083,4.1419687,-3.9264908,-1.4392161,-2.0155418,0.10759499,7.431602,-2.6862943,1.3311762
1570715443,16.376339,22.357056,8.700529,-2.515166,-3.9469252,0.68072474,11.980585,15.346833,13.9677725
1570715443,-10.721235,5.722142,0.7326257,-0.96089786,0.028763017,1.5041993,-14.982914,-1.3263878,6.0477533
1570715443,4.673482,10.79785,-6.215348,-3.1799114,-0.6359823,-1.3944737,0.6991069,3.3279405,-1.2449849
1570715443,9.878476,16.730682,-11.238382,-5.517173,-2.5908022,-0.77447087,6.4499793,8.485051,-7.1730285
1570715443,18.191145,20.992361,-18.08101,-4.5434914,-0.9822038,-2.8869548,15.514427,12.018892,-15.150508
1570715443,5.9041014,4.295198,-12.052411,-4.480639,-1.0866029,-1.912208,4.0222588,-5.1523223,-10.218452
1570715443,1.9393034,1.532289,-10.304645,-4.6297803,-1.1771531,-0.07244019,-0.07182605,-7.4603324,-9.864111
1570715443,4.721366,-2.456451,-6.7133417,-3.0147903,-0.6540923,-0.14488038,2.1452048,-10.55843,-7.8912888
1570715443,14.432248,-18.813637,-8.978256,1.1324106,-0.15233746,-0.6668759,12.794614,-26.27397,-6.8282633
1570715443,3.787627,-4.5920787,-11.405977,2.6451323,1.4615874,-1.8237884,4.630386,-15.897499,-13.211205
1570715443,-5.2528787,-3.4572272,-1.7429788,3.039292,2.7005277,-0.25141007,-5.9902925,-14.551958,-1.7669208
1570715443,-1.0151415,6.603208,-4.10845,3.5740712,2.5961287,0.36433154,-2.7964275,-4.3143516,-0.9576807
1570715443,-1.7525556,8.446744,-8.853758,3.8659625,2.9966803,1.883445,-0.29209262,0.23942018,-3.1507695
1570715443,5.1140146,37.06703,-17.865534,6.1574163,3.6081607,2.9934845,2.1212628,25.503036,-15.404294
1570715443,13.972561,37.93373,2.7389667,4.1525273,3.5399816,5.359509,10.625467,40.61045,5.3199162
1570715443,14.164097,-9.835381,-6.042965,4.5030103,-1.998497,2.540733,10.386047,-13.819332,4.936844
1570715443,13.077129,14.441825,-7.503428,2.5279496,2.134855,1.4104532,8.346188,8.590396,-4.5777135
1570715443,1.0007763,12.272678,5.865794,1.3625147,1.4519997,0.15766394,-3.064578,9.423578,8.920795
1570715444,-9.414001,-0.38307226,2.7102363,-0.56354207,0.9949873,-0.98966086,-10.251971,-4.261679,10.0987425
1570715444,-26.09201,1.7286136,-3.098097,-2.823037,1.5809007,-2.5055783,-32.647335,-4.572925,-0.51714754
1570715444,-2.0685902,0.4165911,3.1172507,-2.6216958,-1.9249916,-0.8810006,-10.874464,-6.129156,7.61835
1570715444,9.797073,3.5673606,-3.0119057,-1.6085984,-2.7942739,-0.3440909,2.9017725,-4.0940847,3.964798
1570715444,14.135366,17.286137,5.674258,-1.7524135,-3.2342415,0.68072474,11.927913,5.616797,6.363788
1570715444,18.29649,32.944214,-12.943054,-0.44103295,-1.5478765,2.4320729,14.221559,25.833437,-7.551312
1570715444,3.4045548,6.445191,-5.0996494,-2.4033098,-1.080211,-0.9118942,-4.1132383,-2.858677,1.3215994
1570715444,5.3821654,20.456059,-7.6375036,-4.9046273,-2.0677414,-1.9654728,1.6807296,12.5025215,-3.2465374
1570715444,11.137826,13.608643,-20.590134,-5.3328767,-2.4022446,-1.3998002,8.015787,4.9224787,-17.266983
1570715444,14.69561,12.143391,-12.181698,-4.4358964,-1.2261568,-2.9679172,12.3876,2.8538885,-10.036493
1570715444,1.412579,5.0661306,-12.320562,-4.6734576,-1.1419983,-0.7371855,-0.320823,-4.5394063,-11.410766
1570715444,3.6248214,0.8331822,-7.699753,-3.9980595,-0.86289054,-0.45914298,2.006341,-8.829816,-8.087613
1570715444,15.495274,-19.752165,-7.249643,0.5486279,-0.30680552,-0.6935083,13.982138,-29.410374,-7.991845
1570715444,6.244078,-7.1730285,-13.153744,2.6398058,1.1100394,-1.6054025,5.1666875,-16.917429,-13.28782
1570715444,-5.1475334,-7.019799,-2.9592333,3.7040374,2.895477,-0.092680834,-6.0238113,-16.759413,-2.2744915
1570715444,-1.2449849,5.645528,-5.4204726,4.548818,3.0073333,0.23543063,-2.2936451,-3.916914,-3.5194764
1570715444,-2.1691468,10.7116585,-6.83784,3.9511864,3.9415987,1.5659865,-3.7062242,1.4748282,-3.9217024
1570715444,4.390966,43.22492,-25.9723,5.4830832,4.459333,3.648642,1.8339585,34.66804,-21.911734
1570715444,12.325351,32.273838,3.7014358,4.4785085,1.266638,3.9650352,8.001422,24.851814,8.437167
1570715444,10.773908,-7.8865004,-3.4045548,3.7967184,-1.5830313,2.9146523,5.971139,-14.192827,2.3654714
1570715444,12.253524,11.109096,-9.68694,1.3816901,2.0293906,1.3603842,7.0724716,5.401319,-3.6152446
1570715444,-3.5242648,9.3661175,8.537724,1.2730298,0.5859133,0.5827174,-9.160215,4.0222588,14.523228
1570715444,-8.90643,0.44532153,-0.39264908,-1.1292148,0.25886714,-0.8735435,-14.4370365,-4.8745947,5.707777
1570715444,-19.263746,2.1787236,-1.8626889,-2.7474008,1.7801112,-2.2829313,-25.330654,-4.745308,1.13964
1570715444,-0.4309563,0.15322891,1.5945383,-2.4342034,-1.97293,-0.5134731,-5.521029,-6.5218053,6.655881
1570715444,8.791509,3.9983168,-2.111686,-0.64237404,-1.5457458,0.23330003,4.036624,-2.8778305,3.0071173
1570715444,3.1842883,17.195156,14.820108,-2.5535169,-3.2225232,0.50068957,1.4891934,3.8019924,11.674128
1570715444,16.347609,16.725893,-2.8874073,-0.8053645,-0.7371855,2.3926568,27.394455,38.493977,-7.1969705
1570715444,6.622362,5.865794,-6.540959,-2.8038616,-0.9438531,-0.8053645,2.528277,-1.6711528,-1.7860745
1570715444,8.240842,20.772095,-9.054871,-5.4692345,-1.9857135,-1.0035098,3.5817258,13.201628,-2.8443117
1570715444,17.87511,19.01475,-22.25171,-5.0484424,-1.3220335,-3.3855135,10.524911,7.2783732,-16.381128
1570715444,8.475474,4.525041,-11.18571,-4.1962047,-0.81282157,-2.5481904,10.228029,-0.94331545,-10.572795
1570715444,-1.4796166,1.3311762,-7.3166804,-5.015418,-0.7883197,-0.45807767,-3.1986535,-7.513005,-7.1826053
1570715445,-1.2401965,-2.6719291,-2.6048915,-3.182042,-0.41013932,-0.43783703,-4.3622355,-11.243171,-4.3143516
1570715445,15.859192,-16.098612,-8.135497,1.3337518,-0.75209963,-0.05113425,12.540829,-24.095245,-5.0613422
1570715445,4.9703627,-4.8985367,-10.515334,1.9356445,0.67220235,-0.91615534,6.517017,-14.5328045,-13.517663
1570715445,-7.1251445,-6.5936313,1.5227122,2.7921433,2.0464354,-0.50708133,-8.154651,-16.678009,0.5602432
1570715445,1.1252748,2.1643584,-4.3382936,4.3080606,2.1934464,0.4932325,-1.661576,-9.471462,-2.6623523
1570715445,-4.984728,20.939688,-13.785813,6.1680694,3.3823178,0.5134731,-5.12838,5.1810527,-9.706094
1570715445,7.6853876,48.784252,-9.442732,4.1429396,3.6699479,5.707861,4.55856,40.490738,-20.63323
1570715445,13.800179,19.421764,0.4357447,4.093936,2.866714,1.5127217,12.756307,17.104177,4.4196963
1570715445,17.903841,-7.4986396,-14.293385,4.172768,-1.2463974,1.9889094,14.5759,-20.197485,-3.145981
1570715445,10.563218,13.460202,-7.029376,2.651524,2.6536546,1.5350928,5.57849,7.297527,-1.2449849
1570715445,0.7374141,15.528792,4.711789,2.0783944,0.9033718,0.8277357,-4.7309427,9.864111,10.553641
1570715445,-12.583924,0.2777274,2.9352913,0.9353307,1.2826176,-0.8405193,-18.176779,-4.984728,9.02614
1570715445,-23.645136,0.11492168,-2.72939,-2.1465733,1.8131354,-2.6174345,-29.257145,-5.741296,2.777274
1570715445,-2.5570073,-2.0111294,0.9576807,-2.198773,-1.5468111,-1.4956769,-7.7189064,-8.552089,6.1195793
1570715445,7.656657,-1.2401965,1.436521,-1.4104532,-0.9992485,-0.6231987,2.8491,-8.192958,6.4020953
1570715445,18.516756,5.8705826,-2.719813,-0.7126837,-0.41866168,0.419727,13.781025,-1.2258313,2.1164744
1570715445,51.22634,83.25597,-17.06108,1.4328244,-2.0560231,4.671327,46.46188,76.53784,-11.731588
1570715445,-28.136658,-3.0789435,-1.7046716,0.6402435,-0.120378554,-4.7554855,-32.800564,-9.634268,3.8977604
1570715445,12.430696,22.031445,-10.649409,-6.0178623,-2.4874682,-1.5883577,8.590396,14.4849205,-5.693412
1570715445,22.596476,23.535002,-14.18325,-4.4934225,-0.77340555,-1.2719646,19.306843,15.380352,-9.835381
1570715445,4.6830587,9.121908,-11.267113,-3.73067,-1.7098016,-3.5932465,2.3080103,0.21068975,-7.9152308
1570715445,-2.1930888,4.8027687,-9.428367,-4.531773,-1.3092499,-0.98007315,-3.8546648,-4.5920787,-7.1730285
1570715445,0.59376204,-4.223372,-5.5641246,-4.9664145,-2.1444428,-0.11185618,-0.90021986,-13.8720045,-4.654328
1570715445,7.1969705,-13.690045,-5.861006,-1.004575,-1.1377372,-0.067113705,5.7604494,-23.386562,-5.741296
1570715445,8.796297,-6.2009826,-7.714118,1.4381509,-0.77766675,-0.7680791,7.489063,-15.911864,-7.326257
1570715445,0.4213795,-6.3206925,-1.5275006,1.4892851,1.1398677,-0.2119941,-0.7230489,-16.026787,-0.7757214
1570715445,-0.5554548,-3.4093432,-1.8243817,3.3791218,1.3784943,0.58484805,-1.8387469,-13.01488,-0.34476504
1570715445,2.954445,6.493075,-6.2105594,3.283245,1.7002139,1.0450563,1.3311762,-2.873042,-3.8019924
1570715445,0.8283938,14.116213,-22.845472,4.0886097,1.8259189,1.8131354,-1.4748282,5.1475334,-19.6133
1570715445,9.030929,57.326767,-7.0485296,2.2147524,2.862453,5.2497835,5.631162,49.076347,-2.96881
1570715445,11.281479,23.199814,0.1436521,4.186617,4.265449,2.651524,8.1402855,20.221428,3.4237084
1570715445,14.116213,-8.446744,-11.008539,3.7423882,-2.3841345,2.2541683,8.552089,-18.104954,2.3750482
1570715445,10.213664,9.390059,-5.4922986,1.8791838,1.7715888,0.6540923,5.511452,2.2266076,-2.4181437
1570715446,1.067814,12.129025,5.90889,1.8951633,1.7161933,0.0074570784,-2.3080103,7.0245876,8.169016
1570715446,-9.605537,-3.0693667,4.0701427,1.0716888,0.8138869,-0.99818325,-10.754754,-6.775591,10.6877165
1570715446,-19.57978,-2.2984335,-7.896077,-1.5883577,1.9739952,-2.791078,-26.374525,-6.8186865,-3.7301662
1570715446,-5.482722,-0.9720459,6.5505357,-2.3692205,-0.4559471,-2.077329,-14.164097,-8.805874,11.204864
1570715446,6.3589997,-1.2018893,2.8538885,-1.9633423,-1.1238883,-0.36646214,-0.37828386,-8.255207,9.021352
1570715446,12.143391,5.616797,-11.688493,-0.4154658,-0.8714129,0.64663523,6.1866174,-3.763685,-4.4675803
1570715446,26.81506,41.491516,-8.834604,1.6043372,-3.8020449,1.3571883,6.0046577,18.44493,7.177817
1570715446,-11.209652,5.243302,-8.0684595,1.951624,-1.2389404,-0.43037996,-8.872911,9.030929,-0.009576807
1570715446,2.456451,5.2145715,-3.1124623,-3.2150662,0.72014076,-2.921044,-8.820239,-9.591172,1.2689269
1570715446,11.894394,33.451786,-10.247183,-3.293898,-2.951938,-0.9960526,8.604761,25.119965,-5.741296
1570715446,13.613431,13.148955,-1.7429788,-1.5840966,-0.3185238,-3.9085743,12.028469,8.844181,1.388637
1570715446,1.8579005,4.8698063,-14.595054,-3.9937983,-1.4786321,-1.259181,0.81881696,-3.2369606,-12.689269
1570715446,1.4173675,-0.45489833,-5.2241483,-4.257992,-1.5819659,-0.2056023,-1.0534488,-8.159439,-4.2521024
1570715446,3.3854012,-5.765238,-4.2185836,-2.7889473,-1.8919674,0.009587673,0.92895025,-14.839262,-2.4181437
1570715446,9.270349,-6.655881,-6.9240313,0.32598087,-1.4551957,-0.6029581,6.7372837,-17.06587,-4.582502
1570715446,-2.2170308,-15.677233,4.213795,0.7723403,-0.36113566,-0.52093023,1.0486604,-16.76899,-1.0630256
1570715446,-0.6799533,-3.3279405,-0.78529817,1.8078089,0.8405193,1.2708993,-2.4133554,-14.470555,1.6998832
1570715446,-2.528277,1.6376339,-1.0821792,2.4128976,0.4506206,1.5851618,-4.7405195,-7.627927,1.2354081
1570715446,-0.7757214,7.1395097,-2.930503,2.478946,0.21732058,1.4179102,-3.394978,-1.8291701,0.04309563
1570715446,0.58897364,32.139763,-26.704926,4.7799873,0.11079088,0.975812,-2.4516625,23.654713,-22.831108
1570715446,12.612655,40.93606,-0.22026655,3.6284013,0.56780326,2.7996004,9.11712,33.207577,4.7070007
1570715446,25.316288,20.173544,5.544971,4.4263086,3.33651,0.19388404,21.08334,13.321339,11.137826
1570715446,13.685257,-9.500193,-17.056293,0.36220095,-0.43144527,2.073068,9.083601,-15.816096,-11.128249
1570715446,7.0581064,13.397953,-6.081272,0.9917914,2.557778,0.1736434,1.9488802,7.28795,-0.34955344
1570715446,-6.564901,9.773131,9.011775,2.798535,1.922861,-0.6072193,-11.87524,4.012682,14.9063
1570715446,-6.220136,-1.4077905,4.927267,-0.556085,1.8195271,-1.3049887,-11.631032,-7.1251445,10.769119
1570715446,-7.627927,-3.9025488,0.89064306,-3.2065437,1.5872924,-1.8173965,-13.10586,-10.309433,5.8945246
1570715446,4.1419687,1.2641385,-0.7134721,-0.2066676,-1.2346791,-1.5297664,-0.8523358,-5.602432,4.185065
1570715446,5.21936,4.295198,-6.167464,0.1395539,-0.88952297,-0.7371855,0.58418524,-2.7150247,-1.1109096
1570715446,3.9360676,1.5370775,4.9799395,0.243953,-0.14274979,-0.73931605,-0.5363012,-5.506664,10.127473
1570715446,30.866049,31.095892,-26.853367,2.9178483,-2.1252675,1.4008654,22.227768,2.6001031,-15.562311
1570715446,-22.227768,-6.493075,17.085024,0.6785942,-1.1920673,-1.4988728,-26.78154,-12.727576,23.127989
1570715446,8.264784,21.198261,-7.019799,-2.6003897,0.23010413,-1.7140628,4.1276035,14.599842,-1.0582372
1570715446,8.643068,15.859192,-8.106767,-1.6842345,-1.1079088,-1.8685309,2.9640217,9.030929,-1.2018893
1570715447,9.294291,8.748413,-6.483498,0.87886995,0.99392205,-1.9079468,5.554548,2.6767175,-0.4309563
1570715447,5.497087,5.4779334,-7.225701,-1.2783563,1.4157796,-1.6906263,2.8538885,-1.6089035,-3.9600096
1570715447,3.3566709,4.5154643,-5.032612,-2.4437912,0.692443,-1.8632044,0.2777274,-2.8491,-0.38307226
1570715447,5.439626,1.3215994,-3.2513258,-1.865335,-0.25780186,-1.7247157,1.7669208,-6.3446345,0.18674773
1570715447,5.5258174,1.1971009,-2.3750482,-1.09406,-0.6828553,-1.5244399,3.4620156,-7.489063,1.6807296
1570715447,2.7820623,-4.525041,-2.135628,-0.21412468,-0.7957768,-1.697018,2.542642,-12.435484,1.541866
1570715447,0.49320555,-4.5154643,-1.0726024,0.04900366,0.13529271,-1.7641318,-0.56982,-13.43626,2.8491
1570715447,-0.60812724,-1.958457,-1.5275006,0.67326766,0.73185897,-1.5681171,-1.1204864,-11.903971,4.7979803
1570715447,-3.6152446,8.465898,-11.219229,1.4978075,1.1313454,-2.1284633,-2.5761611,-5.746084,-3.2034419
1570715447,-10.477027,35.735855,-17.980455,4.964284,-3.2459598,1.0887334,-14.81532,23.472754,-5.1810527
1570715447,-2.5953147,25.953146,-3.4045548,1.951624,2.1668139,2.9636562,-3.3327289,19.278112,0.7134721
1570715447,18.071434,18.377892,-7.6614456,2.3830693,2.5673656,-0.41226992,10.807426,10.534488,-0.2873042
1570715447,16.476896,7.560889,-5.3725886,0.24608359,1.0897988,0.98539966,18.301277,0.8379706,4.6830587
1570715447,-1.7764976,5.875371,-4.735731,0.63065577,1.32736,1.043991,-3.107674,-1.2018893,1.1971009
1570715447,-2.7389667,7.9870567,2.6767175,0.79151565,0.52519137,0.41440052,-5.568913,0.56982,8.111555
1570715447,-3.8019924,3.265691,-0.15801731,0.85010695,-0.5997622,-1.2059162,-6.3589997,-2.930503,6.1770406
1570715447,-3.6870706,1.508347,-0.59376204,0.16618632,-0.32171968,-1.8024824,-5.7029886,-5.257667,6.2105594
1570715447,1.9536686,3.3183637,-1.1252748,-1.6799732,-0.20027582,-2.2808008,0.4213795,-3.739743,5.506664
1570715447,13.345281,5.00867,-7.0006456,-2.7750986,1.406192,-1.2677033,12.100295,-2.5953147,-0.93373865
1570715447,5.9663506,4.697424,-10.91756,-0.16299044,1.2740952,0.5603462,7.0485296,-3.5194764,-4.2760444
1570715447,-2.0446482,5.257667,-5.2528787,1.4722403,1.180349,0.74357724,-3.9360676,-2.4851813,0.45489833
1570715447,-3.9839516,11.568783,0.46447513,-1.9079468,1.0418605,-1.5958148,-5.9184666,3.7924154,6.114791
1570715447,11.8896055,31.723173,-7.1586633,1.9665382,-0.3163932,0.60508865,10.0269165,24.028208,-1.3694834
1570715447,-11.511322,12.914324,-15.1936035,-1.0194892,0.13209683,1.1089741,-13.776237,5.386954,-9.323022
1570715447,-7.129933,12.794614,2.7006595,0.30041373,-2.091178,-2.4459217,-9.054871,5.1810527,8.576031
1570715447,0.4213795,15.8304615,-10.012551,-2.016607,-3.3152041,-1.348666,-0.5650316,7.8912888,-4.3382936
1570715447,-0.6991069,8.365341,-4.841076,-0.6125457,-2.0965044,-1.0194892,-1.0295067,0.21547815,0.60812724
1570715447,-2.432509,9.045294,-2.0733786,-0.84584576,-1.9452322,-0.87886995,-2.2409728,0.7757214,3.193865
1570715447,0.79487497,6.943185,-3.9121256,-1.7918295,-1.8514861,-0.47086126,2.0350714,-1.6567876,0.63206923
1570715447,0.79487497,6.943185,-3.9121256,-1.7918295,-1.8514861,-0.47086126,2.0350714,-1.6567876,0.63206923
1570715447,-1.6950948,5.932832,-3.4141316,-1.7918295,-2.0506966,-0.42505348,-0.090979666,-2.8874073,0.5554548
1570715447,0.7422025,5.506664,-5.2002063,-1.3593189,-1.7502829,-0.67539823,2.719813,-3.4476504,-1.733402
1570715447,2.3127987,5.161899,-2.858677,-1.1206924,-1.460522,-0.71055305,4.6255975,-3.86903,0.17238252
1570715448,2.5187001,5.8083334,-4.721366,-0.73185897,-1.5670518,-0.58378273,5.1379566,-3.2513258,-2.0446482
1570715448,-1.6232687,5.410896,-6.3302693,-0.409074,-1.9100775,-0.487906,1.2689269,-3.6487634,-3.940856
1570715448,0.8331822,7.4363904,-3.9025488,-0.4868407,-1.2389404,-0.26419365,3.940856,-1.6184803,-1.7812861
1570715448,1.1731589,9.883265,-4.0701427,-0.204537,-0.74570787,0.3206544,4.7884035,0.9576807,-2.0685902
1570715448,1.2593501,8.336611,-4.912902,0.02769772,-0.026632423,0.10013791,4.5298295,-0.2873042,-2.9975405
1570715448,0.36391866,11.741165,-6.0860605,0.8724782,0.6647453,0.26206306,3.3279405,2.6527755,-3.892972
1570715448,-1.091756,14.60463,-4.4101195,0.7883197,1.3103153,0.9033718,1.6280571,6.191406,-1.2114661
1570715448,-2.801216,12.694057,-0.8619126,0.3504827,1.14839,1.4370855,-0.21547815,3.596091,0.81881696
1570715448,0.40701428,13.804967,-0.89064306,0.9012412,0.7755362,1.0109668,1.4460979,3.940856,2.1068976
1570715448,1.5227122,13.800179,0.545878,1.6171207,1.6171207,1.036534,3.3375173,5.5258174,3.940856
1570715448,0.45968673,9.758766,-2.5809495,1.2687687,1.912208,1.1334759,1.2976574,1.2449849,1.7238252
1570715448,0.45489833,8.212111,-4.0078936,0.89165354,2.160422,0.8362581,1.0486604,-0.4357447,0.40222588
1570715448,0.63206923,9.548077,-2.4229321,0.70203066,2.1625528,0.67326766,0.94331545,0.8858546,2.2744915
1570715448,-1.958457,8.221688,-2.3750482,0.13635801,2.5194273,0.7584914,-1.8195933,-0.02873042,1.982399
1570715448,-3.0358477,7.3166804,-1.6759412,0.15340276,2.450183,0.53690964,-4.213795,-1.3263878,2.6479871
1570715448,-1.5466543,7.1155677,-1.163582,0.29189137,1.8131354,0.09374613,-3.083732,-1.436521,3.3854012
1570715448,-1.0773908,7.1969705,-1.283292,0.09374613,1.2943357,-0.15233746,-2.825158,-1.685518,3.074155
1570715448,-0.38307226,5.731719,-0.8762778,-0.02769772,0.71481425,-0.26738954,-2.456451,-2.6144683,3.1794999
1570715448,0.8762778,7.690176,-2.4756045,-0.08522376,0.14701098,-0.67646354,-0.6464345,-0.9816227,1.8339585
1570715448,4.534618,8.863335,-3.064578,-0.6072193,0.30041373,-1.1089741,2.743755,0.22026655,1.0247183
1570715448,4.88896,9.524135,-2.231396,-0.6551576,0.60934985,-0.9289389,3.8019924,0.641646,1.7812861
1570715448,6.8761473,9.179369,-3.1028855,-0.43251055,0.4559471,-0.44849002,5.8945246,0.21547815,0.7565677
1570715448,5.7125654,12.966996,-4.9464207,-0.20347172,0.5731298,0.2418224,4.697424,3.9695864,-1.1731589
1570715448,0.94331545,17.654844,-4.1371803,-0.4953631,-0.29295665,0.88313115,-0.24899697,8.63828,-0.46447513
1570715448,-6.4882865,10.031705,-3.5913026,-0.6594188,1.3859513,0.22477765,-7.920019,0.9672575,-0.12449849
1570715448,-2.6431987,8.288726,-1.9393034,0.96835494,0.043677174,-0.60082746,-4.0797195,-0.7613561,1.541866
1570715448,1.8052281,12.186486,1.6328455,0.2759119,-0.16618632,-1.1153659,0.6991069,3.1986535,5.4061074
1570715448,8.379706,9.739613,-3.0502129,-1.6927568,0.43464115,0.2780425,7.398083,0.63206923,0.45968673
1570715448,-3.6535518,5.779603,-5.0134583,-0.3057402,0.986465,0.4527512,-4.879383,-3.4572272,-1.9680338
1570715448,-2.528277,9.816227,-1.484405,-0.044742472,-0.46873066,-0.60934985,-3.7301662,0.5793968,1.5849615
1570715448,3.6248214,14.288596,-3.6966474,-0.034089502,-0.5656727,-0.8692823,2.7246015,5.0134583,-0.63206923
1570715448,2.054225,11.87524,0.34476504,-0.4953631,0.16512102,-0.3824416,1.3120226,2.5617957,3.3279405
1570715448,-1.5945383,8.030152,-2.2266076,-0.4847101,-0.30254433,-0.39415985,-2.231396,-1.3311762,0.61291564
1570715449,1.2306197,9.059659,-2.992752,0.07989727,-0.42611876,-1.0897988,0.8619126,-0.33039984,-0.18674773
1570715449,0.6607997,9.892841,-3.5673606,0.026632423,-0.40481284,-1.2762257,0.6655881,0.49799395,-0.7469909
1570715449,-0.038307227,8.532935,-2.030283,0.20134112,0.13209683,-0.9960526,0.29688102,-0.8475474,0.80445176
1570715449,-0.36391866,9.744401,-1.8674773,0.3100014,0.25247538,-1.334817,0.272939,0.40222588,1.0534488
1570715449,4.381389,10.898406,-1.7142484,0.116117366,0.04900366,-1.636296,5.439626,1.6136919,1.2593501
1570715449,4.367024,9.68694,-1.5849615,0.017044751,0.08415846,-1.3539925,5.8466406,0.46447513,1.3982137
1570715449,3.4476504,8.7053175,-0.45489833,-0.29934844,0.6413088,-0.8767394,5.1906295,-0.47884035,2.4995465
1570715449,4.1036615,9.868899,3.643975,-0.8341275,-0.1747087,-0.09374613,6.6750345,1.1875241,6.7851677
1570715449,3.5098996,12.378023,-0.2825158,-2.2179482,-1.2165691,-0.32278496,4.711789,3.3135753,2.4229321
1570715449,5.257667,11.75553,-2.2122424,-2.353241,-0.3494174,0.86289054,7.632715,2.5187001,-0.92895025
1570715449,1.7142484,11.999739,-0.19632454,-1.7215198,-0.16512102,1.7215198,3.8498764,2.4133554,0.6991069
1570715449,-1.508347,13.278243,0.25857377,-1.6501449,-1.1771531,1.4701098,0.1436521,3.4380736,0.7038953
1570715449,-1.2497733,14.18325,-1.6998832,-1.4956769,-2.2339277,0.721206,-0.9864111,4.31914,-1.3934253
1570715449,2.2266076,13.163321,-3.2944214,-0.44422883,-1.660798,1.2325486,2.6240451,3.572149,-3.4141316
1570715449,-1.2354081,11.161768,-0.866701,0.67539823,-0.0042611877,2.400114,-0.37349546,1.6807296,-2.1164744
1570715449,-3.8498764,10.500969,1.9919758,1.1846102,-1.1324106,1.460522,-4.3622355,0.91458505,2.336741
1570715449,-1.934515,10.084377,1.1827357,0.99392205,-2.6962667,0.116117366,-3.3423057,0.46926352,1.9440918
1570715449,-1.5753847,10.70687,1.1492168,0.98007315,-3.7786083,-0.3462215,-2.0446482,1.0582372,1.5562311
1570715449,-1.8052281,9.509769,-2.4229321,1.012032,-3.6262708,-0.53264844,-2.2601264,0.14844051,-1.364695
1570715449,-1.4077905,8.073248,-1.8579005,1.6448184,-1.5393541,-0.63385165,-2.0159178,-1.5466543,-0.7613561
1570715449,2.6910827,8.896853,11.535264,1.6671897,-0.8341275,-0.46660006,1.8770541,-0.59376204,11.386824
1570715449,-1.1492168,7.264008,3.9743748,-0.2748466,-0.19068815,-0.33450323,-0.51714754,-1.9297266,6.459556
1570715449,-2.6910827,7.28795,2.9400797,-1.8504208,-1.5382888,-1.0056403,-2.743755,-2.5617957,5.104438
1570715449,-0.7086837,8.743625,-1.6807296,-1.8589431,-1.4381509,-1.424302,0.0047884034,-0.94331545,0.009576807
1570715449,0.20111294,9.548077,-0.2777274,-1.4221714,-0.8948494,-0.7286631,1.6663644,-0.49799395,0.41180268
1570715449,-0.7757214,10.065224,2.8682537,-2.5087743,-2.116745,-0.53371376,0.5506664,0.1436521,2.9592333
1570715449,-0.5793968,11.382035,1.2785037,-4.52112,-2.174271,-0.26099774,0.8523358,1.9009962,-0.0047884034
1570715449,0.17717093,8.6095495,0.9720459,-5.4798875,-1.6650591,0.35367858,1.5801731,-0.2681506,-1.5945383
1570715449,0.5650316,5.813122,2.873042,-4.660674,-2.0847862,0.24821419,1.6328455,-3.145981,-0.49320555
1570715449,1.067814,3.7828386,-1.2354081,-1.9367099,-2.5204926,0.07563608,1.8100165,-4.745308,-6.0142345
1570715449,1.5275006,4.55856,2.0159178,0.39948636,-0.44849002,-0.0692443,2.111686,-3.9025488,-2.9017725
1570715449,2.7150247,7.1155677,5.9280434,1.7066057,0.87886995,0.20240642,3.3614593,-1.5179238,1.3215994
1570715449,1.757344,5.0757074,9.423578,2.3617632,0.36007038,0.2769772,2.4037786,-3.8498764,5.4204726
1570715449,3.691859,8.820239,7.651869,0.84904164,0.2801731,-0.3483521,4.429273,-0.2777274,4.0701427
1570715450,1.7621324,7.0102224,5.8562174,-0.46553475,-0.19707993,-0.5912398,2.6001031,-2.087744,2.2984335
1570715450,1.2258313,7.6231384,5.554548,-1.0557092,-0.08628905,-0.67539823,2.2409728,-1.3551182,1.7477672
1570715450,0.18674773,5.5880666,5.511452,-0.4868407,0.057526033,-0.4836448,1.340753,-3.2800562,1.4939818
1570715450,0.06703765,5.875371,4.2185836,0.4548818,0.33024204,-0.8138869,1.4221559,-2.9735985,0.22505496
1570715450,0.36870706,7.9487495,2.0350714,1.1068435,0.6711371,-0.67326766,1.9919758,-0.9720459,-1.6950948
1570715450,0.34476504,8.978256,2.0207062,1.1238883,1.32736,-0.14381509,2.1739352,-0.047884032,-1.340753
1570715450,-1.4413095,7.8625584,3.1603463,0.4857754,1.6203166,-0.043677174,0.5410896,-1.2401965,0.10055647
1570715450,-3.6870706,12.5982895,2.542642,-0.3185238,1.2708993,-0.39735577,-1.4748282,3.5098996,-0.4165911
1570715450,-3.964798,11.621455,4.6926355,-0.9992485,0.61361104,0.7009654,-1.7286136,2.5809495,1.6089035
1570715450,-1.8483237,7.9343843,4.9943047,-1.4115185,-0.5177343,0.5486279,0.18674773,-1.0199299,1.5562311
1570715450,0.61770403,7.40766,5.257667,-1.4733057,-0.8639558,0.33237264,2.4708161,-1.412579,1.3982137
1570715450,0.5650316,7.3549876,3.8307228,-0.7670138,-0.46979594,0.39948636,2.006341,-1.340753,-0.37828386
1570715450,0.009576807,7.824251,4.261679,0.29508725,-0.039415985,0.3771151,1.5562311,-1.1204864,-0.090979666
1570715450,0.047884032,8.863335,3.4237084,0.58484805,0.50708133,0.4847101,1.4939818,0.10055647,-0.6703765
1570715450,-0.33518824,8.317456,3.3758245,0.5305179,0.8596946,0.5219955,1.1827357,-0.5267244,-0.5506664
1570715450,-0.8714894,8.389283,4.1611223,0.3898987,0.7052266,0.37391922,0.58418524,-0.59376204,0.4309563
1570715450,-0.12928689,8.432379,2.0159178,-0.06285252,0.2418224,0.18855755,1.067814,-0.79966336,-1.2401965
1570715450,-0.94331545,8.6574335,3.5865142,-0.46553475,0.033024207,0.088419646,0.5793968,-0.22026655,-0.32561144
1570715450,-0.5554548,8.892065,3.1842883,-0.6370476,-0.29615256,-0.16299044,0.4165911,-0.1388637,-0.62728083
1570715450,-0.15801731,9.279925,2.6431987,-0.46873066,-0.012783563,-0.19494934,1.1540052,0.51235914,-1.5801731
1570715450,-0.37828386,9.289502,4.0078936,-0.50708133,0.14914156,-0.16085984,1.0295067,0.5315128,-0.18195933
