time,ax,ay,az,gx,gy,gz,la_x,la_y,la_z,fox,foy,foz
1570715420,-5.452194,4.9266663,6.2273254,-0.45115662,0.5354309,0.83683777,0.7187505,0.0068941116,-0.88602877
1570715420,-5.452194,4.9266663,6.2273254,-0.45115662,0.5354309,0.83683777,0.7187505,0.0068941116,-0.88602877
1570715420,-5.452194,4.9266663,6.2273254,-0.45115662,0.5354309,0.83683777,0.7187505,0.0068941116,-0.88602877
1570715420,-5.452194,4.9266663,6.2273254,-0.45115662,0.5354309,0.83683777,0.7187505,0.0068941116,-0.88602877
1570715420,-5.452194,4.9266663,6.2273254,-0.45115662,0.5354309,0.83683777,0.7187505,0.0068941116,-0.88602877
1570715420,-6.6067963,4.759079,6.0651093,0.38613892,0.3671112,-0.10165405,-0.24096775,-0.58294773,-0.11442232
1570715420,-6.7660065,5.7269287,5.1212006,0.52142334,1.1287842,-0.21989441,-0.5111661,0.033235073,-0.34274387
1570715420,-6.527191,5.9513855,5.3037567,1.0625763,1.0552673,-0.4617157,-0.082616806,0.19988394,0.21279335
1570715420,-6.3625946,5.637146,3.997116,1.0487213,1.1511536,-0.6193695,0.38450623,-0.10700512,-0.62386036
1570715420,-5.007477,5.7700195,3.8564606,0.90278625,1.4813843,-0.42123413,1.8759456,0.06262255,-0.019167423
1570715420,-3.8827972,5.764038,2.795227,1.1179657,0.19348145,-0.19859314,3.2840786,0.37706852,-1.0716057
1570715420,-3.6230316,5.459976,2.6695404,0.57362366,-0.29335022,0.407547,3.2882485,-0.43294668,-1.2601888
1570715420,-3.6744995,5.087677,2.190689,0.35205078,-0.40200806,0.75694275,3.3126054,-0.9187131,-1.3345966
1570715420,-4.8195343,4.5250397,3.4009705,0.74086,-0.7162628,0.9039612,2.008503,-1.5490069,-0.73997784
1570715420,-6.589447,5.1062317,3.8959656,1.3416748,0.1817627,0.7665405,0.0017185211,-1.3954196,0.68464494
1570715420,-9.003403,6.2781982,3.5787354,0.96777344,0.9242401,0.112457275,-2.3373556,-0.3931055,0.039726257
1570715421,-10.281906,5.7508698,7.019806,0.5373993,1.7072144,-0.48301697,-3.5928922,-0.79797935,3.78939
1570715421,-10.117889,4.2706604,5.222351,-0.13264465,2.8236084,-0.7077942,-3.2592688,-2.0739517,3.4805243
1570715421,-9.573212,6.0663147,1.2066803,0.022872925,2.0566254,-0.6289673,-2.28893,-0.2680459,-0.895908
1570715421,-8.583817,5.5749054,3.1639404,0.5352783,0.8954773,-0.4702301,-1.1639891,-0.5018673,1.4535834
1570715421,-8.291122,5.5000763,3.0328522,0.14112854,0.65792847,-0.38182068,-0.68428516,-0.9290829,1.580912
1570715421,-8.757385,4.885971,1.430542,0.45217896,0.6930847,-1.0039368,-0.87916374,-0.8178401,0.4666537
1570715421,-7.7302856,3.4380798,0.0018005371,0.4553833,0.5578003,-1.1871643,-0.28280735,-2.149549,-1.0875896
1570715421,-4.546585,2.0542297,-1.2713165,0.74406433,0.097595215,-1.0966187,2.9375725,-2.6717548,-2.2641983
1570715421,-2.9436646,3.8163605,1.8644867,0.6023865,-0.464859,-0.82496643,5.998226,-1.2282329,0.100316286
1570715421,-4.237732,6.2231293,2.1182709,0.7344818,-0.14102173,-1.4694519,4.433589,1.4272919,1.3420218
1570715421,-8.194153,-1.3072357,-1.2180481,0.3605652,0.5641937,-0.5352173,1.1774731,-3.7594647,-0.31791085
1570715421,-5.0751038,4.8931427,-4.4382477,-0.16886902,1.8148041,0.45335388,5.7963037,6.2087417,-3.313348
1570715421,-9.374496,0.41419983,-0.15142822,-0.13691711,1.2374268,3.5809631,-1.488204,-5.1293344,-1.0815951
1570715421,-8.739441,10.193314,-1.1013336,0.11236572,0.28189087,4.550354,-1.2844124,3.9487405,-0.93903404
1570715421,-14.130585,7.961914,1.2102661,0.58106995,-0.25286865,2.3601685,-6.3942337,0.6557665,1.2352735
1570715421,-14.915283,9.7821045,0.46746826,0.6577759,1.8339844,-0.0622406,-8.173107,4.93721,1.498235
1570715421,-8.628098,10.2400055,-2.601303,0.17733765,1.2406311,-0.119766235,-1.7403622,2.7876935,-1.0832251
1570715421,-6.6193695,9.129684,-2.434906,0.70251465,-0.7663269,-0.40525818,-0.29692698,3.2294407,-1.1016179
1570715421,-3.1729126,4.9907074,-2.6414032,1.6207733,-2.9511871,2.0725555,4.1490493,-1.1889448,-1.4304099
1570715421,-3.1729126,4.9907074,-2.6414032,1.6207733,-2.9511871,2.0725555,4.1490493,-1.1889448,-1.4304099
1570715421,-9.361328,8.229477,-1.7064667,1.2202301,-2.3482513,2.2025146,-3.8389435,-0.45716286,-0.12284681
1570715421,-9.547485,8.100784,-1.6825256,1.1925354,-2.215088,2.0278015,-4.1525736,-0.09007263,-1.0974889
1570715421,-10.713455,4.463394,-2.7222137,1.5163727,-0.957016,1.3375244,-6.472944,-3.5546637,-2.4074748
1570715421,-13.338699,2.8682556,4.1605225,0.35098267,0.028366089,0.7132721,-7.7961674,-4.702155,1.993057
1570715421,-7.4292145,10.8289795,2.0961304,-1.5814056,2.9546356,-1.1871643,-2.4117885,2.5125628,3.1623769
1570715421,-7.281372,10.6631775,1.5993195,-1.4929962,2.9983215,-1.2223206,-2.4117885,2.5125628,3.1623769
1570715421,-5.35643,9.0542755,-1.5191193,-0.67167664,1.3791199,-1.7954254,0.41061878,1.9430523,0.40432364
1570715421,-7.715317,8.147461,0.046081543,-1.0189514,-1.4161377,-1.8817139,-1.5563908,-0.45174837,-0.3606685
1570715421,-6.982086,6.514618,0.075424194,-0.8474426,-0.9602051,-2.0660095,-1.558949,-1.1448526,0.17637222
1570715421,-4.5411987,3.0436249,-0.12269592,-0.8122864,-2.042511,-3.0684204,1.4553227,-3.708702,-1.2985466
1570715421,-4.5411987,3.0436249,-0.12269592,-0.8122864,-2.042511,-3.0684204,1.4553227,-3.708702,-1.2985466
1570715421,-8.134903,1.4119873,8.440765,-0.311615,-3.7213745,-2.9799957,1.3651366,-2.6212173,4.4519567
1570715421,-8.764572,0.7559662,8.924988,-0.2924347,-3.3176422,-2.8180847,1.3651366,-2.6212173,4.4519567
1570715422,-6.984482,-2.3858185,9.7348175,-2.4730377,-0.7397003,-0.6481323,0.85961294,-8.348262,0.506129
1570715422,-5.9280396,-0.3609314,4.838684,-1.7113647,0.72291565,-0.3455963,3.1606622,-1.3977947,0.8735955
1570715422,-6.755844,-1.8884277,5.2947845,-1.7124329,0.8113251,-0.16131592,3.1606622,-1.3977947,0.8735955
1570715422,-9.641449,-1.1426392,3.8648376,-0.5960388,-0.3934784,3.449936,-1.8192372,-6.0353127,-0.3833599
1570715422,-9.641449,-1.1426392,3.8648376,-0.5960388,-0.3934784,3.449936,-1.8192372,-6.0353127,-0.3833599
1570715422,-11.278488,17.35437,6.9162445,0.3339386,0.5109253,1.3108826,-1.9679317,7.9865365,3.0748758
1570715422,-10.508743,-0.85173035,3.759491,1.8210449,1.2523499,-2.8479004,-2.9432464,-3.7892036,0.17517924
1570715422,-3.842102,4.4017334,0.61172485,1.6101227,0.090148926,-0.54693604,3.7425823,-0.36191893,-1.7801023
1570715422,-3.633194,7.2484436,4.1282043,1.805069,-1.8955078,1.7252808,4.3934445,1.7737036,1.0603878
1570715422,-3.633194,7.2484436,4.1282043,1.805069,-1.8955078,1.7252808,4.3934445,1.7737036,1.0603878
1570715422,-8.051697,7.2801666,4.8003693,0.8718872,1.2150574,1.9468536,-0.3172202,2.3613477,2.1385481
1570715422,-6.466736,11.768692,-3.502121,1.7358246,0.7676544,3.8898926,0.41487408,4.8903136,-4.2323027
1570715422,-6.842621,14.223953,-3.620636,2.0191803,0.14767456,4.0645905,-0.08845472,6.67787,-5.8726606
1570715422,-12.881409,15.459366,-0.12509155,2.952362,0.11251831,2.7681732,-6.105924,8.589699,-3.029058
1570715422,-13.794785,14.763245,0.8427582,2.4080048,2.305893,2.5093079,-8.9238615,6.6074514,0.46927887
1570715422,-8.248627,9.282318,-1.1851349,1.0466003,2.5200195,1.5921173,-4.3168497,0.3418312,-0.33834416
1570715422,-7.640503,5.127182,0.6769562,1.3725739,0.66218567,1.254425,-2.813258,-1.890068,0.56702805
1570715422,-4.1365814,-0.8439636,4.0342255,-0.5406494,2.6499786,0.3691864,-0.70718265,-8.467844,5.910824
1570715422,-4.083313,-0.8439636,4.0342255,-0.5406494,2.6499786,0.3691864,-0.70718265,-8.467844,5.910824
1570715422,-5.683243,-3.6493683,2.1009064,-1.2959137,0.77404785,-0.81752014,-1.356771,-12.098744,4.848322
1570715422,-6.18721,-4.036026,5.3695984,-0.916687,0.045410156,-1.4129944,-2.836122,-12.937039,5.384961
1570715422,-2.4756012,-1.1007385,-1.0684052,-1.2437134,-0.2922821,-2.7616272,1.6356869,-10.951313,2.5330365
1570715422,-7.660843,7.040756,-1.99617,-0.6397095,-0.86647034,-3.0833282,-2.327136,-0.93336916,-1.3424387
1570715422,-10.660782,15.190018,-0.52493286,-0.9571686,-0.7610016,-2.4921112,-4.1470313,7.176128,-0.6350063
1570715422,-9.042892,16.776169,-2.2194214,-0.55555725,-1.2584839,-2.7520294,-3.1560283,9.601353,-2.4949389
1570715422,-4.668091,13.664307,-3.0526123,0.9592438,-3.6521301,-2.6316528,1.7958627,7.4312353,-2.8599563
1570715422,-6.3392487,12.835312,1.8399506,0.5800171,-4.2156525,-2.297165,0.7889719,7.071809,-0.6637429
1570715422,-10.963654,5.531204,0.0071868896,-0.09111023,-1.6515656,-2.5027618,-3.595255,0.15528965,-0.120928764
1570715422,-11.298843,1.8393402,-1.0612335,-0.42240906,-1.6313171,-1.9765167,-2.6909404,-2.9053893,-4.406605
1570715422,-8.155853,0.79966736,1.7950592,-0.5992279,0.47790527,-1.7996826,0.037837982,-3.7666988,-0.7531569
1570715422,-8.155853,0.79966736,1.7950592,-0.5992279,0.47790527,-1.7996826,0.037837982,-3.7666988,-0.7531569
1570715422,-3.8522644,3.605072,1.9117737,-0.1635437,1.0265045,-1.50354,4.957903,0.08709693,-0.15578437
1570715422,1.0600281,3.0975037,1.8399506,1.3832245,-0.9474182,-0.6662445,10.50363,0.20112824,-0.6872263
1570715423,-0.91937256,5.1714783,15.37796,-1.5334778,-2.4835358,1.0189972,9.108813,-4.9121737,-5.2552567
1570715423,-0.91937256,5.1714783,15.37796,-1.5334778,-2.4835358,1.0189972,8.010073,-0.5455253,8.507979
1570715423,-7.2873535,-1.1534119,-2.000351,0.7706909,-2.1841888,2.6744232,-2.4850597,-3.369395,-7.103512
1570715423,-11.307816,12.158356,2.8359375,0.60131836,-0.59695435,3.848343,-2.3974786,6.708235,-2.5039458
1570715423,-12.579132,10.756546,5.957367,1.0252991,1.7594147,3.656601,-5.46548,6.1543636,2.5399752
1570715423,-8.524551,8.593994,1.0576324,0.93473816,4.0848846,2.7138367,-2.328947,4.1806164,2.35603
1570715423,-8.524551,8.593994,1.0576324,0.73127747,4.141342,2.8075867,-2.4962463,2.9885368,1.0796895
1570715423,-12.271484,7.8541718,0.1257019,0.49905396,1.2086792,4.105072,-7.262429,0.5735264,0.5519
1570715423,-12.129028,6.629547,-0.4800415,0.67375183,0.967926,4.0038757,-7.262429,0.5735264,0.5519
1570715423,-7.569275,-1.2575531,2.3804321,-0.55662537,1.253418,0.7665405,-3.9058247,-9.228217,4.8037915
1570715423,-7.4022675,-0.7344208,1.4676514,-0.62693787,0.9945526,0.64616394,-3.61208,-9.7289295,3.5340686
1570715423,-11.689087,-7.2250977,6.3302765,-0.21253967,0.90826416,0.649353,-7.439269,-16.176508,8.325269
1570715423,-10.399216,-4.7884064,-7.60997,0.37121582,-0.048339844,1.0040894,-7.98235,-14.85747,1.6567702
1570715423,-11.397598,2.6851044,0.809845,-2.7073975,-2.2438507,4.643036,-15.3867445,-7.72511,-0.7500731
1570715423,-11.397598,2.6851044,0.809845,-2.7073975,-2.2438507,4.643036,-15.3867445,-7.72511,-0.7500731
1570715423,16.551117,19.579788,19.612701,-4.052826,-6.1224823,3.849411,16.791868,10.972627,12.316021
1570715423,15.352814,19.612701,19.52591,-4.0464325,-4.4233856,3.8920288,16.791868,10.972627,12.316021
1570715423,-5.240906,1.8124084,-7.5357513,-2.6125793,-2.3706207,-1.9179382,-11.853317,-6.4191875,-12.777006
1570715423,-5.240906,1.8124084,-7.5357513,-2.6125793,-2.3706207,-1.9179382,-11.853317,-6.4191875,-12.777006
1570715423,4.0970764,-4.5112762,-4.1048584,-1.5388031,-3.8545227,-1.1285706,3.0508285,-11.630532,-10.718443
1570715423,2.466629,-16.217728,5.4288483,2.4026794,0.5929413,0.30101013,2.856571,-23.576212,1.3888025
1570715423,2.1278534,-16.227295,5.0182495,2.5816498,0.855011,0.43203735,2.856571,-23.576212,1.3888025
1570715423,5.324112,-6.0812683,1.6663666,2.7765808,3.8963318,1.5345917,3.9049873,-15.965996,-2.5859156
1570715423,3.8319244,5.102646,10.592545,0.436203,4.5290985,0.1337738,4.4276414,-1.9387388,4.5820894
1570715423,4.945221,2.5169067,12.263107,0.389328,4.5546722,0.4352417,3.5318513,-4.540122,8.537876
1570715423,14.942215,19.612106,-14.838669,0.016494751,6.0119476,3.5404816,10.793889,11.5428,-19.991165
1570715423,8.413818,8.175598,-6.1680603,-0.33717346,2.8598328,3.0483246,11.529624,3.1525154,-10.882861
1570715423,5.391739,4.8446655,-5.7263336,-0.18377686,1.827591,2.877884,7.830979,-0.7402983,-9.412525
1570715423,7.0036316,19.612701,19.612701,14.240967,6.5978394,-0.595932,-8.983622,10.921983,18.95044
1570715423,7.0036316,19.612701,19.612701,14.240967,6.5978394,-0.595932,-8.983622,10.921983,18.95044
1570715423,-1.0343018,13.209412,3.8241425,2.9640808,-2.072342,2.6211548,-1.755152,1.1364021,-6.033496
1570715423,-0.31723022,7.0257874,1.8764496,0.8367462,-0.1900177,2.6850739,-4.9796715,0.042014122,5.1359205
1570715423,-0.31723022,7.0257874,1.8764496,0.8367462,-0.1900177,2.6850739,-4.9796715,0.042014122,5.1359205
1570715424,-13.439255,5.0846863,-12.221207,-2.144928,0.6781769,-0.4617157,-16.604925,-1.4191723,-5.715406
1570715424,-13.439255,5.0846863,-12.221207,-2.144928,0.6781769,-0.4617157,-16.604925,-1.4191723,-5.715406
1570715424,-4.7584686,-0.4219818,9.46608,-2.2929993,-2.7210846,-0.57144165,-7.9373655,-9.6731,10.971967
1570715424,-4.2904053,0.048477173,8.264786,-2.3238983,-2.294983,-0.7088623,-7.9373655,-9.6731,10.971967
1570715424,1.956665,7.6877747,-0.0059814453,-5.325821,-2.0169525,-2.7349854,-0.47193325,-2.7464495,-2.5454688
1570715424,2.1158752,19.612701,6.074692,-6.248337,-4.8825073,-4.174164,1.910944,11.140987,3.1456556
1570715424,2.3062134,19.612701,7.656662,-6.398529,-4.7536163,-4.114502,1.910944,11.140987,3.1456556
1570715424,19.612701,19.612701,8.931564,-4.585449,8.851944,-1.0050049,10.142267,11.593019,15.734985
1570715424,-4.8763885,17.09999,-13.8103485,-5.2128906,-6.2396545,-3.590393,-10.417067,12.674675,-22.876762
1570715424,-2.1631622,13.323135,-14.949402,-5.269348,-6.4782715,-3.428482,-10.417067,12.674675,-22.876762
1570715424,13.979736,-13.6948395,-1.4454956,-3.6331024,-8.985916,-1.4449463,15.820809,-17.245499,-13.0522375
1570715424,9.060852,-19.612701,6.774399,0.5800171,-5.3661346,-1.4651947,7.190742,-24.69419,-0.7106223
1570715424,9.633667,-2.866455,1.2820892,3.861023,5.8958282,0.6919708,9.131378,-10.102628,-3.6671815
1570715424,9.424179,-2.0661926,0.80026245,3.7172089,6.11528,0.6866455,9.131378,-10.102628,-3.6671815
1570715424,11.203064,3.24115,6.0776825,2.5326385,7.9560547,0.6621399,10.798274,-4.029046,0.3451419
1570715424,7.3507996,14.200607,-16.36557,0.4159546,9.226913,1.696518,8.420086,4.5087614,-17.411451
1570715424,7.3507996,14.200607,-16.36557,0.4159546,9.226913,1.696518,8.420086,4.5087614,-17.411451
1570715424,17.814056,19.612106,-12.082336,-0.25090027,5.3259125,3.3295593,16.345856,12.080851,-16.967875
1570715424,0.83018494,16.396683,-15.133743,-2.4229736,-4.078232,3.912262,1.0590075,4.264082,-19.95187
1570715424,0.83018494,16.396683,-15.133743,-2.4229736,-4.078232,3.912262,1.0590075,4.264082,-19.95187
1570715424,-14.979324,19.612701,18.552063,13.881973,0.09547424,-1.154129,-21.119036,11.565951,17.431438
1570715424,-2.1805267,13.129196,6.4380035,2.9725952,-0.9889679,0.5130005,-3.7298248,10.279196,7.7874794
1570715424,-2.1805267,13.129196,6.4380035,2.9725952,-0.9889679,0.5130005,-3.7298248,10.279196,7.7874794
1570715424,-5.6593018,7.028183,12.80838,0.84846497,-1.468338,2.1726837,-6.881716,-1.0912409,14.107544
1570715424,-10.309433,9.729431,3.1274261,-1.1489105,-1.1487579,1.1170044,-12.104369,1.61309,8.137978
1570715424,-6.3572083,2.1374207,6.162674,-2.6754303,-1.8859253,-0.8004761,-9.005934,-4.827338,6.3749194
1570715424,-6.3572083,2.1374207,6.162674,-2.6754303,-1.8859253,-0.8004761,-9.005934,-4.827338,6.3749194
1570715424,-2.4606476,1.948883,1.9189453,-4.0624084,-0.018508911,-1.786911,-5.493987,-6.2583227,4.006452
1570715424,2.4779968,7.968506,0.7984619,-4.6855927,-0.9676666,-2.869217,1.649198,-1.7143097,-0.41138542
1570715424,0.016159058,19.612701,4.361038,-5.6890717,-5.5056915,-2.6508331,-0.6073678,11.727582,2.4350924
1570715424,0.016159058,19.612701,4.361038,-5.6890717,-5.5056915,-2.6508331,-0.6073678,11.727582,2.4350924
1570715424,1.1923065,19.612701,19.612701,-6.5498047,2.2483673,-4.130478,2.931874,12.236118,15.083311
1570715424,4.806366,8.655045,-13.777435,-3.2187195,-7.440216,-3.2580261,3.1551847,3.8779135,-22.003078
1570715424,4.806366,8.655045,-13.777435,-3.2187195,-7.440216,-3.2580261,3.1551847,3.8779135,-22.003078
1570715425,7.767395,-19.612701,1.7070618,3.2463684,-2.6433258,0.9092865,8.762492,-24.832664,-1.7101331
1570715425,7.767395,-19.612701,1.7070618,3.2463684,-2.6433258,0.9092865,8.762492,-24.832664,-1.7101331
1570715425,12.535446,-5.391739,0.33338928,3.8706207,5.971466,2.2504425,12.886673,-12.897852,-5.0878196
1570715425,12.535446,-5.391739,0.33338928,3.8706207,5.971466,2.2504425,12.886673,-12.897852,-5.0878196
1570715425,14.030624,8.374313,5.9364166,2.526245,3.7205658,1.1979675,13.548073,-2.389924,-2.4433575
1570715425,0.72784424,19.612701,-10.894211,-0.09643555,4.3362885,2.1354065,-1.1517847,12.41849,-19.455437
1570715425,0.72784424,19.612701,-10.894211,-0.09643555,4.3362885,2.1354065,-1.1517847,12.41849,-19.455437
1570715425,1.6466064,5.866394,-7.7260895,1.3491364,5.257736,1.0733337,2.1067872,2.4829755,-8.938798
1570715425,-4.9476166,-11.325775,-19.591751,1.2042542,-4.3892975,2.0832062,-2.9493415,-17.281528,-20.95825
1570715425,13.034637,19.612701,-3.1441803,3.685257,9.539047,5.583664,-2.1433794,12.033842,-1.07683
1570715425,-17.524963,19.612701,19.360107,21.170502,-2.950119,0.7686615,-14.742084,11.952622,17.050192
1570715425,-8.622116,16.349411,19.612701,0.43727112,-1.2829742,0.14442444,-2.9354382,11.978758,11.892133
1570715425,-11.708847,2.767105,7.325653,0.33926392,-1.1807098,2.8065186,-11.725448,-6.364502,6.4647417
1570715425,-11.743561,13.194443,7.3669586,0.11236572,-1.8816681,1.8903961,-13.263063,6.128939,8.557539
1570715425,-10.67276,8.648453,6.628952,-0.36488342,-1.9381256,0.87413025,-14.039303,2.4275508,10.192984
1570715425,4.517853,2.9245148,6.474518,-4.9039764,0.14767456,-2.1352386,1.0649134,-4.8605886,7.25662
1570715425,4.517853,2.9245148,6.474518,-4.9039764,0.14767456,-2.1352386,1.0649134,-4.8605886,7.25662
1570715425,7.531555,4.3897705,-3.533844,-4.261612,0.20306396,-1.6015472,7.424613,-5.290719,1.6680809
1570715425,6.466736,16.626541,-4.3514557,-5.316223,-1.5727386,-1.7496185,6.7979264,3.8500762,-6.6768556
1570715425,1.114502,19.612701,15.168472,-5.3652344,-4.5469513,-1.8881073,-6.0197425,12.116146,8.302545
1570715425,-1.2731171,19.612701,5.9980774,-5.6741486,1.2757874,-4.321167,-0.35512757,12.709158,4.19905
1570715425,-1.8249817,19.612701,8.833405,-1.0551758,3.691803,-4.5416718,0.44790328,13.02832,7.417881
1570715425,14.267639,-10.25676,-6.3302765,-2.492218,-7.309189,-1.7325745,15.109659,-13.570015,-13.8624115
1570715425,14.267639,-10.25676,-6.3302765,-2.492218,-7.309189,-1.7325745,15.109659,-13.570015,-13.8624115
1570715425,9.736618,-14.184448,-1.4472961,-0.9379883,-7.7310333,-1.1850281,12.560698,-18.980724,-8.451952
1570715425,4.609436,-16.337433,-2.356491,3.0162659,-1.817749,1.4759979,5.0989766,-22.759146,-8.2350645
1570715425,12.062592,1.3024445,-2.917328,2.0341034,7.117691,1.4781342,14.401094,-5.4679656,-9.093918
1570715425,12.062592,1.3024445,-2.917328,2.0341034,7.117691,1.4781342,14.401094,-5.4679656,-9.093918
1570715425,3.375229,3.0591888,2.7120361,3.6841888,1.875534,1.4184723,4.8939204,-4.1724105,1.1239922
1570715425,1.5095367,19.605515,-19.54985,-0.5960388,8.457794,2.9513855,-0.05120492,12.8557205,-21.903202
1570715425,12.853867,13.362045,-4.388565,-1.6368103,8.423706,3.1410065,13.910656,9.857637,-6.143568
1570715425,12.853867,13.362045,-4.388565,-1.6368103,8.423706,3.1410065,13.910656,9.857637,-6.143568
1570715425,-2.9783936,19.612701,-19.612701,1.2489929,-9.959564,3.53302,0.61422706,12.786981,-21.990852
1570715425,-9.615112,19.611511,-19.39244,3.2335815,-11.515915,3.9580688,-5.1311274,12.770706,-21.87173
1570715426,-0.9816284,19.401413,19.612701,0.60450745,3.263565,-0.056915283,3.0314646,12.437067,14.999459
1570715426,0.42796326,12.700043,-6.858795,3.6085663,-0.16871643,2.113037,-1.0772238,9.954688,-16.325783
1570715426,-12.716202,7.906845,-2.5330658,-1.8328094,0.5332947,0.91033936,-15.301031,1.771842,-0.54305685
1570715426,-12.165543,7.3513947,-2.067398,-1.8381348,0.22862244,0.7644043,-15.301031,1.771842,-0.54305685
1570715426,-7.8571777,2.5827484,1.4077911,-2.5369568,-1.7026978,-0.74720764,-10.191564,-4.225634,5.0160728
1570715426,-7.8571777,2.5827484,1.4077911,-2.5369568,-1.7026978,-0.74720764,-10.191564,-4.225634,5.0160728
1570715426,4.062958,3.8768158,0.3830719,-4.707962,-2.1469116,-3.4977112,2.4753256,-5.1993484,1.2161345
1570715426,4.3382874,4.9542084,-0.22625732,-4.736725,-2.0883179,-3.5669556,3.4319415,-3.735313,0.15307051
1570715426,1.3521271,19.612701,16.773178,-5.7860107,-2.089386,-5.037018,-3.8760192,12.825225,10.352526
1570715426,1.3521271,19.612701,16.773178,-5.7860107,-2.089386,-5.037018,-3.8760192,12.825225,10.352526
1570715426,-19.612701,19.612701,-19.567215,-3.0472107,-4.6279144,-4.864456,-5.162291,13.889091,-23.301945
1570715426,-19.612701,19.612701,-16.459534,-3.2410889,-5.6942444,-4.876175,-15.286247,14.002296,-23.430231
1570715426,13.467987,-19.612701,-7.387314,-3.0557404,-6.868164,-0.83561707,16.852737,-22.817833,-10.600056
1570715426,6.218933,-19.612701,-0.14604187,1.2234344,-6.5294037,-0.25930786,6.364046,-23.687525,-3.3105888
1570715426,11.855484,-10.502167,0.8738861,4.4394684,2.068344,1.2245941,12.104755,-14.948188,-4.0553675
1570715426,10.187332,-4.4214935,-4.96019,4.211502,7.4724274,1.2309875,10.987388,-10.740452,-6.33769
1570715426,10.411179,-3.5093079,-5.870575,4.063431,7.37442,1.3215332,10.620384,-10.132478,-8.342729
1570715426,7.5908203,13.050201,13.411713,2.2823029,5.695572,-0.6907501,12.094956,11.304398,13.777243
1570715426,-0.22206116,19.612701,-19.612701,0.75790405,11.748398,0.97106934,4.5858297,12.581701,-20.162031
1570715426,10.723633,17.74881,-8.005615,-0.5363922,8.104126,4.0337067,12.582909,13.111649,-12.234422
1570715426,1.3341675,19.612701,-19.612701,-3.799286,-5.0923615,2.734085,6.3166056,6.734779,-21.472553
1570715426,1.3341675,19.612701,-19.612701,-3.799286,-5.0923615,2.734085,3.5509279,11.072527,-21.585787
1570715426,-11.665146,19.612701,19.612701,15.34671,-4.1368256,3.7247772,-17.745497,12.804785,18.759851
1570715426,-3.6984406,-3.32016,9.850937,2.9832458,-1.4960327,2.5529785,-4.071168,-7.2284985,7.3109713
1570715426,-3.6984406,-3.32016,9.850937,2.9832458,-1.4960327,2.5529785,-4.071168,-7.2284985,7.3109713
1570715426,-11.718414,9.761765,0.15023804,-1.4663544,-1.8901825,-0.60339355,-14.19275,2.4907665,0.12723267
1570715426,-10.921753,10.065231,1.5029602,-1.4535828,-2.232132,-0.70458984,-14.19275,2.4907665,0.12723267
1570715426,-6.4823,7.2250977,1.977005,-2.7276306,-0.9112091,-1.9179382,-8.611988,0.8336668,5.474082
1570715426,1.4395142,2.0536194,1.853714,-4.1753235,-1.8635559,-3.0247345,0.6114782,-3.642088,0.4019981
1570715426,4.201233,3.7409363,-4.8446655,-4.323395,-2.04039,-2.5890503,4.1769986,-5.13657,-1.5139196
1570715426,0.1257019,19.58995,-3.6691132,-5.2224884,-3.458252,-3.2995758,4.389894,12.5851345,-0.5555688
1570715426,3.5589752,19.612701,10.320206,-4.6823883,1.0787048,-5.9691315,4.380675,13.760729,9.738295
1570715426,3.3069916,19.612701,8.26059,-4.4118195,0.93063354,-6.0948334,4.380675,13.760729,9.738295
1570715427,-11.912949,12.353485,-5.9627533,-2.224823,-4.9847717,-3.9920044,-16.05527,14.613149,-22.38313
1570715427,-11.912949,12.353485,-5.9627533,-2.224823,-4.9847717,-3.9920044,-16.05527,14.613149,-22.38313
1570715427,10.077789,-19.50856,3.1100616,0.87402344,-6.7765503,-0.5693054,11.480228,-23.723665,-3.2213311
1570715427,7.249649,-13.498505,-0.05986023,3.177124,-3.7543945,2.019287,8.372633,-18.775078,-7.172264
1570715427,8.97406,-10.755356,1.3377533,3.334793,1.3258514,2.842743,8.593651,-16.379349,-3.325961
1570715427,10.899597,0.47465515,-3.5954895,2.5464935,6.908905,1.9436493,12.823878,-5.067596,-7.3443956
1570715427,9.117126,0.19692993,-0.48483276,2.4175873,1.5953674,1.9319305,10.083609,-5.7146206,-5.0659657
1570715427,16.93718,19.612701,19.612701,0.7429962,1.9085541,1.6741333,14.925722,13.951597,16.330017
1570715427,17.696136,19.612701,-15.725708,-1.5601044,14.917557,4.581253,6.6157546,13.814999,-22.439877
1570715427,15.653885,5.221756,-19.598938,-0.77500916,11.041061,2.7884064,21.133896,9.189663,-20.491924
1570715427,2.323578,-2.0572205,-17.795502,-1.4759521,2.1748657,3.5383606,5.440845,-8.616098,-20.37587
1570715427,2.7455444,19.612701,-19.612701,1.7805634,-13.72847,6.063034,-1.8256491,13.632347,-21.9727
1570715427,-18.597565,19.612701,19.609116,19.911362,-9.638916,1.3758698,-15.670949,13.249048,19.081774
1570715427,0.24720764,8.667603,-10.406998,4.131607,-1.1082764,2.5838776,-6.177252,9.658619,5.3025303
1570715427,-18.133682,7.013809,3.2381592,-0.5651398,-0.030227661,1.8381958,-19.834894,-0.48080254,5.73901
1570715427,-18.133682,7.013809,3.2381592,-0.5651398,-0.030227661,1.8381958,-19.834894,-0.48080254,5.73901
1570715427,-4.356842,6.0220184,2.834732,-3.1516113,-0.6598053,-2.665741,-6.465213,0.66320753,4.2516756
1570715427,-4.356842,6.0220184,2.834732,-3.1516113,-0.6598053,-2.665741,-6.465213,0.66320753,4.2516756
1570715427,5.479126,2.4923706,3.573349,-4.227524,-0.27523804,-2.903305,3.7287016,-4.0566936,4.8880177
1570715427,6.4535675,19.612701,-10.90918,-5.983078,-2.0286713,-3.0833282,7.061447,10.683126,-8.613172
1570715427,-0.17059326,19.612701,14.780609,-5.3673553,-7.347534,-4.3893433,-4.7209997,13.3248005,3.3543038
1570715427,4.028839,19.612701,-4.4101257,-2.5231018,3.2901917,-6.597641,7.516706,14.295973,-1.5333142
1570715427,4.028839,19.612701,-4.4101257,-2.5231018,3.2901917,-6.597641,7.516706,14.295973,-1.5333142
1570715427,16.545135,-17.80568,-6.7648163,-2.0916748,-7.377365,-2.4186096,17.207514,-15.969225,-16.984474
1570715427,16.545135,-17.80568,-6.7648163,-2.0916748,-7.377365,-2.4186096,17.207514,-15.969225,-16.984474
1570715427,9.196732,-10.59375,2.5779572,2.7563477,0.5194397,2.1023712,9.764728,-15.204521,-2.7504401
1570715427,9.196732,-10.59375,2.5779572,2.7563477,0.5194397,2.1023712,9.764728,-15.204521,-2.7504401
1570715427,8.666412,-1.3066406,1.5568237,3.2911072,5.350418,1.0509644,9.347049,-5.7567134,-2.2233138
1570715427,8.666412,-1.3066406,1.5568237,3.2911072,5.350418,1.0509644,9.920096,-6.115859,-1.8458769
1570715427,3.7487183,1.9650421,0.22146606,4.2082977,-1.0646057,0.72180176,7.1867404,-4.245697,-2.9316783
1570715427,12.576141,19.612701,-19.612106,-2.126831,12.722046,2.8842773,13.485821,13.915952,-21.34629
1570715427,12.576141,19.612701,-19.612106,-2.126831,12.722046,2.8842773,13.485821,13.915952,-21.34629
1570715427,6.981491,18.713684,0.7182617,2.077774,-2.744522,4.2680664,9.3770895,13.640997,-2.7930393
1570715428,-1.3748779,19.612701,-19.589355,0.9379425,-1.421463,2.27388,1.5822788,9.646189,-20.47324
1570715428,-1.3748779,19.612701,-19.589355,0.9379425,-1.421463,2.27388,1.5822788,9.646189,-20.47324
1570715428,-19.5708,13.733139,-2.300232,15.503296,0.4736328,0.7185974,-19.352242,13.310887,10.128155
1570715428,-8.40065,10.397415,12.955032,-0.19869995,1.209732,2.4208984,-6.989503,1.1852012,13.886227
1570715428,-8.40065,10.397415,12.955032,-0.19869995,1.209732,2.4208984,-6.989503,1.1852012,13.886227
1570715428,-13.446442,6.0531464,-2.5504303,-2.2812805,1.8467712,0.3968811,-16.000072,1.789845,0.85649383
1570715428,-5.6664734,1.7190399,2.4833832,-3.0131226,-0.35406494,-0.8132477,-8.325684,-4.996007,6.9763093
1570715428,-5.6664734,1.7190399,2.4833832,-3.0131226,-0.35406494,-0.8132477,-8.325684,-4.996007,6.9763093
1570715428,1.2785034,6.3655853,-5.495285,-5.437668,-2.0446472,-2.5975647,1.4293158,-1.5303016,-4.703554
1570715428,1.2785034,6.3655853,-5.495285,-5.437668,-2.0446472,-2.5975647,1.4293158,-1.5303016,-4.703554
1570715428,6.775589,19.612701,19.355331,-7.433975,-0.97618103,-5.328903,6.6213202,13.785063,12.737923
1570715428,6.775589,19.612701,19.355331,-7.433975,-0.97618103,-5.328903,6.6213202,13.785063,12.737923
1570715428,-11.1474,17.37413,-12.686874,-2.9982147,-4.2199097,-2.4590912,-13.084862,14.875639,-3.566389
1570715428,-11.1474,17.37413,-12.686874,-2.9982147,-4.2199097,-2.4590912,-13.084862,14.875639,-3.566389
1570715428,11.161163,-5.727524,-14.374786,-4.140167,-5.9999695,-1.456665,8.349663,-8.222569,-23.513496
1570715428,9.415802,-14.347855,3.248932,4.1081696,0.6131897,1.8318024,8.077025,-17.863733,-1.9042697
1570715428,9.415802,-14.347855,3.248932,4.1081696,0.6131897,1.8318024,8.077025,-17.863733,-1.9042697
1570715428,8.495224,0.5853882,-3.0053253,2.6476898,8.177628,1.7785339,9.778532,-5.031377,-9.14186
1570715428,8.495224,0.5853882,-3.0053253,2.6476898,8.177628,1.7785339,9.778532,-5.031377,-9.14186
1570715428,10.905594,19.612701,19.612701,3.4892426,-0.6352997,1.6986389,8.254383,5.4312305,3.2722223
1570715428,19.612701,19.6109,19.178757,2.1608582,1.63797,0.7090149,16.305786,14.305059,16.94269
1570715428,13.069946,19.612701,-9.799469,-1.0146942,12.678375,5.171402,8.975537,14.146704,-13.307919
1570715428,2.644394,-0.37709045,-19.612701,-1.2149658,2.5668793,3.3998718,4.570517,-6.102189,-21.316385
1570715428,-2.0051422,19.586365,-19.612701,-0.9955139,-7.9099884,5.1309204,-2.2329762,6.146395,-21.405174
1570715428,-5.3534393,14.292786,15.708359,2.476181,1.8126831,0.48423767,-1.818819,11.948055,20.79839
1570715428,-1.051651,14.422073,-6.661865,3.6011047,1.9884491,1.2938385,-1.818819,11.948055,20.79839
1570715428,-14.797363,7.088028,-0.83976746,-1.6549072,1.5367737,1.1404419,-17.340197,0.36301708,3.5973587
1570715428,-14.797363,7.088028,-0.83976746,-1.6549072,1.5367737,1.1404419,-17.340197,0.36301708,3.5973587
1570715428,-4.3041687,4.9188843,-2.3726501,-2.8330994,0.18708801,-1.6505432,-6.482788,-0.14727068,0.37187207
1570715428,-4.3041687,4.9188843,-2.3726501,-2.8330994,0.18708801,-1.6505432,-6.482788,-0.14727068,0.37187207
1570715428,-2.3546906,0.41059875,-0.3244171,-3.8813171,-1.5503693,-1.9999542,-3.9564471,-4.9150915,-0.768006
1570715428,0.20170593,2.5127106,-7.835617,-5.140457,-1.8944397,-2.202362,-1.1125634,-5.3129077,-4.854488
1570715428,2.451065,19.612701,11.227005,-5.902115,-2.8318787,-6.3845825,2.4017723,14.014355,9.104038
1570715428,2.451065,19.612701,11.227005,-5.902115,-2.8318787,-6.3845825,2.4017723,14.014355,9.104038
1570715429,-15.2486725,14.419083,-19.612701,-3.6054077,-4.353073,-3.825821,-9.2755375,13.565408,-22.77056
1570715429,-15.2486725,14.419083,-19.612701,-3.6054077,-4.353073,-3.825821,-9.2755375,13.565408,-22.77056
1570715429,11.261719,-11.429321,-8.531143,-2.7318878,-6.502777,-1.8870392,10.973272,-12.884944,-11.59114
1570715429,8.614929,-11.087555,-3.5901031,2.9150696,-5.4236603,1.8179474,10.96356,-17.36654,-10.586202
1570715429,8.614929,-11.087555,-3.5901031,2.9150696,-5.4236603,1.8179474,9.094199,-15.368587,-9.17277
1570715429,15.200195,-7.0299683,1.2168579,3.0215912,5.303543,2.3591003,13.918512,-12.360486,-2.7636046
1570715429,13.456604,7.084442,7.9481506,3.9355927,1.5634003,1.0040894,13.104095,-0.2705617,1.332715
1570715429,13.456604,7.084442,7.9481506,3.9355927,1.5634003,1.0040894,13.104095,-0.2705617,1.332715
1570715429,10.539871,19.612701,-7.720703,-1.9798126,11.143326,3.3753662,9.907128,14.348406,-12.500164
1570715429,10.539871,19.612701,-7.720703,-1.9798126,11.143326,3.3753662,9.907128,14.348406,-12.500164
1570715429,6.569092,-1.4844055,-19.612701,0.22102356,3.725891,3.0238342,13.1322775,-4.0560775,-20.599457
1570715429,6.569092,-1.4844055,-19.612701,0.3115692,2.0779266,3.0707092,10.998385,-4.9242005,-21.166946
1570715429,-19.612701,19.612701,19.612701,22.646973,-6.295044,1.5750732,-10.275871,14.110811,19.964201
1570715429,-15.404892,19.612701,19.612701,20.830688,-0.37963867,1.2064972,-19.708899,14.174343,20.554546
1570715429,-9.566635,7.9954376,10.481216,-0.17633057,0.30426025,2.8075867,-7.727785,-4.629904,9.341654
1570715429,-11.36528,8.414429,11.367676,-0.62161255,0.6696472,2.7127686,-10.379282,2.0504713,11.465806
1570715429,-6.4972687,2.4205322,7.1257477,-1.4514465,-3.1344147,-0.38500977,-8.266748,-2.0296683,6.2886004
1570715429,-6.4972687,2.4205322,7.1257477,-1.4514465,-3.1344147,-0.38500977,-8.266748,-2.0296683,6.2886004
1570715429,1.6226654,1.2994537,2.6497803,-4.7782745,-0.14953613,-2.7041016,-0.13118851,-4.3733153,2.8942084
1570715429,1.6226654,1.2994537,2.6497803,-4.7782745,-0.14953613,-2.7041016,-0.13118851,-4.3733153,2.8942084
1570715429,2.1853027,19.612701,10.462067,-5.220352,-5.9371185,-4.786682,-5.0894127,14.223293,0.73333526
1570715429,2.1853027,19.612701,10.462067,-5.220352,-5.9371185,-4.786682,-5.0894127,14.223293,0.73333526
1570715429,-0.31124878,19.612701,-10.801437,-2.7116547,1.2981567,-3.9962616,1.5792845,14.956218,-2.2352989
1570715429,-0.31124878,19.612701,-10.801437,-2.7116547,1.2981567,-3.9962616,1.5792845,14.956218,-2.2352989
1570715429,15.644913,-12.243347,-12.710815,-3.4296417,-6.0468445,-2.105423,17.603624,-13.107925,-16.618736
1570715429,15.644913,-12.243347,-12.710815,-3.4296417,-6.0468445,-2.105423,17.603624,-13.107925,-16.618736
1570715429,11.656174,-11.478409,4.732147,3.940918,1.0776367,1.4919739,9.542816,-16.033474,-0.5607786
1570715429,11.656174,-11.478409,4.732147,3.940918,1.0776367,1.4919739,9.542816,-16.033474,-0.5607786
1570715429,11.174942,0.9935913,0.046081543,4.0794067,4.5088654,0.38729858,13.294313,-5.2274218,-5.3556805
1570715429,11.174942,0.9935913,0.046081543,4.0794067,4.5088654,0.38729858,13.294313,-5.2274218,-5.3556805
1570715429,-12.292435,19.533096,-19.612701,1.4183807,10.222946,2.782013,-1.6874131,12.534468,-15.975248
1570715429,-12.292435,19.533096,-19.612701,1.4183807,10.222946,2.782013,-1.6874131,12.534468,-15.975248
1570715430,9.167999,4.0426025,-13.752289,0.63327026,4.8337708,2.9354095,9.13242,-4.177731,-7.255327
1570715430,9.167999,4.0426025,-13.752289,0.63327026,4.8337708,2.9354095,9.13242,-4.177731,-7.255327
1570715430,-14.149139,19.002182,-19.612701,-1.0274658,-7.918518,5.1809845,-9.896266,-2.1337676,-20.939941
1570715430,3.862442,17.310684,18.188751,1.1786957,2.6925812,0.12098694,3.2331557,14.525648,10.9801655
1570715430,3.862442,17.310684,18.188751,1.1786957,2.6925812,0.12098694,3.2331557,14.525648,10.9801655
1570715430,-11.546036,9.287704,11.590927,-0.77394104,1.778595,2.1396637,-7.975171,4.895021,13.15627
1570715430,-17.78772,5.8059387,7.90506,-1.61763,2.8363953,1.4664154,-19.71779,0.1015954,13.307
1570715430,-9.418198,4.0264435,5.245697,-1.076477,-3.9322968,-0.73228455,-11.412968,0.20718527,2.8085356
1570715430,1.4419098,-0.49919128,3.3261414,-4.278656,-1.2265167,-2.746704,-0.85046136,-5.8201494,3.7144141
1570715430,1.4419098,-0.49919128,3.3261414,-4.278656,-1.2265167,-2.746704,-0.85046136,-5.8201494,3.7144141
1570715430,-3.815155,19.612106,-15.247467,-5.2555084,-3.4848785,-4.1869507,4.9584174,14.310606,-5.7516384
1570715430,-5.4539948,19.612701,-4.116226,-5.3034363,-6.3323364,-4.3275604,-5.0643682,14.310965,-12.400932
1570715430,0.056259155,19.612701,3.4775848,-5.0051727,2.6904602,-5.8285217,1.6749337,14.849943,5.126834
1570715430,0.056259155,19.612701,3.4775848,-5.0051727,2.6904602,-5.8285217,1.6749337,14.849943,5.126834
1570715430,18.074432,-12.884399,-11.38562,-4.024063,-6.3014374,-2.328064,20.412624,-14.467859,-15.843327
1570715430,18.074432,-12.884399,-11.38562,-4.024063,-6.3014374,-2.328064,20.412624,-14.467859,-15.843327
1570715430,9.947311,-13.89595,-2.0727844,1.1765594,-5.2521515,1.6581573,11.273341,-18.021343,-7.881649
1570715430,9.695923,-5.8454437,-1.335968,4.277542,7.2082367,1.6347198,10.333507,-10.279132,-3.6076653
1570715430,9.616913,-5.135559,-2.4259186,4.290329,7.3509827,1.6560364,10.333507,-10.279132,-3.6076653
1570715430,12.679092,-1.1953125,-0.97802734,3.7086945,8.131821,1.8105011,13.097186,-5.614622,-4.169747
1570715430,-0.87028503,19.612701,-19.612701,2.2311707,6.0556183,-0.23693848,13.89485,15.091045,-9.650165
1570715430,-0.87028503,19.612701,-19.612701,2.2311707,6.0556183,-0.23693848,13.89485,15.091045,-9.650165
1570715430,-0.88764954,-1.3826447,-15.939392,-0.97528076,4.3693085,3.658722,0.73229486,-7.083139,-12.814342
1570715430,-0.88764954,-1.3826447,-15.939392,-0.97528076,4.3693085,3.658722,0.73229486,-7.083139,-12.814342
1570715430,-6.00885,8.226471,-19.612701,-0.70150757,-8.853821,4.0305023,-2.6337984,2.7996244,-21.206734
1570715430,-0.96965027,17.070053,19.558838,2.0681915,4.4534607,0.5470886,-2.4581366,12.931054,20.292322
1570715430,2.7886505,17.324448,10.673355,2.7563477,5.04895,0.91567993,-2.4581366,12.931054,20.292322
1570715430,-19.481613,8.544312,-2.3151855,-1.61763,2.5999146,1.7604218,-21.229921,3.339693,6.095891
1570715430,-19.481613,8.544312,-2.3151855,-1.61763,2.5999146,1.7604218,-21.229921,3.339693,6.095891
1570715430,-6.5864563,3.20224,2.2158356,-2.3313599,0.16471863,-1.3139191,-9.261385,-1.7701178,5.9090815
1570715430,-6.5864563,3.20224,2.2158356,-2.3313599,0.16471863,-1.3139191,-9.261385,-1.7701178,5.9090815
1570715430,1.3826447,0.26994324,2.7694855,-4.6887817,-1.5141449,-2.5112762,0.08367205,-4.70944,1.6240835
1570715430,1.3826447,0.26994324,2.7694855,-4.6887817,-1.5141449,-2.5112762,0.08367205,-4.70944,1.6240835
1570715431,-18.460495,19.612701,10.038895,-5.3311462,-2.4590302,-4.9528656,-16.703787,14.818352,-3.76631
1570715431,-18.460495,19.612701,10.038895,-5.3311462,-2.4590302,-4.9528656,-16.703787,14.818352,-3.76631
1570715431,3.3141785,19.612701,-2.5252838,-1.4067078,1.2747192,-8.018707,5.6533384,15.375452,-0.47208786
1570715431,-5.123596,14.316132,-18.865112,-2.588089,-7.4018555,-3.5584412,-5.9662066,15.503214,-21.56019
1570715431,-5.123596,14.316132,-18.865112,-2.588089,-7.4018555,-3.5584412,-5.9662066,15.503214,-21.56019
1570715431,14.017456,-12.88858,-4.177887,3.050354,-5.894516,1.1617432,17.717106,-20.159801,-7.3397913
1570715431,12.613846,-12.065582,-5.340866,3.2783203,-5.5664062,1.366272,15.43455,-16.377682,-7.759639
1570715431,12.877808,-4.491516,-0.41299438,4.035736,5.7680054,1.331131,13.834618,-8.410743,-3.277394
1570715431,12.363663,-3.7451324,-0.93673706,4.035736,5.7680054,1.331131,13.834618,-8.410743,-3.277394
1570715431,11.007935,4.7979736,14.38736,4.6184235,2.9429169,1.6144867,10.994237,-2.9424906,10.577122
1570715431,9.421783,10.004776,7.4693146,4.164627,4.615387,1.2139435,11.245398,1.9663258,9.299713
1570715431,7.100601,6.8970947,0.27053833,0.1890564,7.5075836,2.9481964,4.960775,7.3579836,-0.92776513
1570715431,7.100601,6.8970947,0.27053833,0.1890564,7.5075836,2.9481964,4.960775,7.3579836,-0.92776513
1570715431,-10.0346985,4.4532166,-19.612701,0.8303528,-7.093994,3.7119904,-3.741985,-5.031999,-20.843622
1570715431,-10.0346985,4.4532166,-19.612701,0.8303528,-7.093994,3.7119904,-3.741985,-5.031999,-20.843622
1570715431,17.484253,19.612701,15.029602,5.743347,-4.3733215,6.032135,14.152095,14.824402,-7.2927938
1570715431,-4.557358,-5.0188446,3.7092133,0.9901428,0.47895813,2.6936035,-4.451433,-12.205552,-2.0200453
1570715431,-4.557358,-5.0188446,3.7092133,0.9901428,0.47895813,2.6936035,-4.451433,-12.205552,-2.0200453
1570715431,-14.632767,9.737213,3.0759583,-1.0700836,0.85713196,1.9106293,-13.669251,5.082375,7.554059
1570715431,-6.6433105,3.2878418,7.1838074,-0.6237335,-2.5059052,-0.1091156,-9.160235,-0.8620014,7.9601307
1570715431,-3.949829,0.9241638,0.98521423,-2.9630585,-0.8408966,-1.8508148,-5.740008,-3.2910166,1.22628
1570715431,4.857834,5.431839,4.730942,-4.7047577,0.06138611,-4.0410004,5.470446,0.40681124,6.3068457
1570715431,4.857834,5.431839,4.730942,-4.7047577,0.06138611,-4.0410004,5.470446,0.40681124,6.3068457
1570715431,-9.205704,19.612701,19.556442,-3.2038116,-3.6052551,-5.72731,-4.4972587,15.082636,17.580399
1570715431,-9.205704,19.612701,19.556442,-3.2038116,-3.6052551,-5.72731,-4.4972587,15.082636,17.580399
1570715431,-18.0439,19.612701,-11.710632,-3.4221802,-5.8529663,-3.8524475,-9.237832,15.765069,-22.320724
1570715431,-18.0439,19.612701,-11.710632,-3.4221802,-5.8529663,-3.8524475,-9.237832,15.765069,-22.320724
1570715431,11.001358,-19.612701,-1.7944489,0.30517578,-7.343277,-0.8132477,12.379979,-22.639061,-4.4355373
1570715431,11.001358,-19.612701,-1.7944489,0.30517578,-7.343277,-0.8132477,12.379979,-22.639061,-4.4355373
1570715431,9.452911,-11.7860565,-6.862381,2.5763245,-4.2284393,1.8200836,9.6017475,-15.589808,-11.986275
1570715431,10.689514,-1.593338,-0.17118835,3.6202698,7.1059723,1.1383057,13.14438,-5.7786403,-2.6953576
1570715431,9.100357,5.1283875,13.169907,2.6370392,-1.198822,2.1109009,10.671565,0.03444028,7.364873
1570715431,8.298309,5.94899,16.138123,2.728653,-1.2840424,2.191864,10.671565,0.03444028,7.364873
1570715431,19.512741,19.612701,-15.713745,-1.3342743,9.753159,5.073395,19.823887,15.290568,-21.176344
1570715431,19.577393,19.612701,-10.367493,-1.0945892,9.325989,4.8305206,19.823887,15.290568,-21.176344
1570715432,-10.961258,12.543228,-19.612701,-0.9848633,-6.545395,3.3924103,-5.9362082,5.1326942,-21.091974
1570715432,-12.458221,16.806702,-19.612701,-0.35316467,-7.410385,4.1871033,-5.9362082,5.1326942,-21.091974
1570715432,-2.8137817,14.736908,19.612701,0.051635742,-1.6920471,0.19555664,-6.9400845,13.494711,5.815048
1570715432,-2.692871,15.057129,19.269135,1.3885498,-0.15486145,0.6344452,-6.9400845,13.494711,5.815048
1570715432,-17.904434,6.2117615,2.222412,-2.1151123,2.9759521,1.4397888,-17.790775,2.4081068,5.4858966
1570715432,-17.904434,6.2117615,2.222412,-2.1151123,2.9759521,1.4397888,-17.790775,2.4081068,5.4858966
1570715432,-8.164825,2.5444336,6.0034637,-1.0722198,-4.5682526,0.03363037,-11.036009,-0.36723137,3.1099179
1570715432,1.3287811,0.6141052,3.1956635,-4.423538,-0.2645874,-2.4633484,-1.7011586,-5.3342676,4.4279356
1570715432,1.3287811,0.6141052,3.1956635,-4.423538,-0.2645874,-2.4633484,-1.7011586,-5.3342676,4.4279356
1570715432,5.260666,8.93277,-1.9153595,-6.105591,-0.9058838,-3.733139,3.7042785,2.8232546,-5.910585
1570715432,-2.347519,19.612701,19.408005,-5.0488434,-2.405777,-7.8205566,-0.65515006,15.049093,16.242577
1570715432,4.1611176,19.612701,11.517899,-4.4767914,2.926941,-8.31485,6.5305085,15.508802,7.3927336
1570715432,-0.058654785,19.612701,-9.263763,-2.5870209,4.9626617,-5.564331,-1.8291533,15.763609,-11.214149
1570715432,19.612701,-19.612701,-4.9081116,-3.3018188,-8.970993,-1.7144623,21.5089,-20.819702,-11.499162
1570715432,19.512741,-19.612701,-7.514206,-3.050415,-9.00296,-1.4364319,21.5089,-20.819702,-11.499162
1570715432,15.137344,-7.735672,2.023697,2.013855,0.30958557,3.1665802,9.630342,-11.1738205,-5.294727
1570715432,17.340607,-7.4926605,2.2948456,2.0980072,1.4440918,3.0866852,14.015013,-10.666031,-2.1988952
1570715432,15.524002,-4.9913177,1.327591,4.225342,6.1696014,0.825119,17.524286,-8.600874,-2.6047745
1570715432,9.989212,7.6201477,13.623001,3.543579,2.8491821,1.2810516,13.437643,1.5998123,13.672678
1570715432,9.989212,7.6201477,13.623001,3.543579,2.8491821,1.2810516,12.602643,3.7871728,13.6358185
1570715432,6.22493,5.47554,-7.3202667,2.3099976,10.838669,1.5484467,7.5376945,-2.394099,-5.1487355
1570715432,9.92038,3.965393,-4.715378,1.090271,7.272156,3.673645,8.915432,-1.4971209,0.040550828
1570715432,9.92038,3.965393,-4.715378,1.090271,7.272156,3.673645,8.915432,-1.4971209,0.040550828
1570715432,-10.408798,19.612701,19.464859,14.129105,-10.392059,5.9170837,-19.122179,15.084461,13.864909
1570715432,-13.635574,19.612701,19.594742,16.466309,-10.182205,5.1149445,-12.042702,15.055732,19.26763
1570715432,0.79367065,-6.605011,1.8638916,2.0021362,-1.1626129,2.5529785,-1.3803248,-9.573278,-2.3764932
1570715432,0.79367065,-6.605011,1.8638916,2.0021362,-1.1626129,2.5529785,-1.3803248,-9.573278,-2.3764932
1570715432,-13.511673,4.434662,-3.794815,-0.86235046,-2.1778107,-0.28274536,-15.632207,1.4911642,-4.685021
1570715432,-9.328415,4.60585,11.683105,-1.0253448,-2.5804749,-1.0113983,-11.288721,-0.03986311,11.14608
1570715432,1.5424652,1.4233551,5.659897,-3.5542755,-0.18789673,-3.271881,-0.14741695,-2.962111,6.51641
1570715432,1.5424652,1.4233551,5.659897,-3.5542755,-0.18789673,-3.271881,-0.14741695,-2.962111,6.51641
1570715432,7.8146667,19.612701,15.087662,-5.1670837,-7.8269043,-5.182968,3.7685108,15.000423,5.183694
1570715432,7.8146667,19.612701,15.087662,-5.1670837,-7.8269043,-5.182968,3.7685108,15.000423,5.183694
1570715433,-3.8283234,19.612701,-0.53630066,-3.1111298,3.612976,-4.1390076,-4.0923634,15.692495,2.1785216
1570715433,-1.8237762,19.612701,-0.53630066,-2.8192444,3.612976,-4.1390076,-2.8478422,15.692495,2.1785216
1570715433,19.612701,-15.59404,-12.616241,-3.2805023,-6.880951,-1.6846313,21.112324,-13.493396,-16.499243
1570715433,19.612701,-15.59404,-12.616241,-3.2805023,-6.880951,-1.6846313,21.112324,-13.493396,-16.499243
1570715433,13.298599,-12.251724,0.26875305,3.1994934,1.5996246,2.6754913,12.292235,-15.983781,-1.3227832
1570715433,13.298599,-12.251724,0.26875305,3.1994934,1.5996246,2.6754913,12.292235,-15.983781,-1.3227832
1570715433,14.559143,-2.7742767,0.99957275,3.3944397,7.339264,2.0618896,14.69259,-6.823293,-2.9238832
1570715433,14.559143,-1.177948,-1.664566,2.9662018,6.2377777,1.5154114,15.168571,-4.6605024,-3.8511767
1570715433,12.716797,5.684433,8.454529,3.3422394,1.6614075,1.9756165,12.720462,-0.18594527,5.615035
1570715433,6.075882,6.472122,-5.577896,3.0066833,10.206955,0.66000366,10.292926,0.37066007,-0.8398087
1570715433,8.095993,19.612701,-15.248077,0.34033203,9.471924,4.084839,4.2274413,15.426593,-20.847097
1570715433,4.3586426,1.4604645,-4.7267456,-0.9390564,7.369095,3.578827,6.0973396,-0.3126235,-5.500399
1570715433,-4.2957916,15.646103,-19.612701,-1.9041901,-5.2319183,4.328781,-5.212429,6.11438,-20.892525
1570715433,7.047928,19.612701,17.68657,1.5110474,3.4957886,-0.35198975,1.9170029,15.168225,16.759758
1570715433,7.047928,19.612701,17.68657,1.5110474,3.4957886,-0.35198975,1.9170029,15.168225,16.759758
1570715433,-13.068146,7.268799,10.446503,-0.1592865,1.0584717,3.0536652,-11.8287325,1.6101222,11.58419
1570715433,-18.4599,7.763794,11.544846,-1.6655579,2.9951172,2.5391388,-17.37873,2.8729005,12.555086
1570715433,-9.038116,1.1432343,8.920197,-0.94651794,-3.4241638,-0.60765076,-10.432013,-3.54888,6.194767
1570715433,1.0863647,4.0138855,5.5288086,-4.1902466,-1.0358429,-3.0385895,-1.240885,-1.4166856,1.763269
1570715433,1.0863647,4.0138855,5.5288086,-4.1902466,-1.0358429,-3.0385895,-1.240885,-1.4166856,1.763269
1570715433,8.742432,8.926178,-9.895828,-4.837921,0.44807434,-1.7528076,8.611528,1.6143684,-7.570854
1570715433,9.221863,19.612701,-3.8157654,-5.8126373,-0.0920105,-2.918213,6.7110085,9.162493,-6.1332273
1570715433,4.9781494,19.612701,17.564468,-5.951126,-2.5964508,-6.40802,-1.3083869,15.2563095,17.092136
1570715433,-9.236832,19.612701,-19.612701,-3.1026,1.7072144,-5.2053375,-6.463134,16.127148,-20.352789
1570715433,-9.236832,19.612701,-19.612701,-3.1026,1.7072144,-5.2053375,-6.463134,16.127148,-20.352789
1570715433,12.757507,-19.612701,-6.025009,-0.776062,-8.022903,-0.7589264,19.102167,-22.155838,-7.7585278
1570715433,12.757507,-19.612701,-6.025009,-0.776062,-8.022903,-0.7589264,19.102167,-22.155838,-7.7585278
1570715433,15.402496,-9.071625,-0.02154541,2.9363708,4.4470825,2.4709625,15.310878,-12.072428,-3.959122
1570715433,15.402496,-9.071625,-0.02154541,2.9363708,4.4470825,2.4709625,15.310878,-12.072428,-3.959122
1570715433,10.568008,-1.2665253,0.26455688,3.8034973,6.7437897,1.3364563,11.515025,-4.725709,-3.5546193
1570715433,5.8879395,9.603149,19.612701,2.8799133,1.4355774,1.9266052,5.8218193,13.300772,17.233147
1570715433,5.8879395,9.603149,19.612701,2.8799133,1.4355774,1.9266052,5.8218193,13.300772,17.233147
1570715433,14.481323,18.97165,-19.612701,2.046875,15.167892,1.8275452,15.36205,6.399803,-10.638787
1570715434,14.047974,13.104065,4.5322266,-0.4181366,7.1038513,3.40094,12.989779,11.570954,0.16934133
1570715434,2.6497803,17.507004,-19.612701,-1.6527863,-3.7224426,2.2270203,6.168005,12.40526,-20.99414
1570715434,2.6497803,17.507004,-19.612701,-1.6527863,-3.7224426,2.2270203,6.168005,12.40526,-20.99414
1570715434,-4.147354,19.612701,19.5307,11.223068,-13.036041,6.030014,-5.5133543,15.224012,18.492416
1570715434,-3.621231,15.828064,17.104782,2.1129303,1.209732,1.2554932,-6.463221,11.710608,20.166088
1570715434,-0.14245605,-1.9297333,6.810898,2.539032,-0.07710266,2.8874817,-1.792909,-6.155049,3.8923278
1570715434,-14.087479,6.1967926,-3.997116,-1.3566437,0.5812378,0.6078186,-16.21332,2.3207307,-0.84910256
1570715434,-11.827362,3.609253,2.7617188,-0.822937,-2.995926,0.09541321,-15.360372,0.62503767,-2.1336508
1570715434,-1.3353729,1.1761475,0.52612305,-4.200897,-1.7453003,-2.4036865,-3.6145992,-2.2805824,-0.905202
1570715434,3.0651703,0.87687683,5.3055573,-4.22966,-1.2531586,-2.9906464,1.694468,-3.6462836,4.725621
1570715434,2.395996,3.4255066,-5.522232,-4.804901,-0.7162628,-2.905426,2.4889073,-3.0041127,-0.6469193
1570715434,-0.9750366,19.612701,19.612701,-3.9867706,-2.8276215,-6.0799255,-1.1258702,15.365929,17.594938
1570715434,-0.9750366,19.612701,19.612701,-3.9867706,-2.8276215,-6.0799255,-1.1258702,15.365929,17.594938
1570715434,-10.647614,14.166489,-19.44571,-2.8064575,-0.3934784,-3.3571014,-5.5984836,11.636268,-22.439041
1570715434,-10.647614,14.166489,-19.44571,-2.8064575,-0.3934784,-3.3571014,-5.5984836,11.636268,-22.439041
1570715434,13.620621,-19.607315,-4.8829803,-1.1425171,-6.4750824,-1.3938141,16.22218,-21.772243,-9.046508
1570715434,13.620621,-19.607315,-4.8829803,-1.1425171,-6.4750824,-1.3938141,16.22218,-21.772243,-9.046508
1570715434,13.493713,-12.467804,-3.6002808,3.067398,4.278763,1.9585724,13.371098,-15.998538,-6.281072
1570715434,15.079285,-7.636902,-4.1760864,3.0833893,5.950165,1.8318024,13.803637,-13.118659,-8.139981
1570715434,3.8528748,-2.4684296,-0.3142395,3.9675598,5.3717194,0.96681213,5.1997595,-5.502577,-2.2809553
1570715434,3.8528748,-2.4684296,-0.3142395,3.9675598,5.3717194,0.96681213,5.1997595,-5.502577,-2.2809553
1570715434,5.4964905,3.7810364,16.54692,2.6466217,2.1897736,2.8278198,4.609194,1.166987,17.46531
1570715434,18.99739,19.612701,-5.1134186,-1.2969818,6.704376,1.6240692,19.69628,15.699632,-21.273901
1570715434,18.99739,19.612701,-5.1134186,-1.2969818,6.704376,1.6240692,19.69628,15.699632,-21.273901
1570715434,-13.423096,10.85231,-19.612701,-2.205658,-2.8308105,2.5039825,-5.9496574,7.0377655,-21.09375
1570715434,5.4809265,19.612701,19.612701,16.438599,-8.902817,4.470459,4.7002892,15.276013,18.687174
1570715434,-9.251801,19.612701,12.545013,15.484131,4.7677155,-0.042007446,-8.704524,15.192873,20.031162
1570715434,2.0266876,6.3949127,-13.901932,3.0024261,1.0105286,2.9737701,-0.6284605,3.7204013,-11.764717
1570715434,-14.879364,5.1457367,-5.4480133,-1.3449249,0.6781769,0.7697296,-17.419313,1.9722157,-3.8390691
1570715434,-14.681839,5.1457367,-5.4480133,-1.3449249,0.6781769,0.7697296,-17.419313,1.9722157,-3.8390691
1570715434,-10.681137,3.7050323,7.0784607,-0.70043945,-2.5634308,-0.7088623,-12.951211,-0.7120881,4.4498167
1570715434,-0.69551086,1.2437897,4.7016144,-3.8046112,-0.95806885,-2.888382,-2.1625252,-2.8376875,4.6852756
1570715434,-0.5919647,1.2443848,4.5681305,-3.8131409,-0.85580444,-2.9608307,-1.6375499,-3.1560845,4.5814347
1570715435,-5.9035034,19.612701,-3.4111328,-4.9721527,-5.9808044,-4.2465973,-7.013814,15.220939,-14.864696
1570715435,-5.9035034,19.612701,-3.4111328,-4.9721527,-5.9808044,-4.2465973,-7.013814,15.220939,-14.864696
1570715435,1.5185242,19.612701,12.82933,-5.661377,-1.9082947,-6.8969727,1.6026385,15.405106,10.013351
1570715435,-0.022750854,19.612701,5.976532,-2.8075256,0.90826416,-5.279907,-1.1672668,15.801034,-0.6532481
1570715435,-15.157089,19.438522,-6.7618256,-2.6317596,-5.8369904,-3.7619019,-17.676804,16.098763,-20.172573
1570715435,19.540283,-18.668182,-7.5567017,-2.2333527,-6.6647034,-1.8721313,18.541761,-17.064985,-15.431562
1570715435,13.722366,-9.848541,0.96006775,2.4399567,-0.5884247,2.0629578,13.144239,-12.983971,-2.8547518
1570715435,13.722366,-9.848541,0.96006775,2.4399567,-0.5884247,2.0629578,13.144239,-12.983971,-2.8547518
1570715435,15.413269,-1.1845245,-2.8838196,3.363556,7.6322174,0.7228546,16.933096,-5.5484314,-3.7037983
1570715435,3.9707794,7.284363,19.081787,1.0647125,-5.0316467,2.8267517,4.3013983,2.982783,1.2218776
1570715435,3.9707794,7.284363,19.081787,1.0647125,-5.0316467,2.8267517,4.3013983,2.982783,1.2218776
1570715435,19.60971,19.612701,-19.612701,-1.4866028,9.090561,2.8640442,20.04344,15.65798,-21.44811
1570715435,19.60971,19.612701,-19.612701,-1.4866028,9.090561,2.8640442,20.04344,15.65798,-21.44811
1570715435,0.04309082,1.1492157,-19.612701,3.1845856,2.1184082,3.2656403,-0.115168005,-6.230134,-13.327863
1570715435,-10.085571,14.121002,-19.612106,0.06442261,-2.5858002,3.7514038,-2.1981204,5.397328,-20.853886
1570715435,6.95755,19.612701,-19.612701,11.326401,7.6844177,0.72499084,-3.248229,15.298236,14.414264
1570715435,6.95755,19.612701,-19.612701,11.326401,7.6844177,0.72499084,-3.248229,15.298236,14.414264
1570715435,-17.899048,7.452545,2.576767,-0.9582367,3.4169617,1.6837311,-18.411058,3.2020593,7.772935
1570715435,-17.793106,7.676407,-0.8918457,-1.123352,3.3509216,1.5047607,-18.411058,3.2020593,7.772935
1570715435,-7.143692,3.8839874,3.5906982,-1.461029,-1.2329102,-1.0699768,-9.469627,-0.6389246,7.354266
1570715435,-7.143692,3.8839874,3.5906982,-1.461029,-1.2329102,-1.0699768,-9.469627,-0.6389246,7.354266
1570715435,0.8421631,0.45669556,2.269699,-4.1263275,-0.77804565,-2.7669525,-0.62108195,-4.219008,3.0553987
1570715435,9.613922,19.612701,2.4289246,-4.9582977,0.1945343,-4.73555,8.96847,10.807257,6.468668
1570715435,9.613922,19.612701,2.4289246,-4.9582977,0.1945343,-4.73555,8.96847,10.807257,6.468668
1570715435,2.7120361,19.612701,14.434647,-3.7066193,0.63449097,-6.3483734,2.5362093,15.525396,13.600922
1570715435,5.701187,19.612701,-1.0761871,-3.178238,0.5929413,-6.4325256,4.7811375,15.676697,-1.9759789
1570715435,-13.990524,12.522278,-19.592346,-2.127884,-3.3218994,-3.6287384,-7.9060936,12.142985,-21.358438
1570715435,-0.8595123,2.6892853,-8.098984,-2.828827,-7.603195,-2.6508331,-9.294971,6.3890285,-16.59879
1570715435,16.01361,-19.612701,-4.178482,-1.3555756,-6.6668243,-0.96025085,18.645884,-22.384344,-6.386297
1570715435,12.573151,-9.554062,0.82958984,2.0159912,1.9596863,2.5540466,11.979226,-13.189499,-3.4895205
1570715435,12.573151,-9.554062,0.82958984,2.0159912,1.9596863,2.5540466,11.979226,-13.189499,-3.4895205
1570715435,12.385208,-2.8227692,4.4771576,2.8500977,4.8476105,2.0235443,13.246655,-7.050477,0.81170774
1570715435,10.503967,1.1635895,-0.74160767,3.3806,3.038803,2.0097046,10.621809,-3.5692954,-3.3632612
1570715435,15.4982605,19.612701,14.757263,3.718277,6.050293,-0.3168335,16.254412,15.788787,17.01279
1570715436,-9.655823,19.612701,-17.602768,-2.3409424,8.325699,0.5119324,-7.6799464,15.835845,-21.425617
1570715436,8.335419,-1.8890228,-19.006973,3.1717987,4.102997,3.9410248,9.926243,-4.831152,-18.452557
1570715436,-4.249115,18.388062,-17.763779,1.9563293,-9.872208,5.151169,0.22064848,6.3078957,-20.586111
1570715436,-6.545746,19.612701,-14.781799,1.9233093,-9.178726,5.5485077,-3.402238,12.6658,-19.295898
1570715436,4.4089203,19.612701,-5.5994415,3.2176056,-3.8023376,7.671585,-8.592628,15.379271,-10.61728
1570715436,1.6819305,19.612701,-8.264191,14.423126,7.453247,0.4118042,-4.522846,15.38627,20.34372
1570715436,-6.130951,0.65122986,0.32681274,-0.39790344,2.6137543,2.034195,-2.764011,-11.453692,1.4697824
1570715436,-18.44194,7.2562256,-6.5924377,-1.7049866,-0.26245117,1.1095581,-17.772173,4.472429,-5.208845
1570715436,-8.131302,1.8770599,0.8056488,-2.0202942,-0.32850647,-0.82922363,-8.535516,-0.0012750626,3.4774725
1570715436,-8.324646,1.1743622,0.17956543,-2.2461395,-0.32957458,-0.9432068,-8.535516,-0.0012750626,3.4774725
1570715436,7.001251,13.603851,-0.21009827,-6.702133,-2.0467834,-4.459656,4.105889,3.9280524,-6.7294917
1570715436,8.689163,18.585587,-0.099365234,-6.729828,-1.9785919,-4.7739105,5.6678405,7.5797133,-1.8393006
1570715436,6.4374084,19.612701,9.80545,-4.7761383,1.1330414,-6.8320007,7.1421638,15.578793,8.89756
1570715436,6.4374084,19.612701,9.80545,-4.7761383,1.1330414,-6.8320007,7.1421638,15.578793,8.89756
1570715436,-2.9556427,19.612701,6.9904633,-3.192093,1.6305237,-5.274582,0.37466896,15.920576,3.3029208
1570715436,11.645996,-11.438904,-9.088394,-2.2749023,-6.417557,-2.6561584,10.77955,-10.6137295,-15.409632
1570715436,11.645996,-11.438904,-9.088394,-2.2749023,-6.417557,-2.6561584,10.77955,-10.6137295,-15.409632
1570715436,11.444885,-11.528076,-0.78889465,2.8458252,-1.388443,2.0736084,10.265045,-15.219516,-4.333849
1570715436,12.326553,-10.946884,-1.1043243,2.8959045,-0.42970276,2.1385956,10.265045,-15.219516,-4.333849
1570715436,16.58284,-1.5400696,-1.5328827,3.06102,8.34169,0.934845,19.430515,-5.639802,-3.0041218
1570715436,5.7101746,-1.3766632,-9.23085,3.9132233,-0.10267639,1.6464386,8.53562,-4.870653,-8.262063
1570715436,7.1694336,1.4850006,8.756195,1.7635193,4.581299,2.6659088,5.7883925,-4.783615,4.605199
1570715436,7.1694336,1.4850006,8.756195,1.7635193,4.581299,2.6659088,7.4625587,-3.6162214,6.026037
1570715436,0.21128845,2.0817566,-5.355835,0.8410034,5.0223236,3.067505,1.1159978,-0.6685531,-8.495462
1570715436,0.41719055,2.3930054,-5.89093,1.0050507,4.6569366,3.194275,1.1159978,-0.6685531,-8.495462
1570715436,-19.612701,19.612701,19.612701,7.159088,-3.5626526,4.0198517,-20.097612,15.430378,10.347155
1570715436,-19.612701,19.612701,19.191315,10.011871,-0.70880127,3.6289062,-20.097612,15.430378,10.347155
1570715436,13.505096,19.552246,-19.612701,7.4499054,14.139923,0.27651978,8.004502,9.773844,19.75845
1570715436,2.8963928,-3.8325195,-1.7339935,1.5483398,-1.1359711,2.2366028,3.6556811,-4.613405,-12.262052
1570715436,-13.67688,6.1878204,7.539337,-0.9571686,0.66218567,1.7849274,-11.3431635,2.633305,8.618704
1570715436,-11.277283,6.6917877,8.280945,-0.9997711,-1.9945831,-0.7354889,-12.786053,2.6729107,9.03299
1570715436,-4.2676697,2.5923157,-0.77812195,-3.78331,-1.8550262,-1.9552155,-5.0278525,-1.1491609,-1.3245994
1570715436,-2.0344696,1.5879517,1.7238312,-4.165741,-1.9924469,-2.092636,-3.2376268,-2.294015,0.7042765
1570715437,3.6822815,8.561661,-5.661087,-6.155655,-3.0950012,-3.0226135,2.7517314,1.5105438,-8.7140045
1570715437,-7.641693,19.612701,-3.3399048,-5.502655,-4.1506805,-4.3914795,-5.4291673,15.415649,-6.006936
1570715437,2.043457,19.612701,8.305481,-3.6949005,1.5410309,-6.2546234,6.730101,16.082132,5.507928
1570715437,2.043457,19.612701,8.305481,-3.6949005,1.5410309,-6.2546234,6.730101,16.082132,5.507928
1570715437,10.7104645,-7.964905,-9.075226,-2.5966034,-5.1988983,-2.1352386,9.845504,-8.117552,-14.293487
1570715437,10.25856,-10.799042,-9.203308,-2.4900818,-5.322464,-2.1064758,9.845504,-8.117552,-14.293487
1570715437,9.513962,-19.612701,-5.699402,0.7291565,-6.766968,0.75161743,12.716985,-22.144749,-8.380147
1570715437,19.519928,-3.633194,3.08313,2.5539398,7.659912,2.1993103,19.722778,-6.580024,0.87339544
1570715437,19.519928,-3.633194,3.08313,2.5539398,7.659912,2.1993103,19.722778,-6.580024,0.87339544
1570715437,19.612701,18.93155,19.612701,5.4312286,2.801239,-0.59806824,19.392057,7.078347,13.751766
1570715437,19.612701,18.93155,19.612701,5.4312286,2.801239,-0.59806824,19.392057,7.078347,13.751766
1570715437,-6.8959045,19.612701,6.7540436,-2.3771667,6.320877,2.1577759,-12.115683,15.980787,0.8360853
1570715437,4.1246185,3.10289,-4.794388,0.3350067,8.643158,3.497879,5.4724145,4.261389,-5.0575547
1570715437,1.7711182,-8.034943,-19.612701,1.8316956,1.2331696,3.4659119,4.1495996,-10.890351,-20.81862
1570715437,0.70988464,8.838791,-19.612701,1.1914673,-5.469467,3.8430176,5.2048883,-0.8778925,-20.490011
1570715437,-6.9198456,19.612701,-1.616684,5.7838287,-1.6057587,0.9934387,-10.107324,15.422684,-5.593152
1570715437,-6.9198456,19.612701,-1.616684,5.7838287,-1.6057587,0.9934387,-10.107324,15.422684,-5.593152
1570715437,-15.817886,10.940308,9.949112,0.1581726,-1.9413147,1.9021149,-14.606212,5.1642375,9.60349
1570715437,-15.817886,10.940308,9.949112,0.1581726,-1.9413147,1.9021149,-14.606212,5.1642375,9.60349
1570715437,-6.1572876,9.018356,0.70928955,-1.0636902,-0.9335785,-0.62789917,-7.806791,5.7966228,2.9505332
1570715437,-5.754471,6.2201385,-0.09277344,-2.0394745,-1.2009583,-1.4406891,-5.468894,2.9526825,0.5729059
1570715437,0.33398438,3.572754,3.9552155,-4.438446,0.113586426,-2.1810455,-1.1773921,-0.64783716,6.634039
1570715437,-11.869247,19.612701,-12.705429,-5.4003754,-4.1378937,-3.2814636,-8.158346,15.273631,-11.464982
1570715437,-6.806717,19.612701,-6.565506,-4.7814636,-6.2066345,-2.5272675,-11.435674,15.308832,-12.118857
1570715437,0.6218872,19.612701,12.655151,-6.599869,0.25099182,-5.328903,3.162281,15.715208,8.877609
1570715437,4.2880096,19.612701,2.3965912,-3.5681305,3.4297485,-3.4732208,2.5724814,16.070993,3.3035269
1570715437,6.3314667,-8.087616,-14.423874,-2.1353455,-3.392212,-2.5517578,6.2892737,-9.43253,-15.252544
1570715437,7.1059875,-8.492233,-12.521072,-2.062912,-3.7341614,-2.297165,7.826835,-10.810066,-18.322039
1570715437,12.7066345,-19.612701,-6.4529724,-0.2935028,-5.2191315,-0.7770386,16.219475,-22.249855,-8.904581
1570715437,7.028778,-15.778992,-2.9861755,2.778717,-4.448944,1.7987823,8.925537,-20.809479,-8.718384
1570715437,8.89386,0.47883606,-2.6258392,2.4783173,5.747757,2.3260803,11.052051,-2.988226,-3.7301457
1570715437,6.8486176,1.0791931,-1.4664459,2.3621979,5.2470856,2.3005219,8.9227705,-2.4509552,-4.907565
1570715437,8.368927,7.1371155,6.5158234,1.7432861,-1.8518372,1.8573608,9.266185,-2.26557,-1.3389423
1570715438,19.612701,19.612106,-19.612701,0.18054199,12.991562,4.326645,9.148607,15.8258,-8.766989
1570715438,19.612701,19.612106,-19.612701,0.18054199,12.991562,4.326645,9.148607,15.8258,-8.766989
1570715438,0.917572,2.7132263,-19.612701,-0.013336182,-1.578064,3.4297028,2.9975984,-1.2083507,-20.738144
1570715438,0.917572,2.7132263,-19.612701,-0.013336182,-1.578064,3.4297028,2.9975984,-1.2083507,-20.738144
1570715438,9.478638,19.612701,7.146698,3.3880463,-1.2329102,7.2060547,-3.6057396,15.421637,-8.298698
1570715438,8.732254,19.600723,-19.612701,7.51062,5.9650726,0.56733704,-12.29442,15.117396,17.670927
1570715438,2.7593231,6.151306,1.8728638,3.3411713,1.3727264,0.95188904,-2.8619146,5.737535,8.75714
1570715438,-9.386475,8.736435,10.84993,-1.5494537,2.163147,2.2461853,-5.5441103,4.0041814,10.570824
1570715438,-9.461884,4.4771576,9.321228,-1.106308,-1.9050903,0.19981384,-11.519024,-1.1073384,10.053288
1570715438,-9.461884,4.4771576,9.321228,-1.106308,-1.9050903,0.19981384,-11.519024,-1.1073384,10.053288
1570715438,-0.47045898,0.10774231,-3.9073334,-4.9540405,-1.052887,-2.4676056,-2.571089,-5.2475142,-0.05849889
1570715438,-0.47045898,0.10774231,-3.9073334,-4.9540405,-1.052887,-2.4676056,-2.571089,-5.2475142,-0.05849889
1570715438,5.1295776,11.586746,3.4027557,-6.285614,-1.2116089,-4.068695,2.913831,3.602487,-5.5776567
1570715438,-1.2150574,19.612701,10.861893,-4.820877,0.44807434,-7.381668,2.5527878,15.908856,11.691158
1570715438,-0.9576874,19.612701,13.204025,-4.3138123,0.6100006,-6.964096,2.5527878,15.908856,11.691158
1570715438,2.8808289,3.6146393,-17.655441,-2.7361603,-6.591202,-3.3954468,0.49723673,4.701311,-8.736225
1570715438,7.1042023,2.09552,-18.581406,-2.9183197,-6.786133,-3.158966,0.49723673,4.701311,-8.736225
1570715438,13.493713,-19.58696,0.34776306,-2.1001892,-8.213593,-1.088089,16.19865,-21.511116,-6.9500213
1570715438,7.4968414,-11.328171,-0.4123993,2.9789886,-4.589569,1.5015717,8.856792,-14.26042,-4.6928487
1570715438,17.160446,-5.708969,-0.16758728,3.7726135,6.175995,1.7114258,17.75047,-9.144718,-3.1070528
1570715438,9.066238,-1.1049194,-4.1802826,3.5957794,3.599121,1.3375244,10.731342,-4.131741,-6.945163
1570715438,9.066238,-1.1049194,-4.1802826,3.5957794,3.599121,1.3375244,10.731342,-4.131741,-6.945163
1570715438,-15.932816,19.589355,-19.50975,0.5746918,11.073013,3.6374207,-7.523521,15.882212,-21.310059
1570715438,-12.396576,19.612701,-19.606125,-0.32546997,11.24559,4.7154694,-7.523521,15.882212,-21.310059
1570715438,18.556854,19.612701,0.23043823,-1.6687622,9.427185,4.485367,15.437526,15.752939,-4.755571
1570715438,11.380234,6.371567,-12.910736,0.50331116,8.076431,3.0280914,9.899084,-0.11830449,-7.4764304
1570715438,-5.2792206,18.065445,-19.612701,-0.48631287,-7.1483307,3.2763062,-0.25412232,8.59046,-20.8607
1570715438,3.0933075,19.612701,-19.235611,2.970459,4.85614,1.0914459,-3.877015,15.371679,-16.089188
1570715438,3.0933075,19.612701,-19.235611,2.970459,4.85614,1.0914459,-3.877015,15.371679,-16.089188
1570715438,-7.102997,8.185181,9.86351,0.0026397705,1.8616791,2.4070435,-3.4008737,5.8664756,10.937496
1570715438,-15.638321,4.720764,-5.9196625,-1.221344,-1.8497009,0.2637329,-17.980478,1.192801,-6.640055
1570715438,-15.638321,4.720764,-5.9196625,-1.221344,-1.8497009,0.2637329,-17.980478,1.192801,-6.640055
1570715438,-5.522827,0.68055725,-0.6039429,-2.624298,-2.8350677,-1.008194,-7.339367,-3.1967835,0.90870076
1570715439,-0.34835815,-1.6914978,4.462799,-4.180649,-0.6608734,-2.570938,-3.5321195,-6.8847203,4.2057257
1570715439,4.6537323,9.959885,6.338043,-4.70903,1.302414,-4.576828,2.2854338,1.7685304,-1.44907
1570715439,-2.020111,19.612701,-5.254074,-4.0134125,-3.5626526,-6.758499,-3.4869921,15.341669,-11.967695
1570715439,1.4897919,19.612701,9.812637,-5.404648,-1.8060303,-6.9268036,3.1352878,15.686642,8.720429
1570715439,0.925354,19.612701,8.642471,-5.333267,-1.6536865,-6.9225464,3.1352878,15.686642,8.720429
1570715439,7.545929,19.612701,-19.612701,-1.6250916,3.5394745,-5.4769745,10.1047535,16.212091,-19.476967
1570715439,15.216949,-19.58995,-6.059723,-1.7593079,-8.331833,-0.72802734,18.762781,-22.18984,-11.16179
1570715439,14.326904,-19.612701,-4.9266663,-1.4716797,-8.569397,-0.55119324,18.762781,-22.18984,-11.16179
1570715439,18.204315,-7.8451996,-0.29927063,2.4878998,3.9868774,2.876831,18.368874,-11.42643,-4.127556
1570715439,18.204315,-7.8451996,-0.29927063,2.4878998,3.9868774,2.876831,18.368874,-11.42643,-4.127556
1570715439,8.4617,-0.73202515,0.73561096,3.2474365,3.3519897,2.288803,9.235082,-3.9515214,-1.8268907
1570715439,8.538925,-0.73202515,0.73561096,3.2474365,3.3519897,2.288803,9.235082,-3.9515214,-1.8268907
1570715439,-2.763504,19.612701,-19.470245,-0.5480957,10.10257,1.873352,-4.4697986,15.914261,-21.347174
1570715439,-2.763504,19.612701,-19.470245,-0.5480957,10.10257,1.873352,-4.4697986,15.914261,-21.347174
1570715439,6.661865,0.96725464,-19.612701,0.5895996,2.1056213,2.9109192,6.569174,-4.2036204,-20.31644
1570715439,6.661865,0.96725464,-19.612701,0.5895996,2.1056213,2.9109192,6.569174,-4.2036204,-20.31644
1570715439,-9.720459,19.612701,19.524109,17.914001,-2.1884613,4.7293243,-10.521909,15.400267,19.04658
1570715439,-9.720459,19.612701,19.524109,17.914001,-2.1884613,4.7293243,-10.521909,15.400267,19.04658
1570715439,3.858261,19.612701,-7.5914154,3.1867218,0.55459595,0.2584076,3.6918933,15.374799,-18.862093
1570715439,-14.787186,5.8651886,1.8441315,-1.8658295,1.9064178,1.8275452,-16.015112,-0.63225746,7.942515
1570715439,-14.777618,6.400894,-0.16041565,-1.793396,1.5825806,1.6464386,-16.015112,-0.63225746,7.942515
1570715439,-7.183197,3.1597443,-2.473816,-2.5827637,-0.60121155,-1.8636017,-8.748136,-0.22771788,0.81328833
1570715439,-7.183197,3.1597443,-2.473816,-2.5827637,-0.60121155,-1.8636017,-8.748136,-0.22771788,0.81328833
1570715439,-0.8134308,0.549469,3.4249115,-4.2711945,-1.515213,-2.9064941,-2.685271,-3.4739585,1.7652278
1570715439,-6.794739,19.611511,-11.016922,-4.1763916,-4.5948944,-4.56192,-7.622574,15.476549,-14.405531
1570715439,-6.794739,19.611511,-11.016922,-4.1763916,-4.5948944,-4.56192,-7.622574,15.476549,-14.405531
1570715439,1.8118134,19.612701,14.98291,-5.9244995,-0.7897644,-6.1661987,4.1735396,15.9129925,12.976171
1570715439,2.8640594,19.612701,-18.793884,-1.8668976,1.9532928,-5.1265106,2.0939345,16.373941,-21.876457
1570715439,-17.143082,19.612701,-19.580978,-2.7819672,-1.7932434,-5.466324,2.0939345,16.373941,-21.876457
1570715439,15.604202,-9.087784,-10.301651,-2.3334808,-5.179718,-2.4313812,14.895368,-7.441738,-13.865915
1570715439,14.690216,-19.56961,-0.39683533,-1.0722198,-6.707306,-1.7528076,18.73559,-22.069016,-4.097252
1570715439,6.9431915,-15.426437,-4.2036133,3.0546265,-3.8630524,2.1652222,6.6676254,-18.016224,-3.4948614
1570715439,16.518799,-7.3741455,-1.7752991,2.6807098,5.249222,2.971634,16.034538,-11.334129,-3.8837276
1570715440,5.7778015,-2.316391,1.7818909,1.980835,3.1751556,1.3449707,6.802803,-4.6863227,-1.5714996
1570715440,5.7778015,-2.316391,1.7818909,1.980835,3.1751556,1.3449707,6.802803,-4.6863227,-1.5714996
1570715440,6.0303955,1.8632812,-5.827484,1.1435394,8.649551,1.0435028,14.53232,8.561691,11.397791
1570715440,-4.36882,19.612701,-19.612701,-1.680481,10.300705,6.478485,-16.30632,16.042475,-21.462296
1570715440,-2.8000183,10.431534,-19.612701,-2.0256195,-3.3229675,1.9937134,1.986273,5.9909906,-21.065836
1570715440,-5.376175,11.413162,-19.612701,-1.9563751,-4.257202,2.1598969,1.986273,5.9909906,-21.065836
1570715440,-4.6070404,19.612701,19.612701,16.519562,-10.976883,5.6081696,-13.869037,15.502849,18.695751
1570715440,6.807907,19.612701,-8.885483,11.750381,6.4828033,0.87731934,-2.3793514,15.40732,19.62133
1570715440,-18.154633,5.9232483,-1.6448212,-2.0384064,4.568512,1.9649506,-16.535473,4.818357,7.430561
1570715440,-18.154633,5.9232483,-1.6448212,-2.0384064,4.568512,1.9649506,-16.535473,4.818357,7.430561
1570715440,-10.167572,0.9361267,8.036133,-0.7110901,-2.2449188,-0.34240723,-12.617359,-2.6288757,5.430566
1570715440,-9.464874,1.9506683,3.643982,-1.3545074,-1.1753845,-0.79940796,-11.113586,-2.4845653,6.3289113
1570715440,-2.8359375,0.51475525,4.5513763,-3.992096,-1.866745,-2.301422,-5.0266933,-3.614081,3.0370374
1570715440,1.5598297,2.8251648,-0.32859802,-4.3787994,-0.18255615,-3.5392609,1.1403416,-0.9392395,2.4891338
1570715440,3.0508118,19.612701,18.158218,-4.1902466,-3.8321533,-7.3688965,4.715855,15.619028,17.894794
1570715440,2.605484,19.612701,16.312302,-4.1604156,-3.5125732,-7.429611,4.715855,15.619028,17.894794
1570715440,0.8092346,19.612701,7.012619,-4.3447113,1.319458,-7.8152313,5.0570235,15.84219,12.131948
1570715440,-0.34117126,5.649124,-17.802689,-3.132431,-7.2218323,-3.1238098,-3.913081,8.561514,-7.4042826
1570715440,15.104416,-19.612701,-3.8337097,-0.83358765,-9.338516,-0.84947205,18.167648,-21.88073,-9.722941
1570715440,15.104416,-19.612701,-3.8337097,-0.83358765,-9.338516,-0.84947205,18.167648,-21.88073,-9.722941
1570715440,17.792511,-10.802032,-2.5210876,2.317459,3.2539825,1.8222198,17.468822,-14.410756,-7.2811193
1570715440,17.792511,-10.802032,-2.5210876,2.317459,3.2539825,1.8222198,17.468822,-14.410756,-7.2811193
1570715440,6.4835052,-3.8552704,2.031479,3.3060303,4.4928894,2.623291,6.891668,-5.924672,-0.84435296
1570715440,6.4835052,-3.8552704,2.031479,3.3060303,4.4928894,2.623291,6.891668,-5.924672,-0.84435296
1570715440,19.612701,19.595337,19.611511,0.0068969727,3.7791595,3.4019928,17.771917,16.249287,17.108345
1570715440,6.779785,-4.091095,-15.044571,1.5036011,8.710266,3.75354,10.830047,-5.8042855,-21.191595
1570715440,4.649536,-4.561554,-14.932632,1.4524689,8.156326,3.8749847,8.562791,-7.7357225,-19.286638
1570715440,-12.122437,19.612701,-8.971069,-1.9872742,-11.137741,6.4081726,-5.336002,15.833193,-20.903488
1570715440,-12.122437,19.612701,-8.971069,-1.9872742,-11.137741,6.4081726,-5.336002,15.833193,-20.903488
1570715440,-7.0964203,19.612701,19.517532,19.83786,-0.90267944,1.1521606,-8.761532,15.54761,19.724138
1570715440,-8.51738,11.452072,11.295242,0.13580322,0.6824341,2.736206,-3.0423408,7.4328156,9.516215
1570715440,-11.040863,11.607086,10.840942,-0.26794434,1.0254517,2.5561829,-8.511218,7.4807,12.165884
1570715440,-15.328278,6.9156494,-4.416107,-0.96035767,-0.58203125,0.67918396,-18.433523,4.0751705,-0.42232162
1570715440,-8.846573,2.9071655,5.527008,-0.57792664,-3.411377,-0.80259705,-11.0146265,-0.70900273,3.1737695
1570715441,3.0119019,1.5921478,5.930435,-3.832306,-0.5713806,-3.2505798,2.1142755,-2.2457004,5.3552804
1570715441,1.6753387,19.036896,-8.8172455,-4.232849,-0.30506897,-3.510498,3.670469,9.031386,-5.104028
1570715441,1.6753387,19.036896,-8.8172455,-4.232849,-0.30506897,-3.510498,3.670469,9.031386,-5.104028
1570715441,0.0077819824,19.612701,8.989029,-6.0906677,-0.050476074,-6.660492,1.4146025,15.879634,7.843204
1570715441,0.0077819824,19.612701,8.989029,-6.0906677,-0.050476074,-6.660492,1.4146025,15.879634,7.843204
1570715441,-7.6913757,8.562866,-1.2084808,-2.1736908,-4.956009,-3.6362,-14.278357,11.41899,-7.12488
1570715441,-7.6913757,8.562866,-1.2084808,-2.1736908,-4.956009,-3.6362,-14.278357,11.41899,-7.12488
1570715441,10.326187,-14.194626,-3.3417053,0.5714874,-7.231415,0.40966797,12.118805,-18.385574,-6.2151155
1570715441,10.326187,-14.194626,-3.3417053,0.5714874,-7.231415,0.40966797,12.118805,-18.385574,-6.2151155
1570715441,19.378067,-10.550644,-1.8578949,3.5627594,5.4665375,2.2770844,19.127565,-12.446738,-3.6556613
1570715441,5.9268494,-0.8625183,0.7876892,4.0442505,3.8281555,0.9146118,7.9510684,-4.0379777,-1.4309652
1570715441,5.9268494,-0.8625183,0.7876892,4.0442505,3.8281555,0.9146118,7.9510684,-4.0379777,-1.4309652
1570715441,6.075882,17.893066,-19.349945,0.5555115,11.9987335,2.1460571,10.570261,4.681117,-15.229609
1570715441,2.4456787,19.612701,-19.612701,0.52674866,11.07196,2.272812,8.7803,11.955893,-19.802822
1570715441,13.498505,10.717041,8.019974,-1.9574432,2.1983032,5.490982,18.433245,15.478239,-0.84172714
1570715441,4.3987427,15.292358,-19.612106,-1.7316132,-0.60014343,1.3353882,9.225957,13.034413,-20.97089
1570715441,4.3987427,15.292358,-19.612106,-1.7316132,-0.60014343,1.3353882,9.225957,13.034413,-20.97089
1570715441,11.910553,19.612701,-19.612701,4.1827393,4.9573364,0.57585144,-5.172579,15.486158,7.735587
1570715441,7.442978,10.004166,-6.084259,3.1994934,0.2179718,0.69303894,6.9365554,10.717085,11.526717
1570715441,2.7856598,-1.9632416,0.754776,3.22081,-2.0552979,1.985199,3.421762,-2.511888,-4.2862
1570715441,-15.519211,7.0856323,-2.0051422,-1.1073608,-0.8909607,0.14335632,-16.348568,3.1535163,-5.2011666
1570715441,-15.519211,7.0856323,-2.0051422,-1.1073608,-0.8909607,0.14335632,-16.348568,3.1535163,-5.2011666
1570715441,-8.601761,7.206543,7.265808,-1.4961853,-0.68536377,-1.0816956,-11.585981,2.5029778,10.565499
1570715441,0.6147156,-1.3299866,4.7058105,-4.198761,-0.767395,-3.4029083,-0.93069845,-5.322264,4.3847837
1570715441,0.6147156,-1.3299866,4.7058105,-4.198761,-0.767395,-3.4029083,-0.93069845,-5.322264,4.3847837
1570715441,3.1992493,5.222946,-4.392166,-5.076538,-0.45420837,-3.4891968,2.2424762,0.37008953,-7.5041904
1570715441,-0.32681274,19.612701,7.3148804,-4.9849243,1.5644684,-6.82135,3.4941506,15.932361,16.732979
1570715441,-0.32681274,19.612701,7.3148804,-4.9849243,1.5644684,-6.82135,3.4941506,15.932361,16.732979
1570715441,-4.1964417,19.612701,-5.585678,-2.8416138,1.4100037,-5.3853607,-0.17718482,16.288334,-3.545146
1570715441,3.7493134,4.1599274,-19.612701,-2.7840881,-4.3125916,-3.2186127,-0.81209874,8.596924,-16.79744
1570715441,16.978485,-19.612701,-1.4568787,-0.7718048,-7.3880157,-0.7450714,17.984243,-21.944775,-6.2631764
1570715441,10.825378,-13.782227,1.3922272,3.1536865,-1.6164093,2.7511292,9.211959,-17.57638,-4.4121966
1570715441,12.803589,-10.45668,-0.55545044,3.509491,3.21669,3.0067902,11.520214,-14.67818,-2.567054
1570715442,8.316254,-0.87927246,-1.960846,3.0695343,4.952011,2.0501862,9.787095,-3.082284,-3.5076427
1570715442,7.8092804,-1.2785034,-2.1619568,3.1238708,4.346939,2.0224762,9.787095,-3.082284,-3.5076427
1570715442,13.292007,19.612701,-19.357117,-0.41174316,11.428818,4.564209,-1.0798222,16.005135,-15.1315155
1570715442,13.292007,19.612701,-19.357117,-0.41174316,11.428818,4.564209,-1.0798222,16.005135,-15.1315155
1570715442,2.7054443,5.063141,-12.2092285,-0.035705566,8.009323,3.3753662,3.1198106,5.531888,-5.7151704
1570715442,-7.886505,11.100113,-19.612701,-2.926834,-2.4196167,2.8267517,-4.7903643,5.7598896,-21.021
1570715442,-13.590088,19.612701,19.60373,17.303604,-6.0809326,3.261383,-19.677853,15.611142,18.588198
1570715442,-13.590088,19.612701,19.60373,17.303604,-6.0809326,3.261383,-19.677853,15.611142,18.588198
1570715442,5.5168457,6.396103,-4.7249603,3.4541016,-1.0102692,1.2714691,6.3026967,8.143385,-2.2048717
1570715442,0.7745209,7.775772,9.608536,0.62368774,0.58335876,2.6978607,4.8308773,-3.7775931,9.754204
1570715442,-13.868408,6.0609283,-5.4743347,-1.9403992,3.6364136,1.2799988,-15.733947,1.3843136,-0.114973724
1570715442,-6.4619446,3.628418,-1.1564026,-2.0618439,-1.2936401,-0.9623871,-8.498023,0.38620758,3.154602
1570715442,-6.4619446,3.628418,-1.1564026,-2.0618439,-1.2936401,-0.9623871,-8.498023,0.38620758,3.154602
1570715442,-1.8279724,-2.0069427,2.534256,-4.2232666,-1.6195984,-2.235382,-2.9073348,-5.770702,2.0782895
1570715442,1.1163025,1.822586,0.9900055,-4.7175446,-0.64276123,-2.7477722,0.30412018,-3.7024484,1.7059274
1570715442,5.859207,15.5060425,6.4733276,-5.811569,-0.42118835,-3.9920044,2.634042,3.201316,-1.1750572
1570715442,-5.4102936,19.612701,17.538132,-4.0475006,-0.32637024,-8.420303,-5.3074675,15.937038,15.607778
1570715442,-7.4304047,19.612701,-19.612701,-1.5515747,0.06564331,-5.037018,-0.70256305,16.611023,-19.909903
1570715442,3.1130676,0.84754944,-11.915344,-1.9680939,-4.447876,-2.903305,-1.6993716,6.0158043,-9.403395
1570715442,11.77948,-18.079819,-6.744461,-1.1755371,-5.8114166,-2.6284637,14.628689,-17.769272,-8.65001
1570715442,9.918579,-14.656113,-3.39917,2.7606049,-4.284897,1.4823914,13.216539,-17.813192,-5.163335
1570715442,9.066849,-13.014877,-2.632431,2.8351746,-0.8728485,2.6680298,8.949777,-16.246336,-5.6960793
1570715442,7.9822693,0.6673889,-0.27772522,2.4655304,4.1455994,1.8190155,10.501273,-2.0192251,-3.051609
1570715442,7.9822693,0.6673889,-0.27772522,2.4655304,4.1455994,1.8190155,10.501273,-2.0192251,-3.051609
1570715442,7.5016327,14.204193,19.612701,2.7233276,-1.4800568,2.1503143,7.7946305,7.077401,11.699124
1570715442,10.702087,19.612701,-14.96376,-1.5526428,8.547272,4.8880463,-2.2907968,16.125772,-21.303415
1570715442,10.702087,19.612701,-14.96376,-1.5526428,8.547272,4.8880463,-2.2907968,16.125772,-21.303415
1570715442,9.852142,6.811508,-19.612701,0.013290405,5.3940887,1.5633545,9.042883,-0.8706608,-17.124193
1570715442,9.852142,6.811508,-19.612701,0.013290405,5.3940887,1.5633545,9.042883,-0.8706608,-17.124193
1570715442,0.91877747,19.612701,3.7738647,4.241333,-8.020782,8.402344,-9.712966,15.723406,-20.624432
1570715442,-6.335663,19.612701,19.606125,18.669266,-9.356628,3.802536,-2.5054476,15.555902,18.964746
1570715442,-5.0338135,2.2726898,-7.4962463,3.1835175,0.9934845,1.6549683,-9.469455,4.6318464,3.254457
1570715442,-15.4857025,5.716751,3.704422,-1.7731628,2.7778015,1.7178192,-13.91212,2.769671,8.537654
1570715442,-15.4857025,5.716751,3.704422,-1.7731628,2.7778015,1.7178192,-13.91212,2.769671,8.537654
1570715443,-11.6675415,2.7724915,2.363083,-1.6399994,-1.5066833,-0.17835999,-12.964719,-0.67251253,0.7972733
1570715443,-2.5396423,-1.6454163,-0.9109955,-3.5649261,-1.5748596,-2.1192627,-3.5532923,-5.2233276,-1.8408792
1570715443,-2.387619,-1.7842712,-0.4632721,-3.6757202,-1.6036224,-2.203415,-3.5532923,-5.2233276,-1.8408792
1570715443,-6.95636,19.612701,-10.274719,-3.9803925,-1.706955,-5.7795105,-3.6258805,15.6673765,-13.0627575
1570715443,-6.95636,19.612701,-10.274719,-3.9803925,-1.706955,-5.7795105,-3.6258805,15.6673765,-13.0627575
1570715443,3.8881836,19.612701,19.612701,-3.369995,-3.0204315,-6.9555664,3.7296882,15.81595,17.105337
1570715443,0.43574524,19.612701,8.535934,-2.7947388,1.4004211,-6.459152,1.5804305,16.124393,5.330889
1570715443,-3.6625366,4.689041,-12.61026,-1.6676941,-6.1693573,-3.2590942,-6.729864,4.055929,-13.206932
1570715443,-3.6625366,4.689041,-12.61026,-1.6676941,-6.1693573,-3.2590942,-6.729864,4.055929,-13.206932
1570715443,15.972916,-15.539566,0.58657837,1.0455322,-6.7030487,0.15614319,16.927664,-19.415133,-3.0075142
1570715443,10.437515,-14.500488,0.53630066,3.0631409,-3.2313538,1.7721405,12.403068,-16.712845,-2.4471178
1570715443,15.058929,0.15802002,-1.9075775,1.6388855,5.8351135,1.8275452,17.001862,-3.408742,-2.8622587
1570715443,14.674667,0.628479,-4.416107,1.5387573,5.4878387,1.7870636,17.001862,-3.408742,-2.8622587
1570715443,8.236649,5.65152,19.612701,1.2756348,-1.402298,1.3694763,8.003667,-0.14613318,8.736708
1570715443,-16.711533,19.612701,-19.612701,-1.2927246,9.619995,4.474716,-14.17233,16.129612,-21.178505
1570715443,-16.711533,19.612701,-19.478622,-1.2927246,9.619995,4.474716,-14.17233,16.129612,-21.178505
1570715443,7.7500305,8.009201,-18.701706,0.6364746,2.8332062,2.6051788,6.9847445,1.8961923,-14.313122
1570715443,8.398254,9.528915,-19.612701,0.26576233,2.194046,2.370819,6.9847445,1.8961923,-14.313122
1570715443,-10.873871,19.60672,-12.331329,-2.0053864,-6.836212,0.8805237,-5.280361,15.7457695,-19.923096
1570715443,3.9276886,19.612701,10.195709,15.458557,5.634842,0.6706543,-8.211497,13.907157,20.108595
1570715443,3.9276886,19.612701,10.195709,15.458557,5.634842,0.6706543,-8.211497,13.907157,20.108595
1570715443,-8.361755,4.376007,7.210739,-1.0413208,1.8499603,2.5806885,-6.4801445,-2.3517466,6.72182
1570715443,-11.674728,2.1942902,6.731903,-1.2373352,-2.7679596,0.6663971,-13.125104,-2.0694566,3.765349
1570715443,-11.20546,2.4869843,7.8493958,-1.0988464,-2.8393402,0.5513458,-13.125104,-2.0694566,3.765349
1570715443,0.91937256,2.13443,1.7058716,-3.912201,-1.7197418,-2.8329926,-1.0052925,-2.5543518,0.6383369
1570715443,0.91937256,2.13443,1.7058716,-3.912201,-1.7197418,-2.8329926,-1.0052925,-2.5543518,0.6383369
1570715443,4.0659485,17.769165,6.0824738,-5.473892,-0.87605286,-3.9600372,2.7175121,6.9119987,2.4098754
1570715443,4.0659485,17.769165,6.0824738,-5.473892,-0.87605286,-3.9600372,2.7175121,6.9119987,2.4098754
1570715443,1.5987244,19.612701,17.327438,-3.6970215,-5.191437,-6.6029663,3.199508,15.828308,9.738436
1570715443,2.8371277,19.612701,9.204514,-3.721527,1.5410309,-6.1246643,4.070804,16.26053,4.4308834
1570715443,6.1028137,19.612701,-13.12442,-1.6900635,4.5269775,-4.22316,8.12469,16.48608,-1.1996655
1570715443,-8.528748,10.946884,-3.8199463,-1.4013824,-4.4851685,-2.7957153,-16.495241,13.2402315,5.490431
1570715443,13.199234,-19.612701,4.5920715,1.5589905,-5.6484375,0.60887146,15.186615,-22.094992,1.5253785
1570715444,13.253708,-6.388336,0.7841034,2.1928253,4.5333557,3.035553,12.035696,-11.208344,-1.4490135
1570715444,13.253708,-6.388336,0.7841034,2.1928253,4.5333557,3.035553,12.035696,-11.208344,-1.4490135
1570715444,10.165176,-1.7292175,-4.9787445,1.6857605,6.976013,2.0001068,11.829216,-5.0378785,-6.238386
1570715444,6.1219788,5.260666,3.067566,2.1363678,-3.427353,1.3407135,8.16909,1.0329599,-1.092058
1570715444,6.1219788,5.260666,3.067566,2.1363678,-3.427353,1.3407135,8.16909,1.0329599,-1.092058
1570715444,3.0071106,2.554016,1.9141693,1.3171692,2.6020355,1.1702728,5.934884,-2.0899243,-1.5451639
1570715444,3.0196838,4.455017,-0.54467773,1.2511292,3.5064545,2.748993,4.7153935,3.400164,-0.54745305
1570715444,3.0196838,4.455017,-0.54467773,1.2511292,3.5064545,2.748993,4.7153935,3.400164,-0.54745305
1570715444,-15.283386,19.584564,-12.445663,-0.4458313,-8.03569,1.8573608,-7.827676,15.069575,-16.904907
1570715444,-8.492233,4.9990997,19.612701,16.144592,7.227417,0.7356415,-9.392178,3.231762,19.37291
1570715444,0.667984,15.155899,19.612701,-0.23704529,-2.0712738,-0.58421326,1.841436,13.17029,12.192939
1570715444,-12.052414,9.668381,9.751587,-1.4077759,2.6233368,2.1961212,-11.875465,4.4675903,12.394243
1570715444,-12.052414,9.668381,9.751587,-1.4077759,2.6233368,2.1961212,-11.875465,4.4675903,12.394243
1570715444,-8.907028,3.4213104,5.3073425,-1.0636902,-2.057434,-0.033477783,-10.920293,-0.9015975,7.4435444
1570715444,-8.4617,3.198059,4.601654,-1.3087006,-1.6238708,-0.21456909,-10.054724,-0.81386185,6.067847
1570715444,3.7253723,2.545044,-9.102158,-5.503708,-1.4459686,-3.5957184,3.3334804,-2.9927602,-9.042879
1570715444,3.7253723,2.545044,-9.102158,-5.503708,-1.4459686,-3.5957184,3.3334804,-2.9927602,-9.042879
1570715444,-10.338165,19.612701,-1.2832947,-4.766556,-3.2260284,-6.500702,-1.8804078,15.44079,-4.8648834
1570715444,-1.3012543,19.612701,16.706741,-2.9982147,-1.4598083,-6.530533,-4.2851615,15.6710005,17.480558
1570715444,-19.612701,11.471817,-19.612701,-2.1183014,-5.670807,-2.6817322,-11.091665,7.4430523,-21.884594
1570715444,-19.612701,11.471817,-19.612701,-2.1183014,-5.670807,-2.6817322,-16.836418,5.0603113,-21.96934
1570715444,-1.4897919,2.3379364,-7.301712,-2.734024,-7.425293,-2.174652,-4.5177517,2.9207067,-14.901886
1570715444,10.227432,-16.456543,-0.24780273,2.1139984,-5.1722565,1.3162079,12.002871,-17.834236,-6.424244
1570715444,10.227432,-16.456543,-0.24780273,2.1139984,-5.1722565,1.3162079,12.002871,-17.834236,-6.424244
1570715444,10.885834,-3.1208344,1.240799,3.2421112,3.722702,1.2938385,11.842738,-7.107057,-2.3454938
1570715444,10.885834,-3.1208344,1.240799,3.2421112,3.722702,1.2938385,11.842738,-7.107057,-2.3454938
1570715444,2.5157013,14.067734,4.0216675,2.1683197,3.2220154,-1.4790344,4.7440968,11.1853895,4.1146517
1570715444,2.5157013,14.067734,4.0216675,2.1683197,3.2220154,-1.4790344,4.7440968,11.1853895,4.1146517
1570715444,5.8532257,8.677185,-1.356308,-1.3928528,8.8349,1.8147583,6.17984,5.6540775,-3.1363146
1570715444,5.8532257,8.677185,-1.356308,-1.3928528,8.8349,1.8147583,6.17984,5.6540775,-3.1363146
1570715444,5.546768,1.7453766,-0.41659546,-1.0359955,7.7611084,1.905304,7.7069883,-1.3233101,-2.5723867
1570715444,5.458786,19.612701,-1.9602509,4.3936615,-9.965958,4.5151978,4.989932,15.542197,-4.709897
1570715444,5.458786,19.612701,-1.9602509,4.3936615,-9.965958,4.5151978,4.989932,15.542197,-4.709897
1570715444,9.870697,19.612701,-5.4096985,4.850662,1.1799164,3.5117188,9.246655,15.295084,-9.632503
1570715445,-5.9190674,10.409988,5.739502,4.755844,-3.3059235,0.83151245,-5.4400167,15.042294,-2.3837519
1570715445,-3.5769348,11.18811,6.7420654,-0.12413025,2.037445,2.1460571,-5.5504894,2.624537,5.7893314
1570715445,-4.3897705,12.37323,6.522995,-0.83358765,1.9756622,1.9468536,-4.770247,7.464739,7.491193
1570715445,-7.7655945,-1.6112976,1.1905212,-0.88471985,-2.8553162,0.29249573,-9.157997,-5.157496,-1.2508025
1570715445,-7.7655945,-1.6112976,1.1905212,-0.88471985,-2.8553162,0.29249573,-9.157997,-5.157496,-1.2508025
1570715445,-6.933014,1.233017,9.780914,-0.52360535,1.0126648,0.05706787,-9.182196,-4.2894535,13.284977
1570715445,1.4365234,-0.9798279,1.6340485,-3.6043396,0.64834595,-2.2108765,-0.39668572,-5.4708905,0.6209841
1570715445,-3.3261414,19.612701,-6.885727,-3.2805023,-2.8563843,-5.4428864,2.7566545,13.538012,-6.682923
1570715445,-5.8202972,19.591751,-7.510605,-3.1974182,-3.2792816,-5.532379,2.7566545,13.538012,-6.682923
1570715445,1.162384,19.612701,12.239761,-1.9084473,-1.9977722,-5.659134,2.1807358,15.384395,11.026563
1570715445,-3.2788544,19.612701,9.008789,-2.9651947,1.5772552,-2.5986328,-4.021766,15.449982,7.9202337
1570715445,15.12178,19.612701,4.7423096,-0.5960388,0.088012695,-2.5911713,16.658241,15.534126,2.2203016
1570715445,-2.221222,9.239227,-7.8960724,-2.4900818,-6.183197,-2.2854462,-16.005947,3.7091906,-8.126619
1570715445,11.632233,-7.922409,2.1631622,-0.45436096,-6.0287323,0.22006226,10.419594,-9.810669,-3.3505468
1570715445,11.632233,-7.922409,2.1631622,-0.45436096,-6.0287323,0.22006226,10.419594,-9.810669,-3.3505468
1570715445,11.142609,-15.345032,1.4855957,1.0348816,-4.2976837,0.2594757,11.493874,-17.238178,0.07781196
1570715445,10.126877,-13.648743,0.54766846,2.204544,2.9929962,1.6762695,8.792344,-19.255247,-1.8900843
1570715445,11.769302,0.013168335,-1.7507629,2.092682,7.37442,1.0935669,13.014869,-4.538123,-2.0199695
1570715445,12.059601,16.961716,10.013153,1.4268951,5.379181,-0.11656189,8.476104,7.3682055,8.056629
1570715445,12.059601,16.961716,10.013153,1.4268951,5.379181,-0.11656189,8.476104,7.3682055,8.056629
1570715445,11.317993,19.612701,-7.1443024,-1.5973816,9.710541,1.7998352,12.645212,15.666369,-12.59147
1570715445,-0.9433136,10.272324,-19.612701,-0.28710938,-5.9690857,2.9034576,1.1821492,4.9173746,-21.201286
1570715445,-0.9433136,10.272324,-19.612701,-0.28710938,-5.9690857,2.9034576,1.1821492,4.9173746,-21.201286
1570715445,-2.1374207,19.612701,-0.041305542,1.7454071,-11.294342,4.0496826,-2.6141064,15.464909,-7.5112343
1570715445,-5.5713043,19.612701,19.612701,10.595627,1.9756622,0.08796692,-3.433916,15.157209,18.979362
1570715445,-1.766922,6.2877655,11.999741,-1.4866028,-2.9053802,-0.38075256,1.1038165,4.767372,7.470469
1570715445,-4.8991394,4.082718,13.351273,-1.2394562,-2.9991302,-0.3839569,1.1038165,4.767372,7.470469
1570715445,0.02633667,7.770981,5.190033,-0.7068329,1.7945709,1.8594971,1.9056115,-2.5970879,0.016748905
1570715445,-7.193985,8.237854,-0.031723022,-2.4506683,3.1613007,1.3194122,-5.373266,4.6490827,4.68823
1570715445,-7.49086,-0.9235687,4.574127,-1.1808624,-0.94955444,-0.9112549,-7.894721,-5.0453877,3.9963741
1570715445,-7.49086,-0.9235687,4.574127,-1.1808624,-0.94955444,-0.9112549,-8.332859,-5.0453877,3.9963741
1570715445,-4.618408,3.4380798,-16.911438,-4.505554,-0.8068085,-2.56987,-4.475418,-2.9288526,-13.434076
1570715445,18.02893,19.612701,8.611938,-2.2493286,-2.8936615,-5.4567413,19.555555,15.094321,-1.3884476
1570715446,11.514313,18.69513,9.755768,-3.0876923,-2.075531,-4.413849,13.576598,14.9593,9.054546
1570715446,-2.9311066,19.612701,7.994232,-1.1819305,-2.4355927,-3.5360718,0.78625673,15.32275,-1.5502877
1570715446,-2.9311066,19.612701,7.994232,-1.1819305,-2.4355927,-3.5360718,0.78625673,15.32275,-1.5502877
1570715446,-4.992508,19.390045,-19.612701,2.09375,3.518158,-3.6351318,3.6102002,15.164894,-7.0966763
1570715446,-8.834,8.134903,-3.945053,-0.7654114,-2.7818146,-3.1930542,-9.393032,5.279314,-3.4450364
1570715446,9.957489,-10.351929,-6.664261,-1.172348,-6.3951874,0.04109192,13.248191,-11.311972,-9.029577
1570715446,6.526596,-13.469772,3.6475677,0.22528076,-4.2614594,0.70581055,8.020248,-16.176897,0.10090208
1570715446,6.8204803,-16.914444,-2.039856,0.691864,-3.0822144,0.885849,6.867945,-20.213917,-3.5880945
1570715446,8.704117,-10.815811,4.779419,1.2063904,-1.9871216,0.6610718,9.429517,-17.49775,0.30626798
1570715446,7.3035126,-1.10672,5.7053833,1.9861603,0.524765,0.42352295,7.6121373,-7.2682886,3.248515
1570715446,3.1316223,17.41423,19.611511,-0.07192993,1.5016174,-0.1325531,6.186076,10.137412,17.248993
1570715446,-15.089462,19.612701,-4.2634735,-1.2831421,2.7085571,1.3748016,-13.746739,15.561924,-21.300362
1570715446,4.5400085,5.668274,2.1021118,-1.0839233,7.0612335,0.029373169,6.482942,2.8539376,-0.23590279
1570715446,0.1951294,-8.627502,-16.378738,1.8945465,-1.6185455,2.938614,-0.16177386,-12.880263,-18.432762
1570715446,8.841782,19.612701,-19.612701,0.43299866,-4.3626556,3.8259735,8.62891,8.485836,-21.610384
1570715446,-0.046691895,19.612701,-4.015671,1.8444824,-6.690262,4.2584686,-0.7113907,15.338829,-10.072901
1570715446,7.3932953,19.612701,15.643707,4.943329,-7.636215,1.6144867,6.9096107,15.091201,4.942197
1570715446,4.3376923,7.9170227,7.4657135,7.540451,6.953644,-1.4119263,2.2758164,2.5802364,20.130009
1570715446,6.0681,10.298065,7.1927795,0.6385956,8.432236,-1.5621338,7.4051647,6.6731176,4.624537
1570715446,3.3818054,6.40329,12.913132,-0.37660217,-0.4733734,1.5388489,3.5087001,-0.9426799,11.76347
1570715446,-3.0346527,5.167282,0.6476288,-2.3089905,2.6212158,2.032074,-3.0815463,0.5214629,7.142248
1570715446,-6.178238,2.1619568,-1.8728638,-1.4429321,-1.214798,0.97532654,-7.1531796,-1.3021369,-3.5538406
1570715446,-8.598175,1.9656372,-8.24144,-3.627777,3.4276123,-1.3256378,-9.511901,-1.8444905,-4.5918374
1570715446,-8.878891,1.498169,-10.411789,-3.866394,3.0100403,-1.4225769,-9.511901,-1.8444905,-4.5918374
1570715446,-1.7256165,19.612701,13.457809,-5.2927856,-4.23909,-4.9507446,-4.3180885,14.984461,7.8116093
1570715446,-1.7256165,19.612701,13.457809,-5.2927856,-4.23909,-4.9507446,-4.3180885,14.984461,7.8116093
1570715446,-3.8319244,19.612701,2.2182312,-3.830185,-0.67259216,-2.5006256,-4.797216,15.073116,1.9940228
1570715446,19.58397,19.612701,-4.835083,-3.371048,2.2611542,1.2927704,19.177301,15.287821,-1.9822934
1570715446,11.763916,18.930954,-9.891647,-1.8647766,-1.75383,-3.3400574,19.75009,15.38371,-9.120026
1570715446,-14.848846,1.4299316,1.2593536,-2.8373566,-7.4647064,-2.6273956,-13.3875,-0.37346268,-16.175386
1570715446,4.2461243,-4.552582,-0.8529358,-0.8549042,-4.0409546,-1.582367,2.654962,-8.2343445,-4.6426096
1570715446,3.6493683,-10.707474,6.5152283,1.9328918,-1.1263885,-0.92297363,3.790665,-13.89264,4.0874023
1570715446,3.083725,-9.482239,-0.9151764,3.8088226,1.3652649,1.0765228,2.0754886,-14.704323,-2.5161712
1570715447,6.0615234,1.233017,-1.9345093,2.8777924,4.7165833,1.6634827,7.0960827,-3.5958161,-3.575769
1570715447,6.0615234,1.233017,-1.9345093,2.8777924,4.7165833,1.6634827,7.0960827,-3.5958161,-3.575769
1570715447,-3.5230713,2.54982,-0.17897034,-0.87727356,1.479248,0.407547,-4.112846,0.0987277,-0.32688498
1570715447,-3.1908722,1.5658112,-0.93852234,-0.8708801,1.4472961,0.52046204,-4.112846,0.0987277,-0.32688498
1570715447,-2.9813843,19.577393,-16.627731,0.5246124,-2.7178955,2.5220947,-12.469517,14.267107,-9.988982
1570715447,1.6651611,4.147949,7.000046,-2.6360168,6.0694733,-0.60232544,3.7503622,0.8868942,-1.5270748
1570715447,-1.7423859,1.7082672,10.399216,-2.1108398,5.6795807,-0.5458679,3.7503622,0.8868942,-1.5270748
1570715447,0.9834137,19.612701,-1.0773926,6.009659,-7.7139893,1.9638977,-3.0378032,14.682583,-4.2245283
1570715447,0.9834137,19.612701,-1.0773926,6.009659,-7.7139893,1.9638977,-3.0378032,14.682583,-4.2245283
1570715447,11.180923,18.986023,12.788635,2.043686,3.022812,-2.759491,10.908285,14.224203,14.934409
1570715447,11.180923,18.986023,12.788635,2.043686,3.022812,-2.759491,10.908285,14.224203,14.934409
1570715447,-1.498764,-0.7799072,-0.015563965,1.2575226,2.7096252,-0.832428,-1.1790208,-4.6721096,0.7505369
1570715447,-4.2161865,-3.3871918,3.9522247,1.3406067,1.8062897,0.92633057,-4.5345836,-8.366348,2.6861286
1570715447,-1.9333191,6.6265564,-2.4803925,0.1816101,3.101654,0.7004852,-2.7988415,2.9833035,2.502806
1570715447,-4.3514557,2.1619568,2.2014618,-0.9422455,1.542099,-0.57144165,-5.0259514,-2.414608,1.2764432
1570715447,-5.2109833,3.4973297,-1.3497314,-1.6783447,0.027297974,-0.7408142,-9.883507,-3.386917,0.9042314
1570715447,2.3301544,11.464035,-4.0928802,-3.9974365,0.8667145,0.012329102,0.098771274,3.7836628,-3.9602785
1570715447,2.3301544,11.464035,-4.0928802,-3.9974365,0.8667145,0.012329102,0.098771274,3.7836628,-3.9602785
1570715447,7.3077087,19.612701,16.20575,-2.4357452,4.169037,-4.1517944,6.4960914,14.442162,14.0909
1570715447,7.973892,19.612701,16.20575,-2.4357452,4.169037,-4.1517944,6.4960914,14.442162,14.0909
1570715447,7.530365,19.612701,-1.577179,-1.4184265,1.5506287,-4.2348785,10.407623,14.5583935,-4.020114
1570715447,3.2303772,15.4904785,-5.6024323,-0.83891296,0.9285126,-4.001587,8.130195,14.2682495,-4.205406
1570715447,-6.5277863,8.344986,6.1022186,-0.83891296,-3.189804,-1.4332428,-4.4355965,4.512659,5.66543
1570715447,-6.5277863,8.344986,6.1022186,-0.83891296,-3.189804,-1.4332428,-4.4355965,4.512659,5.66543
1570715447,-0.89123535,-8.623917,5.368393,0.6812134,-2.4121552,2.1737518,0.31118327,-12.776111,2.2127435
1570715447,-0.89123535,-8.623917,5.368393,0.6812134,-2.4121552,2.1737518,0.31118327,-12.776111,2.2127435
1570715447,1.7495575,-7.348404,-3.8175507,-0.08151245,0.5130615,2.8352814,1.7874155,-12.9371605,-6.05677
1570715447,5.0355988,0.8355713,-0.11253357,-0.0974884,-0.6139984,1.9180908,4.394421,-4.1645527,-3.0116007
1570715447,5.0355988,0.8355713,-0.11253357,-0.0974884,-0.6139984,1.9180908,4.394421,-4.1645527,-3.0116007
1570715447,0.21847534,3.210617,2.0943298,0.02607727,-2.057434,1.5484467,0.16998583,-2.42695,-1.4973998
1570715447,7.395691,18.607742,4.3652344,3.4988403,0.6866913,0.78463745,6.0632396,12.527487,3.3837528
1570715447,7.395691,18.607742,4.3652344,3.4988403,0.6866913,0.78463745,6.0632396,12.527487,3.3837528
1570715447,5.5928497,14.552551,-8.8016815,2.4772491,3.3711548,2.254715,3.7195015,10.672396,-8.797244
1570715447,10.063431,19.612701,-2.9245148,1.8391571,-3.2718353,2.6009216,7.357134,14.464914,-6.8796115
1570715448,8.428192,19.612701,8.47847,4.0453186,-3.3197632,0.5907593,7.7467775,14.394719,5.4335575
1570715448,3.672104,11.079773,-6.135147,2.8309174,3.1304016,1.7082367,0.76137376,5.656457,-3.7325552
1570715448,3.4524384,10.858307,-6.7462616,2.6530151,2.9226837,1.7753448,1.3751011,5.7323346,-5.1956844
1570715448,1.6705475,6.5625,-2.3523102,3.5457153,5.54216,2.3324738,-0.45287848,0.5333276,4.1071677
1570715448,0.99957275,6.846222,-3.2088318,3.210144,5.0031433,2.2994537,-0.45287848,0.5333276,4.1071677
1570715448,-1.9512787,10.449493,-4.4939117,0.11236572,0.83262634,0.25308228,-4.222232,5.0687346,-2.8177655
1570715448,-0.9349365,7.8086853,2.1912994,-2.6392212,-2.3333282,-3.0066376,-5.6944923,3.440621,-0.78880864
1570715448,-0.1484375,1.617279,1.932724,-4.339386,-1.3341217,-4.020767,-3.1273832,-3.673142,4.075135
1570715448,4.4921265,7.7967224,-6.9431915,-5.358841,-2.2257385,-3.1824036,2.0263982,-0.22969389,-9.314699
1570715448,4.1671143,19.472641,10.070618,-2.6583862,-1.7154846,-1.8135376,6.5509634,13.953312,7.387702
1570715448,7.4579315,18.074432,-7.7308807,-2.1374817,3.182602,-1.5685272,6.4761415,12.665066,-7.9824176
1570715448,7.9355774,18.432953,-1.569397,-2.1161652,2.3122864,-1.3139191,7.0780034,12.376064,-7.8583736
1570715448,6.910858,19.543274,4.0731354,-0.52679443,2.7905884,-2.235382,7.307149,13.47875,0.77410746
1570715448,-0.2962799,12.311584,5.178665,0.031402588,3.0782166,-4.0846863,3.4768796,8.126118,3.2370567
1570715448,-5.517441,5.8969116,2.3355408,0.28492737,2.3431854,-3.3698883,-2.0598392,0.98918676,0.67955136
1570715448,-11.604095,8.759781,7.1383057,0.5288849,1.5026855,-1.9829102,-9.576171,3.2291884,3.8289618
1570715448,-9.222458,3.703827,5.8687897,0.99972534,2.658493,-0.0015258789,-5.597245,0.30832243,3.5178938
1570715448,-4.2089996,-0.833786,10.720032,2.0021362,5.027649,2.0054321,-1.7651658,-4.5662713,8.467971
1570715448,-4.5435944,-6.6516876,3.5841217,2.5145264,6.89505,3.1697693,-2.2269888,-10.892951,6.2172213
1570715448,-6.123169,-5.052368,-3.5913086,0.3296814,5.794632,4.895508,-3.853837,-12.570894,-3.0052433
1570715448,-1.6962891,-2.676117,-12.245743,5.5910187,1.7306519,6.9493256,-2.4242654,-8.576526,-10.1059
1570715448,-1.6962891,-2.676117,-12.245743,5.5910187,1.7306519,6.9493256,-2.4242654,-8.576526,-10.1059
1570715448,7.96611,7.207138,-13.940842,3.8258667,-1.704834,6.2355957,4.5850573,-0.15862894,-11.868911
1570715448,16.281769,12.858063,-12.25592,0.0143585205,-0.3434143,-0.67689514,13.956014,8.124777,-8.966278
1570715448,14.70639,11.595718,-12.676697,0.22528076,-0.607605,-1.6537476,13.608025,7.7069817,-9.403343
1570715448,9.749191,6.5798645,-8.032547,0.6865387,-2.199112,-2.9629517,8.885798,1.3267093,-5.0844574
1570715448,9.749191,6.5798645,-8.032547,0.6865387,-2.199112,-2.9629517,8.885798,1.3267093,-5.0844574
1570715448,4.8763885,1.3706818,-6.4134674,0.020751953,-2.0606232,0.20195007,4.669213,-3.5618758,-2.8944805
1570715448,4.8763885,1.3706818,-6.4134674,0.020751953,-2.0606232,0.20195007,4.669213,-3.5618758,-2.8944805
1570715448,3.8085785,2.6384125,-0.2232666,-0.73664856,-3.5935364,1.7646942,3.6030908,-2.5896564,3.0788188
1570715448,3.6876678,2.660553,0.0029907227,-0.7377167,-3.5978088,1.7657471,3.6030908,-2.5896564,3.0788188
1570715448,4.0180664,2.5133057,2.7252045,-0.4703369,-3.3847504,1.5154114,3.6562216,-2.7473502,5.6856995
1570715448,5.009262,5.8610077,5.6245728,1.4748383,-0.87179565,0.5971527,4.1291,-0.09749985,9.789851
1570715449,5.31633,6.62117,1.1480255,2.107605,1.1341095,-0.0388031,5.6563783,1.5705338,6.2691116
1570715449,2.5204926,5.0852814,7.700943,1.6910858,0.3809662,0.59609985,2.1398091,0.8613229,1.743391
1570715449,11.568787,9.998779,-1.1551971,1.0210266,9.118256,0.009140015,10.032763,9.205769,8.048737
1570715449,11.568787,9.998779,-1.1551971,1.0210266,9.118256,0.009140015,10.032763,9.205769,8.048737
1570715449,12.389389,2.6276398,-6.7061615,2.5315704,4.1179047,0.6727905,9.867506,0.034623146,-2.7209485
1570715449,12.389389,2.6276398,-6.7061615,2.5315704,4.1179047,0.6727905,9.867506,0.034623146,-2.7209485
1570715449,9.2595825,0.15621948,-4.514267,0.4447174,4.708069,2.0128937,4.2881765,-3.3685796,-1.7644792
1570715449,9.280518,0.65541077,-4.8213196,0.46070862,4.6739807,2.0587006,4.2881765,-3.3685796,-1.7644792
1570715449,8.038528,0.7577667,-6.1321564,0.42448425,4.3511963,2.0555115,3.5391645,-2.3151383,-3.486294
1570715449,9.11293,1.1737518,-5.3618164,-0.8687439,3.0505066,1.6230011,3.1116886,-1.2774444,-4.6695175
1570715449,4.651932,0.4447174,-1.7369995,-1.4056396,5.8649445,0.9742584,0.51523924,-1.1921732,-2.2413278
1570715449,3.4207153,-0.16160583,-0.88705444,-1.4013824,6.11528,1.0488281,-1.0264826,-1.5719726,-2.0085273
1570715449,13.309967,1.9740143,5.462967,-0.41281128,3.5863495,1.0222015,6.68278,0.9135983,0.6009338
1570715449,13.309967,1.9740143,5.462967,-0.41281128,3.5863495,1.0222015,6.68278,0.9135983,0.6009338
1570715449,16.112976,0.3615265,4.54599,0.104904175,4.916855,0.1337738,10.006815,-0.79743326,2.1826005
1570715449,13.904327,0.4303589,1.9446869,-0.6706085,3.944275,-1.1381531,9.179828,-1.0054141,-2.0403197
1570715449,12.176315,-0.67277527,4.2718506,-1.1478424,3.5937958,-1.3874359,7.425339,-1.9134583,-0.5791602
1570715449,12.000931,-1.5610199,8.711899,-2.0586548,4.377838,-1.7655945,7.868853,-3.066424,3.2897687
1570715449,11.968018,-1.4239502,9.653427,-1.9286804,4.1488037,-2.3962402,8.248942,-2.7418265,3.5614977
1570715449,10.098145,-2.8437195,11.218033,-1.2138977,3.994339,-3.347519,7.6381707,-3.815332,5.336523
1570715449,2.5318756,-1.1504211,2.708435,-1.7507935,1.0084076,-1.6675873,0.46614683,-3.3124437,-5.5077453
1570715449,3.2986145,0.33638,7.890686,-1.4162903,1.350357,-1.0465393,1.8541793,-0.4539311,1.8459682
1570715449,3.226181,0.14665222,7.6877747,-1.361969,1.2768555,-1.0753021,1.8541793,-0.4539311,1.8459682
1570715449,0.19332886,1.3383636,8.24144,0.5746918,1.0243835,-1.3032684,-0.99024737,-0.04458475,1.7699618
1570715449,0.1257019,1.5346832,8.0941925,0.6215515,1.0382233,-1.2841034,-0.99024737,-0.04458475,1.7699618
1570715449,1.3006439,1.5245056,5.04039,0.10171509,1.7583466,-1.2393646,0.014910758,0.59119725,-1.3697786
1570715449,-0.549469,1.3479309,8.253418,-0.013336182,1.6028137,-1.3011475,-0.8582202,0.45058024,1.4693103
1570715449,-0.5698242,1.2354126,8.221695,0.011154175,1.5804443,-1.3000793,-0.6737834,0.27119386,1.4193873
1570715449,-1.68013,0.22865295,9.637863,0.07400513,0.18069458,-1.058258,-1.266865,-0.36906326,1.8168149
1570715449,-1.68013,0.22865295,9.637863,0.07400513,0.18069458,-1.058258,-1.266865,-0.36906326,1.8168149
1570715449,-2.9550476,2.388214,11.697464,-0.7206726,2.256897,-0.23693848,-1.9132575,1.1569055,4.935476
1570715449,-4.621414,1.3072357,10.030502,-0.89964294,1.6635437,-0.1091156,-2.8989892,0.7107279,3.324698
1570715449,-4.6986237,1.2384033,9.973648,-0.92840576,1.5612793,-0.0899353,-3.1303449,0.5125904,3.2119656
1570715450,-3.5937042,-3.281845,17.92598,-0.42134094,-0.35939026,0.15933228,-1.6318457,-3.312728,11.550666
1570715450,-3.5937042,-3.281845,17.92598,-0.42134094,-0.35939026,0.15933228,-1.6318457,-3.312728,11.550666
1570715450,-2.913147,-2.475006,12.126038,0.050582886,-0.640625,0.6589508,-1.4949819,-2.764895,4.876184
1570715450,-2.913147,-2.475006,12.126038,0.050582886,-0.640625,0.6589508,-1.4949819,-2.764895,4.876184
1570715450,-2.1715393,-1.9536743,10.2447815,-0.26367188,0.18069458,0.87519836,-0.9377378,-2.43959,3.3617725
1570715450,-2.1715393,-1.9536743,10.2447815,-0.26367188,0.18069458,0.87519836,-0.9377378,-2.43959,3.3617725
1570715450,-2.1715393,-1.9536743,10.2447815,-0.26367188,0.18069458,0.87519836,-0.9377378,-2.43959,3.3617725
1570715450,-2.1715393,-1.9536743,10.2447815,-0.26367188,0.18069458,0.87519836,-0.9377378,-2.43959,3.3617725
1570715450,0.95887756,-1.2150574,8.760986,-0.19442749,-0.30081177,1.2086182,1.3241713,-1.9571322,1.5286651
1570715450,1.0301056,-0.25798035,9.519943,0.12513733,-0.07817078,0.87413025,1.7290196,-0.4039025,2.4181542
1570715450,1.0301056,-0.25798035,9.519943,0.12513733,-0.07817078,0.87413025,1.7290196,-0.4039025,2.4181542
1570715450,0.50338745,-0.40760803,9.250595,0.052703857,-0.007858276,0.65574646,1.2497573,-0.5211234,2.0378618
1570715450,0.50338745,-0.40760803,9.250595,0.052703857,-0.007858276,0.65574646,1.2497573,-0.5211234,2.0378618
1570715450,0.50338745,-0.40760803,9.250595,0.052703857,-0.007858276,0.65574646,1.2497573,-0.5211234,2.0378618
1570715450,0.50338745,-0.40760803,9.250595,0.052703857,-0.007858276,0.65574646,1.2497573,-0.5211234,2.0378618
1570715450,1.7046661,-1.2910767,9.645035,1.951004,1.8989563,-1.4247131,2.6121109,-0.79911196,5.0338163
1570715450,1.4915924,-1.5825653,7.323868,1.9084015,1.608139,-1.3778381,2.6121109,-0.79911196,5.0338163
1570715450,1.6909027,-1.459259,13.654129,0.5927887,-1.0731201,-0.8931427,2.2050035,-1.9359553,4.603644
1570715450,1.5682068,-1.5071564,13.645157,0.5597687,-0.68003845,-0.8100586,2.095463,-1.9609424,6.133469
1570715450,1.5682068,-1.5071564,13.645157,0.5597687,-0.68003845,-0.8100586,2.095463,-1.9609424,6.133469
1570715450,1.5682068,-1.5071564,13.645157,0.5597687,-0.68003845,-0.8100586,2.095463,-1.9609424,6.133469
1570715450,1.5682068,-1.5071564,13.645157,0.5597687,-0.68003845,-0.8100586,2.095463,-1.9609424,6.133469
1570715450,0.6093292,-1.0001831,12.9322815,0.040985107,-0.39668274,-0.023895264,1.4097196,-0.9278395,5.942749
1570715450,0.8828583,1.2300262,10.033508,0.82714844,0.048599243,-0.20179749,1.2869339,0.97487605,1.6425586
1570715450,0.8828583,1.2300262,10.033508,0.82714844,0.048599243,-0.20179749,1.2869339,0.97487605,1.6425586
1570715450,1.8554993,1.7178345,12.3433075,0.8718872,0.101867676,-0.23800659,1.2869339,0.97487605,1.6425586
1570715450,1.8554993,1.7178345,12.3433075,0.8718872,0.101867676,-0.23800659,1.2869339,0.97487605,1.6425586
1570715450,1.8554993,1.7178345,12.3433075,0.8718872,0.101867676,-0.23800659,1.2869339,0.97487605,1.6425586
1570715450,-2.2086487,2.379837,6.984482,0.9794922,-0.08029175,-0.24440002,-0.65436625,1.0351919,-0.9917164
1570715450,-1.3263855,1.6945038,9.365524,0.39039612,-0.29760742,0.4629364,0.2173115,0.16654015,1.2527404
1570715450,-1.3263855,1.6945038,9.365524,0.39039612,-0.29760742,0.4629364,0.2173115,0.16654015,1.2527404
1570715450,-1.2048798,2.1643524,10.052658,-0.03251648,0.22117615,0.5747833,0.4320668,0.75008535,2.436492
1570715450,-1.2048798,2.1643524,10.052658,-0.03251648,0.22117615,0.5747833,0.4320668,0.75008535,2.436492
1570715450,-1.2048798,2.1643524,10.052658,-0.03251648,0.22117615,0.5747833,0.4320668,0.75008535,2.436492
1570715451,-3.3883972,2.526474,8.964493,0.44259644,0.035812378,1.0744019,-1.6186131,0.5927448,1.8293252
1570715451,-3.3883972,2.526474,8.964493,0.44259644,0.035812378,1.0744019,-1.6186131,0.5927448,1.8293252
1570715451,-3.2878418,-1.3760681,14.544174,-0.916687,-0.073913574,0.99450684,-1.649616,-2.1610036,6.445559
1570715451,-2.6024933,-1.9614563,14.465759,-0.5449066,0.29042053,0.97106934,-1.0757132,-3.5064783,7.2045193
1570715451,-2.6024933,-1.9614563,14.465759,-0.5449066,0.29042053,0.97106934,-1.0757132,-3.5064783,7.2045193
1570715451,-2.6024933,-1.9614563,14.465759,-0.5449066,0.29042053,0.97106934,-1.0757132,-3.5064783,7.2045193
1570715451,-2.6024933,-1.9614563,14.465759,-0.5449066,0.29042053,0.97106934,-1.0757132,-3.5064783,7.2045193
1570715451,-2.6024933,-1.9614563,14.465759,-0.5449066,0.29042053,0.97106934,-1.0757132,-3.5064783,7.2045193
1570715451,0.16998291,-0.5746155,9.200912,-0.97314453,-0.30506897,0.40859985,2.1750968,-1.1375409,0.7875962
1570715451,0.16998291,-0.5746155,9.200912,-0.97314453,-0.30506897,0.40859985,2.1750968,-1.1375409,0.7875962
1570715451,-0.383667,0.5279236,9.455902,-0.4138794,-0.4329071,0.18702698,1.5965242,-0.53727597,1.9419551
1570715451,-0.383667,0.5279236,9.455902,-0.4138794,-0.4329071,0.18702698,1.5965242,-0.53727597,1.9419551
1570715451,-0.383667,0.5279236,9.455902,-0.4138794,-0.4329071,0.18702698,1.5965242,-0.53727597,1.9419551
1570715451,-0.383667,0.5279236,9.455902,-0.4138794,-0.4329071,0.18702698,1.5965242,-0.53727597,1.9419551
1570715451,-0.383667,0.5279236,9.455902,-0.4138794,-0.4329071,0.18702698,1.5965242,-0.53727597,1.9419551
1570715451,0.6081238,0.9546814,12.330139,0.08039856,-0.4733734,-0.48408508,1.8193574,0.27919734,3.9700022
1570715451,0.6081238,0.9546814,12.330139,0.08039856,-0.4733734,-0.48408508,1.8193574,0.27919734,3.9700022
1570715451,0.20170593,1.0241241,12.831726,0.22207642,-0.45420837,-0.65345764,1.5434607,0.14261186,4.684164
1570715451,0.20170593,1.0241241,12.831726,0.22207642,-0.45420837,-0.65345764,1.5434607,0.14261186,4.684164
1570715451,0.20170593,1.0241241,12.831726,0.22207642,-0.45420837,-0.65345764,1.5434607,0.14261186,4.684164
1570715451,0.20170593,1.0241241,12.831726,0.22207642,-0.45420837,-0.65345764,1.5434607,0.14261186,4.684164
1570715451,0.21308899,-1.885437,14.950592,-0.2935028,-0.1815033,-0.98475647,0.7951659,-2.1985912,6.7551374
1570715451,0.3321991,-1.9470825,12.579727,0.12834167,0.32769775,-0.91978455,0.8046872,-2.4824946,4.5965652
1570715451,0.45788574,-0.9044037,9.400238,0.5011902,0.12742615,-0.8196411,1.0734906,-1.7925731,1.1610165
1570715451,0.66200256,-0.6392517,9.337982,0.55444336,-0.15913391,-0.8111267,1.188496,-1.3872719,0.96355534
1570715451,0.66200256,-0.6392517,9.337982,0.55444336,-0.15913391,-0.8111267,1.188496,-1.3872719,0.96355534
1570715451,0.66200256,-0.6392517,9.337982,0.55444336,-0.15913391,-0.8111267,1.188496,-1.3872719,0.96355534
1570715451,-0.8247986,0.87687683,8.456924,-0.021865845,-0.040878296,-0.4617157,-0.31030285,-0.3393265,-0.20867538
1570715451,-0.8247986,0.87687683,8.456924,-0.021865845,-0.040878296,-0.4617157,-0.31030285,-0.3393265,-0.20867538
1570715451,0.3657074,1.2976532,11.3706665,-0.2189331,0.5652466,-0.51498413,0.98928857,0.3603902,2.683837
1570715451,0.37409973,0.7763214,10.00238,0.083602905,0.6930847,-0.55119324,1.1985495,0.061760783,1.9970036
1570715451,0.19752502,0.9624634,9.387665,0.14752197,0.6089325,-0.58102417,1.3610277,-0.1592325,1.4939966
1570715451,0.19752502,0.9624634,9.387665,0.14752197,0.6089325,-0.58102417,1.3610277,-0.1592325,1.4939966
1570715452,0.19752502,0.9624634,9.387665,0.14752197,0.6089325,-0.58102417,1.3610277,-0.1592325,1.4939966
1570715452,-1.2743073,1.9806061,9.82222,0.69506836,0.109313965,0.31700134,-0.13037771,0.8419256,1.4333687
1570715452,-1.2743073,1.9806061,9.82222,0.69506836,0.109313965,0.31700134,-0.13037771,0.8419256,1.4333687
1570715452,-0.6907196,2.05542,11.401794,0.47987366,0.3479309,0.40115356,0.2669245,0.24299765,4.499408
1570715452,-0.6907196,2.05542,11.401794,0.47987366,0.3479309,0.40115356,0.2669245,0.24299765,4.499408
1570715452,-0.6907196,2.05542,11.401794,0.47987366,0.3479309,0.40115356,0.2669245,0.24299765,4.499408
1570715452,-0.6907196,2.05542,11.401794,0.47987366,0.3479309,0.40115356,0.2669245,0.24299765,4.499408
1570715452,-0.6907196,2.05542,11.401794,0.47987366,0.3479309,0.40115356,0.2669245,0.24299765,4.499408
1570715452,-1.9674377,-0.017959595,10.842743,0.2082367,0.56951904,0.6440277,-0.14098907,-1.3513882,3.0491457
1570715452,-1.9674377,-0.017959595,10.842743,0.2082367,0.56951904,0.6440277,-0.14098907,-1.3513882,3.0491457
1570715452,-2.7922363,-0.18614197,9.781509,0.08999634,0.56951904,0.5140686,-0.6648613,-1.5031166,1.4859133
1570715452,-2.8556824,-0.23283386,9.697113,0.051635742,0.58335876,0.522583,-0.8259983,-1.5878465,1.4112053
1570715452,-2.8556824,-0.23283386,9.697113,0.051635742,0.58335876,0.522583,-0.8259983,-1.5878465,1.4112053
1570715452,-2.8556824,-0.23283386,9.697113,0.051635742,0.58335876,0.522583,-0.8259983,-1.5878465,1.4112053
1570715452,-2.8556824,-0.23283386,9.697113,0.051635742,0.58335876,0.522583,-0.8259983,-1.5878465,1.4112053
1570715452,-1.2150574,1.5101471,7.6835938,-0.033584595,-0.15913391,0.20620728,0.7586154,0.09355664,-0.685997
1570715452,-0.86131287,1.9225464,8.7699585,-0.18058777,-0.12504578,0.12524414,0.9509258,0.59145045,0.17368507
1570715452,-0.96965027,1.8489227,9.510361,-0.14863586,-0.076034546,0.0826416,0.93018603,0.48295462,0.852664
1570715452,-1.0223236,1.845932,9.541489,-0.13052368,-0.06752014,0.07411194,0.87336624,0.50380385,1.0409346
1570715452,-1.0223236,1.845932,9.541489,-0.13052368,-0.06752014,0.07411194,0.87336624,0.50380385,1.0409346
1570715452,-1.0223236,1.845932,9.541489,-0.13052368,-0.06752014,0.07411194,0.87336624,0.50380385,1.0409346
1570715452,-1.0223236,1.845932,9.541489,-0.13052368,-0.06752014,0.07411194,0.87336624,0.50380385,1.0409346
1570715452,-1.0157471,1.9889832,10.529694,-0.18484497,-0.5522156,-0.23054504,0.55435276,0.76592135,1.907238
1570715452,-1.0157471,1.9889832,10.529694,-0.18484497,-0.5522156,-0.23054504,0.55435276,0.76592135,1.907238
1570715452,-0.55784607,1.3401489,12.407349,-0.052749634,-0.7993469,-0.2667694,0.76857543,-0.029259562,3.5515842
1570715452,-0.47584534,1.5957336,12.346298,0.027145386,-0.75460815,-0.28274536,0.68498135,0.22776031,3.83984
1570715452,-0.47584534,1.5957336,12.346298,0.027145386,-0.75460815,-0.28274536,0.68498135,0.22776031,3.83984
1570715452,-0.47584534,1.5957336,12.346298,0.027145386,-0.75460815,-0.28274536,0.68498135,0.22776031,3.83984
1570715452,-0.47584534,1.5957336,12.346298,0.027145386,-0.75460815,-0.28274536,0.68498135,0.22776031,3.83984
1570715452,0.76016235,-0.34117126,11.507736,0.28067017,-0.14846802,-0.5693054,0.79238844,-1.2845206,3.0454845
1570715452,0.3070526,0.1663971,9.521744,0.19119263,0.5439453,-0.6705017,0.56249905,-0.7691331,0.62568283
1570715452,-0.73143005,-0.1777649,9.121307,0.11236572,0.5013428,-0.67689514,-0.22826652,-0.91915464,0.30091763
1570715452,-0.73143005,-0.1777649,9.121307,0.11236572,0.5013428,-0.67689514,-0.22826652,-0.91915464,0.30091763
1570715452,-0.73143005,-0.1777649,9.121307,0.11236572,0.5013428,-0.67689514,-0.22826652,-0.91915464,0.30091763
1570715453,-0.73143005,-0.1777649,9.121307,0.11236572,0.5013428,-0.67689514,-0.22826652,-0.91915464,0.30091763
1570715453,-0.8996277,1.1258698,8.474274,0.14857483,1.4856415,-0.8111267,0.18888444,-0.17771435,-0.23293972
1570715453,-1.9710236,0.6673889,8.146271,-0.19442749,1.4526215,-0.81752014,-0.54636586,-0.36025095,-0.69327736
1570715453,-1.8884277,0.16101074,9.057861,-0.3307953,1.1671295,-0.42869568,-0.19252944,-0.9778545,0.033849716
1570715453,-1.869278,0.38426208,9.458298,-0.2615509,1.0446167,-0.2891388,-0.1534189,-0.80870557,0.37211418
1570715453,-1.869278,0.38426208,9.458298,-0.2615509,1.0446167,-0.2891388,-0.1534189,-0.80870557,0.37211418
1570715453,-1.869278,0.38426208,9.458298,-0.2615509,1.0446167,-0.2891388,-0.1534189,-0.80870557,0.37211418
1570715453,-1.869278,0.38426208,9.458298,-0.2615509,1.0446167,-0.2891388,-0.1534189,-0.80870557,0.37211418
1570715453,-2.2714996,2.2601318,10.47583,0.3115692,0.29574585,0.35960388,-0.23118937,1.0949632,1.9184694
1570715453,-2.3516998,2.407364,10.300461,0.34777832,0.34155273,0.27864075,-0.33987415,1.0049385,1.6313696
1570715453,-2.1230621,2.1733398,10.612305,0.3339386,0.3585968,0.15507507,-0.030752182,0.765635,1.9395084
1570715453,-2.1230621,2.1733398,10.612305,0.3339386,0.3585968,0.15507507,-0.030752182,0.765635,1.9395084
1570715453,-2.1230621,2.1733398,10.612305,0.3339386,0.3585968,0.15507507,-0.030752182,0.765635,1.9395084
1570715453,-2.1230621,2.1733398,10.612305,0.3339386,0.3585968,0.15507507,-0.030752182,0.765635,1.9395084
1570715453,-2.1230621,2.1733398,10.612305,0.3339386,0.3585968,0.15507507,-0.030752182,0.765635,1.9395084
1570715453,-4.5986633,-1.7818909,13.564941,-1.5973816,1.0957489,0.35534668,-1.9054456,-2.228386,4.7007637
1570715453,-3.502121,-2.1122894,12.403763,-0.28071594,0.42037964,0.55773926,-0.60470605,-2.5880337,4.030053
1570715453,-3.04422,-1.6448212,10.471039,0.28067017,0.2137146,0.630188,-0.15387106,-2.292426,2.3507004
1570715453,-3.04422,-1.6448212,10.471039,0.28067017,0.2137146,0.630188,-0.15387106,-2.292426,2.3507004
1570715453,-3.04422,-1.6448212,10.471039,0.28067017,0.2137146,0.630188,-0.15387106,-2.292426,2.3507004
1570715453,-3.04422,-1.6448212,10.471039,0.28067017,0.2137146,0.630188,-0.15387106,-2.292426,2.3507004
1570715453,-2.7257996,-0.2855072,10.49498,0.06335449,-0.36791992,0.77186584,-0.20771909,-1.4065735,1.5454903
1570715453,-2.047638,0.6033325,10.709869,0.031402588,-0.06645203,0.78144836,0.37103772,-0.7049695,1.8947287
1570715453,-1.932724,1.0630188,10.409393,0.007965088,0.44700623,0.6450958,0.7622597,-0.2502675,1.7373247
1570715453,-2.3038177,1.2156525,10.263947,-0.0048217773,0.5801697,0.6120758,0.40283394,-0.1074934,1.5415373
1570715453,-2.3038177,1.2156525,10.263947,-0.0048217773,0.5801697,0.6120758,0.40283394,-0.1074934,1.5415373
1570715453,-2.3038177,1.2156525,10.263947,-0.0048217773,0.5801697,0.6120758,0.40283394,-0.1074934,1.5415373
1570715453,-2.3038177,1.2156525,10.263947,-0.0048217773,0.5801697,0.6120758,0.40283394,-0.1074934,1.5415373
1570715453,-2.3918,2.739563,8.952515,0.20397949,0.21903992,0.19342041,0.7022693,1.1548554,0.37486172
1570715453,-2.3097992,3.7565002,9.513962,-0.08364868,-0.24221802,0.24880981,0.4394369,1.604493,-0.3107643
1570715453,-2.3229675,3.2986145,11.547241,0.08253479,-0.30932617,0.020843506,0.61829543,1.6775976,2.943903
1570715453,-2.3229675,3.2986145,11.547241,0.08253479,-0.30932617,0.020843506,0.61829543,1.6775976,2.943903
1570715453,-2.3229675,3.2986145,11.547241,0.08253479,-0.30932617,0.020843506,0.61829543,1.6775976,2.943903
1570715454,-2.3229675,3.2986145,11.547241,0.08253479,-0.30932617,0.020843506,0.61829543,1.6775976,2.943903
1570715454,-2.3229675,3.2986145,11.547241,0.08253479,-0.30932617,0.020843506,0.61829543,1.6775976,2.943903
1570715454,-0.37348938,1.2832947,12.730576,-0.97740173,-1.2233276,-0.5597229,1.4892266,0.07275021,3.145877
1570715454,-0.11253357,0.16400146,15.925629,-0.85702515,-1.1572876,-0.9442749,1.671506,-0.46986735,6.267503
1570715454,-0.6470337,-0.9032135,16.315292,-0.5299988,-0.8366394,-1.0774384,1.0558274,-1.2899191,6.9967585
1570715454,-0.6470337,-0.9032135,16.315292,-0.5299988,-0.8366394,-1.0774384,1.0558274,-1.2899191,6.9967585
1570715454,-0.6470337,-0.9032135,16.315292,-0.5299988,-0.8366394,-1.0774384,1.0558274,-1.2899191,6.9967585
1570715454,-0.6470337,-0.9032135,16.315292,-0.5299988,-0.8366394,-1.0774384,1.0558274,-1.2899191,6.9967585
1570715454,0.18435669,0.48602295,9.761154,0.48094177,-0.5479431,-0.8516083,0.6495718,-0.84358656,-1.142765
1570715454,-0.5913696,0.065841675,9.949707,0.5278168,-0.30506897,-1.0689087,1.1001713,-1.1699858,0.94625854
1570715454,-1.1390381,0.66978455,9.454102,0.37335205,-0.030227661,-1.0486755,0.5346142,-0.7869048,0.41928196
1570715454,-1.194107,0.8253937,9.314636,0.307312,0.043273926,-1.0337677,0.41713977,-0.5696775,0.243577
1570715454,-1.194107,0.8253937,9.314636,0.307312,0.043273926,-1.0337677,0.41713977,-0.5696775,0.243577
1570715454,-1.194107,0.8253937,9.314636,0.307312,0.043273926,-1.0337677,0.41713977,-0.5696775,0.243577
1570715454,-1.194107,0.8253937,9.314636,0.307312,0.043273926,-1.0337677,0.41713977,-0.5696775,0.243577
1570715454,-1.2689209,2.2996368,8.616135,0.16668701,0.027297974,-0.14427185,0.68180406,0.8599241,-0.52674866
1570715454,-1.2162476,2.293045,9.324814,0.107040405,-0.05366516,-0.04838562,0.6745764,0.8885393,0.0623312
1570715454,-0.6320648,2.554016,9.918579,0.12727356,0.004928589,-0.05052185,1.1779591,1.0217483,0.7208395
1570715454,-0.6320648,2.554016,9.918579,0.12727356,0.004928589,-0.05052185,1.1779591,1.0217483,0.7208395
1570715454,-0.6320648,2.554016,9.918579,0.12727356,0.004928589,-0.05052185,1.1779591,1.0217483,0.7208395
1570715454,-0.6320648,2.554016,9.918579,0.12727356,0.004928589,-0.05052185,1.1779591,1.0217483,0.7208395
1570715454,-0.6320648,2.554016,9.918579,0.12727356,0.004928589,-0.05052185,1.1779591,1.0217483,0.7208395
1570715454,-2.4815826,0.85891724,13.180679,-0.75050354,-0.65341187,-0.7184448,-0.33589578,0.20160621,3.7868643
1570715454,-2.0823517,-0.9044037,15.37616,-0.46714783,-1.4129486,-0.7493286,-0.24375021,-1.5208626,5.672448
1570715454,-2.1242523,-1.2761078,16.74385,-0.0697937,-1.3298492,-0.65452576,-0.3915155,-1.8653201,7.00708
1570715454,-2.1242523,-1.2761078,16.74385,-0.0697937,-1.3298492,-0.65452576,-0.3915155,-1.8653201,7.00708
1570715454,-2.1242523,-1.2761078,16.74385,-0.0697937,-1.3298492,-0.65452576,-0.3915155,-1.8653201,7.00708
1570715454,-2.1242523,-1.2761078,16.74385,-0.0697937,-1.3298492,-0.65452576,-0.3915155,-1.8653201,7.00708
1570715454,-2.4809875,0.42677307,9.304474,1.0338135,0.13168335,0.360672,-0.8244045,-1.0852703,-0.5414734
1570715454,-2.1942902,1.2856903,8.680771,0.738739,-0.5095978,0.12098694,-0.2738266,-0.67205,-1.0212078
1570715454,-2.1380157,0.9636688,11.826752,0.7696228,-0.10800171,-0.117630005,0.0011096001,-1.0931914,2.43637
1570715454,-2.2583313,0.9708557,11.683105,0.82821655,0.047531128,-0.15065002,-0.13184667,-1.1346011,2.6553316
1570715454,-2.2583313,0.9708557,11.683105,0.82821655,0.047531128,-0.15065002,-0.13184667,-1.1346011,2.6553316
1570715455,-2.2583313,0.9708557,11.683105,0.82821655,0.047531128,-0.15065002,-0.13184667,-1.1346011,2.6553316
