time,ax,ay,az,gx,gy,gz,la_x,la_y,la_z,fox,foy,foz
1570715417,0.63275146,11.390717,-11.332764,-0.50857544,-2.5801392,-1.7250977,-1.6088946,1.8049803,-9.43037
1570715417,0.3035431,14.0746155,-6.400711,0.09968567,3.7028046,-4.272461E-4,-1.7591488,4.315235,-5.5285563
1570715417,3.2053223,18.26088,-0.4092102,0.102890015,0.65400696,-0.5415802,1.033613,8.304787,1.0475342
1570715417,4.1151123,19.847046,-2.2192383,0.21047974,2.0633545,-1.0965881,2.2018733,10.036158,-1.0953412
1570715417,1.8873138,19.660294,4.3660126,0.2743988,1.2473602,-0.31575012,0.1525017,9.7036085,5.243813
1570715417,2.7204895,18.904922,0.043289185,2.4368744,-1.322052,1.9255676,0.6864755,9.088515,1.1939383
1570715417,1.2097473,12.401077,-4.24234,-3.8439178,-0.1619873,0.5865326,-0.48643208,3.0432034,-3.6754773
1570715417,-1.5088654,19.436432,15.921631,-0.8558502,-1.1750488,0.40437317,-4.6269875,9.229665,16.341297
1570715417,1.4084625,6.371277,-6.084671,0.60035706,-0.95347595,1.2842865,-1.3340652,-3.34515,-5.2137775
1570715417,0.39213562,3.3258514,-1.3956299,0.7143402,-0.7713165,1.3726959,-2.9975088,-6.446994,-0.14947641
1570715417,5.7790833,4.522949,-3.0787506,0.94018555,0.49954224,-0.3839264,1.4448807,-5.500247,-2.6554766
1570715417,8.471359,11.816895,1.4271393,0.7782593,0.8798523,-1.1967163,5.2392426,1.646903,2.4746218
1570715417,3.6290894,8.089111,-2.3676758,1.1468506,-0.5380249,-0.88139343,0.7142391,2.156972,3.4647632
1570715417,3.0473022,12.187988,-4.7810364,0.87094116,-0.019241333,-1.0134888,0.75742006,1.5401583,-3.1384203
1570715417,-1.5519562,17.266098,1.2727051,1.5409851,-1.6672058,-0.29338074,-2.989479,9.358224,5.031657
1570715417,4.2491913,15.072998,-10.416977,0.40968323,0.5400238,-0.07606506,2.4050517,6.542282,-10.094898
1570715417,6.184906,13.168411,-4.213608,-0.30404663,0.9309845,-0.6672821,1.7142136,5.306033,0.8244884
1570715417,1.1032104,13.251022,-2.2252197,-0.6928711,0.28222656,0.11248779,2.0869572,4.3433332,-1.6177711
1570715417,4.722046,7.3768463,-2.9039764,-0.8420105,-0.76278687,-0.15168762,3.3215814,-2.9937248,-0.28106833
1570715417,1.8573761,10.270233,-3.000946,-0.38926697,0.2651825,-0.29338074,0.22730088,0.20226955,-0.78521156
1570715417,-3.429016,16.977585,8.332016,-1.5003357,1.0652008,-0.5192108,1.1503539,-0.15927887,-3.720248
1570715417,2.7994995,9.709991,-5.7183533,-1.0997925,0.49421692,-0.12931824,1.2235171,-0.741086,-5.135298
1570715417,0.40290833,9.510071,-0.63067627,-0.15704346,0.2811737,-0.0068206787,-1.4992207,-0.7433548,1.6355222
1570715417,2.082428,10.263046,-2.396408,-0.041992188,-0.04373169,-0.25715637,1.0425849,-0.14176178,-0.7345116
1570715417,1.4826813,10.0392,-2.8333435,-0.20391846,-0.494339,-0.7876587,1.598115,-0.385911,-0.88589144
1570715417,0.31910706,10.635345,-0.7084961,-1.1275024,-1.0269775,0.35110474,-2.520185,0.9285288,-2.0970893
1570715417,0.9739227,12.353195,-2.3760529,0.040039062,-0.40911865,-0.078186035,0.31099474,1.7235985,-0.12076855
1570715417,-5.42099,8.499725,-0.59716797,-0.13893127,-0.17475891,0.11248779,-1.4264966,-0.13726139,-0.7644863
1570715417,1.493454,3.9579163,-1.9008026,0.91249084,-6.1035156E-5,0.8922577,-0.17127466,-6.2418633,-0.13638186
1570715417,2.2919312,8.868423,-4.1657257,0.20088196,-0.15345764,0.41609192,0.06641781,-1.3284845,-2.3701544
1570715417,3.4626923,12.591415,-1.6506042,-0.15065002,0.077697754,0.085861206,1.6000619,2.337841,0.025821924
1570715418,1.8729401,8.739151,0.081588745,0.056015015,-0.37503052,-0.1335907,0.034311414,-1.1200838,1.6494054
1570715418,-0.51885986,3.0062256,-2.0396729,0.61528015,-0.008590698,-0.5160217,-2.7029266,-5.9703465,1.0907983
1570715418,1.1546783,2.212555,-4.479355,0.112472534,0.48143005,-1.1860657,-0.11642957,-7.693263,-2.7496889
1570715418,-4.3316345,8.048416,5.5499573,-1.4790344,1.9312592,-0.7450409,-4.167039,-5.556717,1.3133179
1570715418,4.9255524,23.445526,-1.4291534,-0.07714844,1.0705261,-2.2183075,5.620186,14.566573,-1.3761531
1570715418,1.8454132,38.42604,-5.3316956,0.3052826,0.38555908,-2.7051392,2.4538476,26.013943,-3.3242428
1570715418,-0.79299927,9.336502,3.5376282,-0.59272766,1.0236511,0.27548218,-7.221624E-4,-3.3729544,2.5711908
1570715418,-1.277832,11.457764,-0.33140564,0.12632751,-0.1694336,0.11248779,-1.2306564,1.495491,1.2659698
1570715418,0.12158203,9.968567,-0.42237854,-0.1485138,0.02017212,-0.13038635,-0.061291873,-0.35638428,0.88502145
1570715418,1.7651978,9.902725,-0.09437561,-0.20603943,-0.24932861,-0.07713318,1.6169589,-0.23922539,1.3169638
1570715418,1.1127777,10.055954,-0.6522217,-0.16448975,-0.3611908,-0.1101532,1.1709272,-0.3330593,0.7756115
1570715418,0.47233582,10.624573,-1.2064819,0.23391724,-0.84161377,-0.13891602,0.841608,0.051965714,0.24060798
1570715418,0.13475037,11.42305,-0.12670898,0.66748047,-0.68182373,0.010223389,0.01320482,1.6144457,1.4865808
1570715418,-0.026855469,9.083908,-2.2168427,1.2246094,-2.2850494,-0.08883667,0.2236852,-1.2555065,-0.20591211
1570715418,-1.3041687,10.574295,-2.511322,0.17106628,-0.4165802,-0.23371887,-0.9477833,0.19855213,-0.8798474
1570715418,-1.8620148,7.25354,-6.0224304,-0.93681335,4.2013397,-0.21774292,-5.0959826,-1.8091345,-23.790009
1570715418,1.1139832,12.375931,8.828812,0.4267273,1.4380493,-0.47340393,0.82917196,1.3849058,11.127163
1570715418,2.0692596,11.235092,-1.2795105,0.40115356,-2.226471,0.26055908,2.961224,1.0961199,1.3512075
1570715418,0.11199951,9.619019,-1.0628357,0.56307983,-0.90553284,0.22647095,0.5376271,-0.6782522,0.4505608
1570715418,0.38734436,10.599442,-1.1526184,0.28398132,-0.85121155,-0.11759949,0.5644331,0.47784138,0.48807955
1570715418,0.15750122,10.113419,1.0380707,0.49702454,-1.1004791,-0.07499695,0.8392683,-0.16057968,2.8305395
1570715418,1.0433502,10.975327,-1.7020874,0.41819763,-1.7289886,-0.10908508,1.596581,0.93322563,0.76866245
1570715418,1.8573761,11.584656,-0.5732269,0.27545166,-0.88848877,-0.35409546,2.5062528,1.0811348,1.695478
1570715418,2.3769226,15.015549,-1.4794312,0.061340332,-0.5454712,-0.45529175,3.4403772,4.412279,1.1360779
1570715418,1.3928986,15.769714,-0.99580383,-0.37968445,0.18103027,-0.12294006,2.6293783,6.1085014,1.1980205
1570715418,-2.005661,14.196732,1.7168274,-0.9442749,0.23855591,-0.052627563,-0.623014,3.9443226,3.8783035
1570715418,-2.9034882,13.783722,1.6869049,-1.7101898,0.3631897,-0.42546082,-1.9381174,3.5994205,3.536679
1570715418,-1.3017731,12.566269,1.0033569,-2.7711945,0.23641968,-0.78552246,-0.12346518,2.237999,2.2986765
1570715418,-0.5200653,12.419037,0.21566772,-2.8862457,0.2801056,-0.55755615,0.84756684,1.873208,0.59553444
1570715418,0.27241516,11.730698,-2.490982,-2.2406921,1.0886383,-0.20283508,1.5830272,1.7254477,-2.8083923
1570715418,2.1075745,10.620987,-1.9163666,-1.8561401,0.8372345,0.31596375,3.4845014,0.7512388,-3.6015089
1570715418,2.03096,10.194824,0.8800659,-1.7304382,0.21299744,0.65045166,3.5399618,-0.3420372,-0.57867014
1570715418,-1.550766,9.602249,-0.33259583,-2.2950287,1.5744019,0.90078735,0.16999686,-0.55900097,-2.345644
1570715419,-1.4741516,8.667313,1.406784,-2.6785278,2.1293945,0.86776733,-0.66788924,-1.3891172,-2.1101093
1570715419,0.5968323,8.961807,1.6414185,-2.5954285,1.4881134,0.5641632,1.5256566,-1.0147457,-2.1797123
1570715419,0.44718933,9.54599,0.8513336,-2.6625366,1.8535004,0.7420654,1.9197863,0.001247406,-3.668593
1570715419,-2.2606506,9.064758,2.4195251,-2.5464325,2.292389,0.7154236,-0.8337033,-0.018509865,-2.688326
1570715419,-2.7011871,6.814209,3.6058655,-2.1139374,1.5701447,0.4618988,-1.4440591,-1.7876968,-2.1164951
1570715419,-1.6046295,5.5524597,3.7040253,-1.648407,0.9959564,0.2669525,-0.26032412,-2.8750896,-2.2592807
1570715419,-0.5487976,4.0728455,5.0208282,-1.1285553,1.0950317,0.2381897,0.7660471,-3.8447866,-1.561214
1570715419,-0.13220215,3.273178,6.7219086,-0.75891113,1.3368378,0.31489563,1.5020001,-4.5544443,-0.07497883
1570715419,-0.9210968,3.7651825,11.121262,-0.5756836,0.91926575,0.17747498,1.2754595,-4.167132,3.912465
1570715419,-4.7398376,6.0456696,18.674957,-0.19859314,0.5325775,-0.21348572,-2.2823715,-2.0763817,10.999511
1570715419,-4.507599,0.9388275,-4.2004395,1.9394073,1.3016968,0.44059753,-2.6197958,-6.3895507,-10.091453
1570715419,-10.4787445,7.1757355,9.882263,2.0778809,-3.9394073,1.1841431,-8.278922,-1.826335,1.816567
1570715419,1.7604218,16.182724,-3.9789734,3.1548615,-4.460327,-0.43824768,-1.6776302,8.589283,-0.26186848
1570715419,-1.4777374,14.898224,-0.48942566,3.4243774,-4.0960083,-0.4126892,-1.16334,5.5892735,-4.365878
1570715419,3.3609314,14.05188,-1.7176514,3.368988,-3.359909,-0.4861908,3.017251,4.2928143,-5.2431617
1570715419,5.4750214,15.089767,-1.7763062,3.7919006,-1.720459,-0.58631897,5.806084,4.7531614,-4.3625584
1570715419,2.2967224,16.497559,-3.5480194,3.9058838,-1.448822,-1.6015167,3.0388143,5.66924,-4.689637
1570715419,1.7771759,18.69423,2.6960602,4.6845856,-1.7918396,-2.2065887,2.7885823,7.523121,2.9986036
1570715419,1.8454132,24.435532,3.534027,3.398819,1.1546783,-1.8795471,3.7030103,14.840731,2.1631012
1570715419,-2.665268,14.767746,13.34787,2.3378143,1.5296631,-1.1434631,0.017230153,6.691057,14.301327
1570715419,1.631134,5.6015472,9.51355,2.0991974,-2.2839966,-0.19216919,3.3615587,-4.191737,12.777273
1570715419,5.114685,2.402893,4.0607605,1.9884033,-0.83203125,-1.0667572,6.876398,-7.3550577,7.361809
1570715419,8.667679,5.3860626,-6.609009,-0.6651764,1.3890381,0.036849976,11.045557,-4.5317364,-4.2237678
1570715419,7.771057,8.445862,16.836212,-0.9740906,2.1091614,0.6983795,11.166764,-1.4979439,18.45608
1570715419,-3.9270172,-0.14334106,-0.95988464,-2.7637482,0.57199097,1.3726959,-1.4702789,-8.987931,2.9302833
1570715419,-8.854279,5.2388153,3.9458313,-3.4199524,1.3794556,0.339386,-5.9614463,-9.594388,5.7103314
1570715419,-2.4090881,19.772827,0.27552795,-5.024231,1.7810669,-0.21560669,-1.2202998,8.276378,0.12855205
1570715419,-9.149963,39.23648,4.9633636,-4.5352783,-0.53056335,0.30529785,-7.437952,28.842236,3.3777418
1570715419,-8.238968,29.374771,2.3680573,-3.9674988,-1.9196625,1.0339508,-6.9594765,18.885664,-0.769789
1570715419,13.743393,23.473068,10.294067,-4.848465,0.57092285,2.5253143,13.56428,14.193726,5.836026
1570715419,4.610718,14.563034,-4.171707,-4.4063873,5.3294525,0.80810547,5.532143,5.234685,-9.101159
1570715419,-5.685547,8.719986,-5.492111,-4.004776,8.436829,0.47573853,-4.0728035,0.17306232,-12.089054
1570715419,-9.440857,-2.7410583,1.2116547,-1.6739807,4.1171875,-0.016403198,-6.9265537,-10.587691,-5.062811
1570715419,-2.9322205,-7.5174866,-0.47146606,0.20515442,0.3408203,-0.53092957,-0.7811053,-15.392382,-6.874081
1570715420,-2.7263184,-4.4229736,-4.374008,2.2440643,-2.9859924,-0.3924408,-0.14434719,-12.867051,-10.425704
1570715420,-1.4310608,-3.5012054,-3.400772,3.161255,-3.6741638,0.72821045,0.5488701,-12.077846,-9.154624
1570715420,-0.93904114,0.82870483,1.8150024,3.5170593,-3.9852142,1.2757568,0.33364868,-8.461784,-3.2122416
1570715420,1.7041473,11.622955,12.292023,1.1809387,-1.3305817,0.20198059,1.9152551,1.8136187,7.262124
1570715420,-0.88757324,5.931946,-10.62886,0.14123535,-3.2885284,-1.2425232,0.9751873,-3.7018766,-10.403454
1570715420,-10.252487,30.636505,3.2718658,1.647522,-3.0509796,-0.28271484,-11.46716,18.825684,9.272997
1570715420,-2.8651886,20.113998,-10.760544,2.7490082,-5.8419647,-1.7549133,-3.0571034,10.797978,-14.087268
1570715420,6.2423553,9.255096,-12.928497,3.4872284,0.67744446,-2.6018066,6.973024,-1.3311205,-16.040512
1570715420,-7.208267,37.96158,0.0049743652,4.0496826,1.2388458,-3.2207184,-5.4344544,26.864605,-0.8881953
1570715420,6.945053,28.189636,14.436035,6.615906,1.6116791,0.44911194,8.751828,18.708378,12.517235
1570715420,2.5337372,17.92569,7.893875,3.860077,-3.1255493,0.40223694,4.9506392,7.4501657,10.570005
1570715420,-2.9202423,12.337631,9.274124,1.8350067,0.5592041,-1.0475769,-0.8076906,2.6744022,11.782297
1570715420,-2.6245728,2.8446198,2.809784,2.254715,-2.0570831,-1.1509094,-0.33890772,-7.107255,6.9499283
1570715420,5.557617,7.4103546,1.4845886,0.0048828125,1.1940918,-0.3743286,7.3657055,-2.6275482,4.42365
1570715420,11.355179,7.676117,14.947189,-1.0753021,1.1440277,-0.0632782,14.1203575,-1.6876526,18.723633
1570715420,1.2743988,-3.9489288,-3.3325348,-2.7541504,2.100647,0.85072327,4.312949,-13.262167,-0.74335265
1570715420,-5.4497223,1.0154419,10.182724,-3.9866638,2.4148865,0.23072815,-2.8009448,-10.139556,10.984013
1570715420,-4.879898,7.814987,2.6649323,-4.2806854,1.2079468,-0.18791199,-3.605967,-2.9214373,4.062158
1570715420,0.10722351,40.02298,-12.163544,-5.884964,-0.81391907,0.05923462,1.318172,25.644955,-8.986707
1570715420,-1.921875,27.768265,6.86557,-5.2894897,1.5807953,1.2544556,-0.42752945,18.742935,3.5433934
1570715420,-11.442413,30.41983,3.6764832,-3.9312744,-2.1380463,1.7679138,-9.691685,20.034943,0.9373617
1570715420,10.820068,20.73529,-1.5632172,-4.719574,2.4649658,2.361267,10.576304,11.843643,-6.124108
1570715420,2.8018951,11.175247,-10.722244,-3.7001038,6.929489,1.4408722,6.050436,2.0386295,-16.015802
1570715420,-9.5976715,4.0369263,-4.055588,-2.7509613,7.116974,0.82621765,-7.314949,-3.5600414,-11.065613
1570715420,-7.579361,-13.192947,-0.24760437,0.7058258,2.374405,0.18386841,-5.812457,-20.252361,-6.637957
1570715420,-3.5523224,-9.393341,-4.4147186,3.5266418,-1.9313812,-0.61828613,-0.43667364,-18.817564,-10.40394
1570715420,-2.0858765,-4.0662384,-4.3668365,4.324524,-4.443283,0.3873291,0.02914095,-13.206743,-9.701469
1570715420,-1.1497345,3.2863464,1.2128601,3.7258453,-4.700012,1.147934,0.6528057,-6.732934,-4.066559
1570715420,-2.014038,13.131302,4.1014557,1.5910645,-2.8634949,0.49705505,-1.9861058,2.199132,-0.51882005
1570715420,8.265457,10.994476,10.126465,0.36387634,0.7956848,-0.3104248,8.002989,2.714077,6.303319
1570715420,-3.6864014,39.73448,3.951828,-1.1743622,-2.3638763,0.59506226,3.5697856,22.5884,-16.661003
1570715420,-4.097,6.6777344,-6.6796265,0.96255493,-0.25146484,0.35005188,-6.363183,0.47089577,-9.129353
1570715420,2.1758118,-1.6301422,-12.344315,6.1461334,-2.0048828,-0.46594238,2.8807206,-12.044782,-13.857746
1570715421,-1.2419128,20.291168,-11.117279,4.1093445,-5.6736603,-4.3424377,-1.0171106,7.030299,-11.768466
1570715421,-3.4074707,40.02298,9.002396,7.059067,9.771606,-0.6204071,-8.449476,28.948212,-0.30548787
1570715421,1.0625,18.361435,19.170563,2.636078,-6.497116,0.31596375,6.13025,9.200656,26.288027
1570715421,-2.7167358,5.153824,2.7379608,2.2536469,-1.5457611,-0.33598328,-0.726243,-3.6449404,5.065016
1570715421,-0.27345276,0.6132202,-0.3589325,2.2035828,0.07344055,-1.9115143,1.6380703,-8.860169,3.0191712
1570715421,11.473694,11.084259,10.960846,0.59609985,0.5389557,-0.50109863,12.563099,1.3958082,13.198301
1570715421,7.652542,2.940384,-0.973053,-1.1583862,0.71899414,0.19238281,11.32284,-4.5726967,5.163191
1570715421,1.0672913,-4.910202,3.4813538,-1.8795776,2.9698944,0.04324341,3.7009938,-14.524038,6.250803
1570715421,-4.8571625,2.229309,2.2770844,-3.128067,1.2484283,-0.103759766,-2.8595252,-8.125695,7.313095
1570715421,-3.1165771,20.183426,-0.90242004,-4.485214,0.38983154,0.25416565,-1.0976021,6.656682,-0.14245856
1570715421,0.4124756,24.187729,-2.8357391,-4.4244843,0.94589233,2.0395508,2.857103,13.782968,-1.7895173
1570715421,-3.7510376,28.965363,1.2595367,-5.4503326,0.89476013,0.34684753,-3.0413315,16.71674,-0.08878791
1570715421,-15.604736,36.88298,3.0432281,-4.24765,0.3546753,-0.65130615,-12.923444,28.971481,-6.514039
1570715421,11.672409,17.346298,-0.08241272,-4.849533,1.5733337,1.469635,12.775594,9.705133,-2.5812676
1570715421,-2.7813873,13.031952,-9.170792,-4.497986,6.947586,0.7868042,0.24530971,5.1867027,-14.580123
1570715421,-5.5694275,0.29119873,-2.5017548,-3.1056976,6.5715485,-0.059020996,-2.831585,-6.1905003,-9.646584
1570715421,-3.1022034,-10.9878845,-1.6829376,-0.3956604,1.5136719,-0.4308014,-0.024398327,-18.318508,-7.730473
1570715421,0.12158203,-12.583618,-4.573929,2.572174,-1.6395111,0.12634277,2.6416159,-22.21926,-12.072422
1570715421,4.022934,-2.349594,-0.76356506,4.0646057,-4.282425,1.5260925,6.6908827,-11.806357,-7.2688622
1570715421,-6.516342,6.324585,4.720352,2.3580475,-5.55542,1.0328827,-3.5805805,-4.670887,0.67136765
1570715421,-4.104187,13.347977,6.6189575,1.3204803,-0.25465393,0.41822815,-4.231887,3.4867344,2.677423
1570715421,5.518112,7.7216034,8.231461,-0.14958191,1.0225983,0.13912964,4.7452135,0.439785,8.221191
1570715421,-5.570633,-4.0662384,-19.760345,-0.8686371,-1.8216705,1.0200958,-1.6474798,-14.635782,-27.845736
1570715421,-7.231003,37.415695,-26.723892,2.5604553,-8.324036,-1.765564,1.6216341,27.04003,-34.254406
1570715421,4.4730377,3.9830627,-14.9096985,2.953537,-0.87997437,0.14445496,4.388302,-2.8068886,-14.93111
1570715421,-1.574707,16.479599,-17.194962,4.135971,-2.2722778,-2.19487,-0.13806395,0.762866,-16.194164
1570715421,-10.627182,39.994247,-19.54129,4.085907,3.7496643,-2.4579926,-9.3094635,28.872272,-21.62719
1570715421,-2.9956665,32.38069,35.888077,6.716049,5.8855286,0.47573853,1.1486733,24.023972,39.776356
1570715421,-6.448105,12.01561,13.325119,2.6488647,-7.264099,0.42248535,-6.1831336,4.6620092,19.485851
1570715421,1.2983398,-0.92385864,-10.810822,2.7426147,-3.5548553,-2.0105743,2.7873816,-10.234417,-5.951543
1570715421,15.56897,12.609375,10.805222,0.19555664,2.1208801,-1.9487915,14.841306,-7.4506626,8.13146
1570715421,10.211945,4.8437805,3.0168915,-1.137085,-0.7670593,0.27441406,13.062626,-3.4834194,8.730038
1570715421,4.3210144,-4.7390137,0.833374,-2.187439,2.6236877,0.31489563,8.058637,-14.171605,1.3324609
1570715422,-5.7633667,0.5162506,5.433838,-3.5136871,1.052414,-0.3338623,-3.6639433,-9.226538,8.560824
1570715422,-4.219101,4.3350067,-0.61990356,-3.4252777,1.4891815,-0.4947052,-2.3867888,-6.512059,0.92102396
1570715422,-2.7718048,37.219376,-10.324799,-5.246872,-0.01071167,0.10609436,-0.10540104,24.346605,-8.497792
1570715422,-1.7566681,26.974579,0.9207611,-5.2404785,0.56559753,2.518921,2.0067656,22.199894,-1.3802521
1570715422,-7.3914185,29.658478,3.5639648,-3.6340637,-0.018173218,0.2339325,-4.728712,17.591301,2.6665454
1570715422,-1.322113,31.757004,14.445602,-6.2237244,1.5136719,0.8187561,-5.4463453,23.844826,10.413509
1570715422,10.688385,14.178772,-8.207138,-4.5576477,5.148361,0.90397644,15.169656,5.756201,-11.343231
1570715422,-7.3914185,8.227982,-8.630905,-3.7384644,7.2916718,0.17214966,-3.755875,0.20036125,-15.345234
1570715422,-6.342758,-8.330322,-0.35055542,-1.2532043,3.537674,-0.42546082,-2.8338544,-15.923585,-6.3587604
1570715422,1.1834106,-11.177017,-0.99220276,1.3172913,0.0074005127,-0.5682068,5.3973765,-19.065685,-6.611911
1570715422,-0.61343384,-6.649582,-1.8708801,3.3125305,-2.6195526,0.16575623,3.0427263,-15.791738,-7.793028
1570715422,1.1606598,-2.98526,-0.8126373,4.6835175,-4.5583344,1.7189026,4.2451563,-11.487326,-4.6931634
1570715422,-8.138412,10.173264,2.7750702,2.3037262,-5.922928,0.91996765,-4.1575418,-2.9647522,-0.37666988
1570715422,0.0796814,19.226944,15.771988,-0.55970764,2.8164978,0.20730591,-1.5860919,11.413821,8.2080765
1570715422,3.6697845,12.249039,-27.875504,-2.0436249,-5.4361115,0.23606873,6.5202136,1.7010994,-31.079988
1570715422,-7.2932587,16.496353,-13.657532,-0.113357544,-0.08848572,-0.90589905,-6.1715145,8.360526,-19.597843
1570715422,2.4571228,-2.5722656,-8.981659,4.2382355,-1.5841064,0.3905182,1.6522644,-11.83376,-11.623039
1570715422,4.355728,15.57579,-17.82225,6.267563,-4.439026,-3.1418915,5.718267,4.758849,-18.90348
1570715422,-15.853729,40.02298,2.474594,5.602844,5.4434357,-2.4590607,-15.555373,29.213207,0.2560166
1570715422,5.758728,22.424408,28.290085,3.355133,2.1240692,1.9564667,6.659583,13.539321,31.210815
1570715422,-6.3367767,10.903503,9.999573,3.9708557,-4.1492615,1.8797607,-4.885771,2.0246859,14.790468
1570715422,-1.4693604,2.50943,5.4039,3.0249023,-2.0506897,-1.0028381,0.035442352,-7.296055,10.325651
1570715422,5.8640747,4.3589478,-3.5923157,0.7516327,1.770401,-0.281662,7.58484,-5.0741014,0.0118198395
1570715422,7.9278717,7.4606476,17.3797,-2.15654,3.9243774,0.109298706,10.040847,-1.3042974,21.694384
1570715422,1.6227417,-3.3240356,-2.3461304,-2.1363068,0.7956848,0.010223389,3.5806956,-11.530784,1.0545087
1570715422,-7.527893,0.3821869,3.0731506,-3.1067505,1.38797,-0.7823334,-6.0409327,-9.607926,5.949318
1570715422,-7.3363495,5.4674683,5.8480225,-3.605301,0.9448242,-1.2148285,-5.7390013,-4.4876995,7.3953667
1570715422,-2.2199402,20.764023,-2.135437,-4.6641693,-0.857605,-1.2989807,-0.29877186,9.76845,-1.4512006
1570715422,-1.337677,40.02298,-4.036438,-6.7947083,-1.4946289,0.07093811,1.8895864,29.278656,-5.7285852
1570715422,-4.967285,25.590729,-4.087906,-3.5413818,-2.3170166,0.5897217,-1.8220687,16.677578,-1.9599237
1570715422,2.9599152,22.642273,10.674744,-6.5507507,2.7344666,0.89546204,2.9787421,13.953071,6.8632903
1570715422,3.9187927,10.023636,-6.0583344,-4.069763,6.4288025,0.5108948,10.706492,2.2812119,-10.744844
1570715422,-4.2490387,5.287903,-6.8101196,-2.8138123,7.6528015,0.034729004,-0.47086143,-2.605463,-12.696903
1570715422,-4.17601,-6.638809,-0.04888916,-0.3711548,2.9762878,-0.50216675,0.13312864,-14.028942,-5.314022
1570715423,-4.444153,-11.921616,-7.4661255,2.4496613,-1.9484253,-0.14530945,-0.013823032,-19.927437,-11.644993
1570715423,4.098358,-4.4421387,-2.190506,3.6363678,-2.7484436,1.3972015,8.530182,-12.501484,-6.1145453
1570715423,-2.2043762,1.9743195,3.2167969,3.3934937,-6.3309326,2.1354218,1.2986438,-7.0334187,-0.5689342
1570715423,-7.2453766,11.152496,2.3680573,2.4986572,-3.346054,0.5918579,-5.7485557,0.6552706,-1.0085115
1570715423,0.110809326,13.166016,6.9230194,0.053878784,1.5807953,-0.11973572,1.6562371,3.8725348,3.9612029
1570715423,4.3138275,5.478241,-13.954407,-1.0316162,-5.0089417,-0.8174896,7.6702266,-4.472044,-18.456038
1570715423,-4.5411224,21.306305,-27.480453,0.060272217,-2.228592,-1.3256226,-2.492177,13.5652075,-31.473454
1570715423,5.247574,0.124801636,-4.0101013,5.7487793,-1.8930359,1.3673706,5.8741093,-7.949832,-5.726991
1570715423,5.0129395,12.319672,-18.878082,6.0055084,-3.3183594,-2.8585358,6.976659,1.3184605,-19.864786
1570715423,-3.9497528,40.02298,6.715927,5.361023,4.299347,-0.33065796,-4.5669,29.333963,4.531858
1570715423,-3.9497528,40.02298,6.715927,5.361023,4.299347,-0.33065796,-4.5669,29.333963,4.531858
1570715423,-3.9497528,40.02298,6.715927,5.361023,4.299347,-0.33065796,-4.5669,29.333963,4.531858
1570715423,-3.9497528,40.02298,6.715927,5.361023,4.299347,-0.33065796,-4.5669,29.333963,4.531858
1570715423,-3.9497528,40.02298,6.715927,5.361023,4.299347,-0.33065796,-4.5669,29.333963,4.531858
1570715423,-3.9497528,40.02298,6.715927,5.361023,4.299347,-0.33065796,-4.5669,29.333963,4.531858
1570715423,-3.9497528,40.02298,6.715927,5.361023,4.299347,-0.33065796,-4.5669,29.333963,4.531858
1570715423,-3.9497528,40.02298,6.715927,5.361023,4.299347,-0.33065796,-4.5669,29.333963,4.531858
1570715423,-3.9497528,40.02298,6.715927,5.361023,4.299347,-0.33065796,-4.5669,29.333963,4.531858
1570715423,-3.9497528,40.02298,6.715927,5.361023,4.299347,-0.33065796,-4.5669,29.333963,4.531858
1570715423,-3.9497528,40.02298,6.715927,5.361023,4.299347,-0.33065796,-4.5669,29.333963,4.531858
1570715423,-3.9497528,40.02298,6.715927,5.361023,4.299347,-0.33065796,-4.5669,29.333963,4.531858
1570715423,-3.9497528,40.02298,6.715927,5.361023,4.299347,-0.33065796,-4.5669,29.333963,4.531858
1570715423,14.327576,17.184692,-1.4985809,-5.881775,4.844757,1.167099,5.302636,30.014156,-10.521338
1570715434,14.327576,17.184692,-1.4985809,-5.881775,4.844757,1.167099,5.302636,30.014156,-10.521338
1570715434,14.327576,17.184692,-1.4985809,-5.881775,4.844757,1.167099,5.302636,30.014156,-10.521338
1570715434,14.327576,17.184692,-1.4985809,-5.881775,4.844757,1.167099,5.302636,30.014156,-10.521338
1570715434,14.327576,17.184692,-1.4985809,-5.881775,4.844757,1.167099,5.302636,30.014156,-10.521338
1570715434,14.327576,17.184692,-1.4985809,-5.881775,4.844757,1.167099,5.302636,30.014156,-10.521338
1570715434,14.327576,17.184692,-1.4985809,-5.881775,4.844757,1.167099,5.302636,30.014156,-10.521338
1570715434,14.327576,17.184692,-1.4985809,-5.881775,4.844757,1.167099,5.302636,30.014156,-10.521338
1570715434,14.327576,17.184692,-1.4985809,-5.881775,4.844757,1.167099,5.302636,30.014156,-10.521338
1570715434,14.327576,17.184692,-1.4985809,-5.881775,4.844757,1.167099,5.302636,30.014156,-10.521338
1570715434,14.327576,17.184692,-1.4985809,-5.881775,4.844757,1.167099,5.302636,30.014156,-10.521338
1570715434,14.327576,17.184692,-1.4985809,-5.881775,4.844757,1.167099,5.302636,30.014156,-10.521338
1570715434,14.327576,17.184692,-1.4985809,-5.881775,4.844757,1.167099,5.302636,30.014156,-10.521338
1570715434,14.327576,17.184692,-1.4985809,-5.881775,4.844757,1.167099,5.302636,30.014156,-10.521338
1570715434,14.327576,17.184692,-1.4985809,-5.881775,4.844757,1.167099,5.302636,30.014156,-10.521338
1570715434,14.327576,17.184692,-1.4985809,-5.881775,4.844757,1.167099,5.302636,30.014156,-10.521338
1570715434,14.327576,17.184692,-1.4985809,-5.881775,4.844757,1.167099,5.302636,30.014156,-10.521338
1570715434,14.327576,17.184692,-1.4985809,-5.881775,4.844757,1.167099,5.302636,30.014156,-10.521338
1570715434,14.327576,17.184692,-1.4985809,-5.881775,4.844757,1.167099,5.302636,30.014156,-10.521338
1570715434,14.327576,17.184692,-1.4985809,-5.881775,4.844757,1.167099,5.302636,30.014156,-10.521338
1570715434,14.327576,17.184692,-1.4985809,-5.881775,4.844757,1.167099,5.302636,30.014156,-10.521338
1570715434,14.327576,17.184692,-1.4985809,-5.881775,4.844757,1.167099,5.302636,30.014156,-10.521338
1570715434,14.327576,17.184692,-1.4985809,-5.881775,4.844757,1.167099,5.302636,30.014156,-10.521338
1570715434,14.327576,17.184692,-1.4985809,-5.881775,4.844757,1.167099,5.302636,30.014156,-10.521338
1570715434,14.327576,17.184692,-1.4985809,-5.881775,4.844757,1.167099,5.302636,30.014156,-10.521338
1570715434,14.327576,17.184692,-1.4985809,-5.881775,4.844757,1.167099,5.302636,30.014156,-10.521338
1570715434,14.327576,17.184692,-1.4985809,-5.881775,4.844757,1.167099,5.302636,30.014156,-10.521338
1570715434,14.327576,17.184692,-1.4985809,-5.881775,4.844757,1.167099,5.302636,30.014156,-10.521338
1570715434,14.327576,17.184692,-1.4985809,-5.881775,4.844757,1.167099,5.302636,30.014156,-10.521338
1570715434,14.327576,17.184692,-1.4985809,-5.881775,4.844757,1.167099,5.302636,30.014156,-10.521338
1570715434,14.327576,17.184692,-1.4985809,-5.881775,4.844757,1.167099,5.302636,30.014156,-10.521338
1570715434,14.327576,17.184692,-1.4985809,-5.881775,4.844757,1.167099,5.302636,30.014156,-10.521338
1570715434,14.327576,17.184692,-1.4985809,-5.881775,4.844757,1.167099,5.302636,30.014156,-10.521338
1570715434,14.327576,17.184692,-1.4985809,-5.881775,4.844757,1.167099,5.302636,30.014156,-10.521338
1570715434,14.327576,17.184692,-1.4985809,-5.881775,4.844757,1.167099,5.302636,30.014156,-10.521338
1570715434,14.327576,17.184692,-1.4985809,-5.881775,4.844757,1.167099,5.302636,30.014156,-10.521338
1570715434,14.327576,17.184692,-1.4985809,-5.881775,4.844757,1.167099,5.302636,30.014156,-10.521338
1570715434,14.327576,17.184692,-1.4985809,-5.881775,4.844757,1.167099,5.302636,30.014156,-10.521338
1570715434,14.327576,17.184692,-1.4985809,-5.881775,4.844757,1.167099,5.302636,30.014156,-10.521338
1570715434,14.327576,17.184692,-1.4985809,-5.881775,4.844757,1.167099,5.302636,30.014156,-10.521338
1570715434,14.327576,17.184692,-1.4985809,-5.881775,4.844757,1.167099,5.302636,30.014156,-10.521338
1570715434,14.327576,17.184692,-1.4985809,-5.881775,4.844757,1.167099,5.302636,30.014156,-10.521338
1570715434,14.327576,17.184692,-1.4985809,-5.881775,4.844757,1.167099,5.302636,30.014156,-10.521338
1570715434,14.327576,17.184692,-1.4985809,-5.881775,4.844757,1.167099,5.302636,30.014156,-10.521338
1570715434,14.327576,17.184692,-1.4985809,-5.881775,4.844757,1.167099,5.302636,30.014156,-10.521338
1570715434,14.327576,17.184692,-1.4985809,-5.881775,4.844757,1.167099,5.302636,30.014156,-10.521338
1570715434,14.327576,17.184692,-1.4985809,-5.881775,4.844757,1.167099,5.302636,30.014156,-10.521338
1570715434,14.327576,17.184692,-1.4985809,-5.881775,4.844757,1.167099,5.302636,30.014156,-10.521338
1570715434,14.327576,17.184692,-1.4985809,-5.881775,4.844757,1.167099,5.302636,30.014156,-10.521338
1570715434,14.327576,17.184692,-1.4985809,-5.881775,4.844757,1.167099,5.302636,30.014156,-10.521338
1570715434,14.327576,17.184692,-1.4985809,-5.881775,4.844757,1.167099,5.302636,30.014156,-10.521338
1570715434,14.327576,17.184692,-1.4985809,-5.881775,4.844757,1.167099,5.302636,30.014156,-10.521338
1570715434,14.327576,17.184692,-1.4985809,-5.881775,4.844757,1.167099,5.302636,30.014156,-10.521338
1570715434,14.327576,17.184692,-1.4985809,-5.881775,4.844757,1.167099,5.302636,30.014156,-10.521338
1570715434,14.327576,17.184692,-1.4985809,-5.881775,4.844757,1.167099,5.302636,30.014156,-10.521338
1570715434,14.327576,17.184692,-1.4985809,-5.881775,4.844757,1.167099,5.302636,30.014156,-10.521338
1570715434,14.327576,17.184692,-1.4985809,-5.881775,4.844757,1.167099,5.302636,30.014156,-10.521338
1570715434,14.327576,17.184692,-1.4985809,-5.881775,4.844757,1.167099,5.302636,30.014156,-10.521338
1570715434,14.327576,17.184692,-1.4985809,-5.881775,4.844757,1.167099,5.302636,30.014156,-10.521338
1570715434,14.327576,17.184692,-1.4985809,-5.881775,4.844757,1.167099,5.302636,30.014156,-10.521338
1570715434,14.327576,17.184692,-1.4985809,-5.881775,4.844757,1.167099,5.302636,30.014156,-10.521338
1570715434,14.327576,17.184692,-1.4985809,-5.881775,4.844757,1.167099,5.302636,30.014156,-10.521338
1570715434,14.327576,17.184692,-1.4985809,-5.881775,4.844757,1.167099,5.302636,30.014156,-10.521338
1570715434,14.327576,17.184692,-1.4985809,-5.881775,4.844757,1.167099,5.302636,30.014156,-10.521338
1570715434,14.327576,17.184692,-1.4985809,-5.881775,4.844757,1.167099,5.302636,30.014156,-10.521338
1570715434,14.327576,17.184692,-1.4985809,-5.881775,4.844757,1.167099,5.302636,30.014156,-10.521338
1570715434,14.327576,17.184692,-1.4985809,-5.881775,4.844757,1.167099,5.302636,30.014156,-10.521338
1570715434,14.327576,17.184692,-1.4985809,-5.881775,4.844757,1.167099,5.302636,30.014156,-10.521338
1570715434,14.327576,17.184692,-1.4985809,-5.881775,4.844757,1.167099,5.302636,30.014156,-10.521338
1570715434,14.327576,17.184692,-1.4985809,-5.881775,4.844757,1.167099,5.302636,30.014156,-10.521338
1570715434,14.327576,17.184692,-1.4985809,-5.881775,4.844757,1.167099,5.302636,30.014156,-10.521338
1570715434,14.327576,17.184692,-1.4985809,-5.881775,4.844757,1.167099,5.302636,30.014156,-10.521338
1570715434,14.327576,17.184692,-1.4985809,-5.881775,4.844757,1.167099,5.302636,30.014156,-10.521338
1570715434,14.327576,17.184692,-1.4985809,-5.881775,4.844757,1.167099,5.302636,30.014156,-10.521338
1570715434,14.327576,17.184692,-1.4985809,-5.881775,4.844757,1.167099,5.302636,30.014156,-10.521338
1570715434,14.327576,17.184692,-1.4985809,-5.881775,4.844757,1.167099,5.302636,30.014156,-10.521338
1570715434,14.327576,17.184692,-1.4985809,-5.881775,4.844757,1.167099,5.302636,30.014156,-10.521338
1570715434,14.327576,17.184692,-1.4985809,-5.881775,4.844757,1.167099,5.302636,30.014156,-10.521338
1570715434,14.327576,17.184692,-1.4985809,-5.881775,4.844757,1.167099,5.302636,30.014156,-10.521338
1570715434,14.327576,17.184692,-1.4985809,-5.881775,4.844757,1.167099,5.302636,30.014156,-10.521338
1570715434,14.327576,17.184692,-1.4985809,-5.881775,4.844757,1.167099,5.302636,30.014156,-10.521338
1570715434,14.327576,17.184692,-1.4985809,-5.881775,4.844757,1.167099,5.302636,30.014156,-10.521338
1570715434,14.327576,17.184692,-1.4985809,-5.881775,4.844757,1.167099,5.302636,30.014156,-10.521338
1570715434,14.327576,17.184692,-1.4985809,-5.881775,4.844757,1.167099,5.302636,30.014156,-10.521338
1570715434,14.327576,17.184692,-1.4985809,-5.881775,4.844757,1.167099,5.302636,30.014156,-10.521338
1570715434,14.327576,17.184692,-1.4985809,-5.881775,4.844757,1.167099,5.302636,30.014156,-10.521338
1570715434,14.327576,17.184692,-1.4985809,-5.881775,4.844757,1.167099,5.302636,30.014156,-10.521338
1570715434,14.327576,17.184692,-1.4985809,-5.881775,4.844757,1.167099,5.302636,30.014156,-10.521338
1570715434,14.327576,17.184692,-1.4985809,-5.881775,4.844757,1.167099,5.302636,30.014156,-10.521338
1570715434,14.327576,17.184692,-1.4985809,-5.881775,4.844757,1.167099,5.302636,30.014156,-10.521338
1570715434,14.327576,17.184692,-1.4985809,-5.881775,4.844757,1.167099,5.302636,30.014156,-10.521338
1570715434,14.327576,17.184692,-1.4985809,-5.881775,4.844757,1.167099,5.302636,30.014156,-10.521338
1570715434,14.327576,17.184692,-1.4985809,-5.881775,4.844757,1.167099,5.302636,30.014156,-10.521338
1570715434,14.327576,17.184692,-1.4985809,-5.881775,4.844757,1.167099,5.302636,30.014156,-10.521338
1570715434,14.327576,17.184692,-1.4985809,-5.881775,4.844757,1.167099,5.302636,30.014156,-10.521338
1570715434,14.327576,17.184692,-1.4985809,-5.881775,4.844757,1.167099,5.302636,30.014156,-10.521338
1570715434,14.327576,17.184692,-1.4985809,-5.881775,4.844757,1.167099,5.302636,30.014156,-10.521338
1570715434,14.327576,17.184692,-1.4985809,-5.881775,4.844757,1.167099,5.302636,30.014156,-10.521338
1570715434,14.327576,17.184692,-1.4985809,-5.881775,4.844757,1.167099,5.302636,30.014156,-10.521338
1570715434,14.327576,17.184692,-1.4985809,-5.881775,4.844757,1.167099,5.302636,30.014156,-10.521338
1570715434,14.327576,17.184692,-1.4985809,-5.881775,4.844757,1.167099,5.302636,30.014156,-10.521338
1570715434,14.327576,17.184692,-1.4985809,-5.881775,4.844757,1.167099,5.302636,30.014156,-10.521338
1570715434,14.327576,17.184692,-1.4985809,-5.881775,4.844757,1.167099,5.302636,30.014156,-10.521338
1570715434,14.327576,17.184692,-1.4985809,-5.881775,4.844757,1.167099,5.302636,30.014156,-10.521338
1570715434,14.327576,17.184692,-1.4985809,-5.881775,4.844757,1.167099,5.302636,30.014156,-10.521338
1570715434,14.327576,17.184692,-1.4985809,-5.881775,4.844757,1.167099,5.302636,30.014156,-10.521338
1570715434,14.327576,17.184692,-1.4985809,-5.881775,4.844757,1.167099,5.302636,30.014156,-10.521338
1570715434,14.327576,17.184692,-1.4985809,-5.881775,4.844757,1.167099,5.302636,30.014156,-10.521338
1570715434,14.327576,17.184692,-1.4985809,-5.881775,4.844757,1.167099,5.302636,30.014156,-10.521338
1570715434,14.327576,17.184692,-1.4985809,-5.881775,4.844757,1.167099,5.302636,30.014156,-10.521338
1570715434,14.327576,17.184692,-1.4985809,-5.881775,4.844757,1.167099,5.302636,30.014156,-10.521338
1570715434,14.327576,17.184692,-1.4985809,-5.881775,4.844757,1.167099,5.302636,30.014156,-10.521338
1570715434,14.327576,17.184692,-1.4985809,-5.881775,4.844757,1.167099,5.302636,30.014156,-10.521338
1570715434,14.327576,17.184692,-1.4985809,-5.881775,4.844757,1.167099,5.302636,30.014156,-10.521338
1570715434,14.327576,17.184692,-1.4985809,-5.881775,4.844757,1.167099,5.302636,30.014156,-10.521338
1570715434,14.327576,17.184692,-1.4985809,-5.881775,4.844757,1.167099,5.302636,30.014156,-10.521338
1570715434,14.327576,17.184692,-1.4985809,-5.881775,4.844757,1.167099,5.302636,30.014156,-10.521338
1570715434,14.327576,17.184692,-1.4985809,-5.881775,4.844757,1.167099,5.302636,30.014156,-10.521338
1570715434,14.327576,17.184692,-1.4985809,-5.881775,4.844757,1.167099,5.302636,30.014156,-10.521338
1570715434,14.327576,17.184692,-1.4985809,-5.881775,4.844757,1.167099,5.302636,30.014156,-10.521338
1570715434,14.327576,17.184692,-1.4985809,-5.881775,4.844757,1.167099,5.302636,30.014156,-10.521338
1570715434,14.327576,17.184692,-1.4985809,-5.881775,4.844757,1.167099,5.302636,30.014156,-10.521338
1570715434,14.327576,17.184692,-1.4985809,-5.881775,4.844757,1.167099,5.302636,30.014156,-10.521338
1570715434,14.327576,17.184692,-1.4985809,-5.881775,4.844757,1.167099,5.302636,30.014156,-10.521338
1570715434,14.327576,17.184692,-1.4985809,-5.881775,4.844757,1.167099,5.302636,30.014156,-10.521338
1570715434,14.327576,17.184692,-1.4985809,-5.881775,4.844757,1.167099,5.302636,30.014156,-10.521338
1570715434,14.327576,17.184692,-1.4985809,-5.881775,4.844757,1.167099,5.302636,30.014156,-10.521338
1570715434,14.327576,17.184692,-1.4985809,-5.881775,4.844757,1.167099,5.302636,30.014156,-10.521338
1570715434,14.327576,17.184692,-1.4985809,-5.881775,4.844757,1.167099,5.302636,30.014156,-10.521338
1570715434,14.327576,17.184692,-1.4985809,-5.881775,4.844757,1.167099,5.302636,30.014156,-10.521338
1570715434,14.327576,17.184692,-1.4985809,-5.881775,4.844757,1.167099,5.302636,30.014156,-10.521338
1570715434,14.327576,17.184692,-1.4985809,-5.881775,4.844757,1.167099,5.302636,30.014156,-10.521338
1570715434,14.327576,17.184692,-1.4985809,-5.881775,4.844757,1.167099,5.302636,30.014156,-10.521338
1570715434,14.327576,17.184692,-1.4985809,-5.881775,4.844757,1.167099,5.302636,30.014156,-10.521338
1570715434,14.327576,17.184692,-1.4985809,-5.881775,4.844757,1.167099,5.302636,30.014156,-10.521338
1570715434,14.327576,17.184692,-1.4985809,-5.881775,4.844757,1.167099,5.302636,30.014156,-10.521338
1570715434,14.327576,17.184692,-1.4985809,-5.881775,4.844757,1.167099,5.302636,30.014156,-10.521338
1570715434,14.327576,17.184692,-1.4985809,-5.881775,4.844757,1.167099,5.302636,30.014156,-10.521338
1570715434,14.327576,17.184692,-1.4985809,-5.881775,4.844757,1.167099,5.302636,30.014156,-10.521338
1570715434,14.327576,17.184692,-1.4985809,-5.881775,4.844757,1.167099,5.302636,30.014156,-10.521338
1570715434,14.327576,17.184692,-1.4985809,-5.881775,4.844757,1.167099,5.302636,30.014156,-10.521338
1570715434,14.327576,17.184692,-1.4985809,-5.881775,4.844757,1.167099,5.302636,30.014156,-10.521338
1570715434,14.327576,17.184692,-1.4985809,-5.881775,4.844757,1.167099,5.302636,30.014156,-10.521338
1570715434,14.327576,17.184692,-1.4985809,-5.881775,4.844757,1.167099,5.302636,30.014156,-10.521338
1570715434,14.327576,17.184692,-1.4985809,-5.881775,4.844757,1.167099,5.302636,30.014156,-10.521338
1570715434,14.327576,17.184692,-1.4985809,-5.881775,4.844757,1.167099,5.302636,30.014156,-10.521338
1570715434,14.327576,17.184692,-1.4985809,-5.881775,4.844757,1.167099,5.302636,30.014156,-10.521338
1570715434,14.327576,17.184692,-1.4985809,-5.881775,4.844757,1.167099,5.302636,30.014156,-10.521338
1570715434,-1.3424683,6.608307,-9.466476,-5.881775,4.844757,1.167099,5.302636,30.014156,-10.521338
1570715434,-6.4744415,-9.550156,-3.3516846,-5.881775,4.844757,1.167099,5.302636,30.014156,-10.521338
1570715434,-0.47218323,-9.386154,-4.347687,-5.881775,4.844757,1.167099,5.302636,30.014156,-10.521338
1570715434,-1.772232,2.8051147,2.663742,-5.881775,4.844757,1.167099,5.302636,30.014156,-10.521338
1570715434,-5.2318573,17.330734,7.2474365,-5.881775,4.844757,1.167099,5.302636,30.014156,-10.521338
1570715434,12.44574,-4.1129303,-32.51306,-5.881775,4.844757,1.167099,5.302636,30.014156,-10.521338
1570715434,-3.9329987,5.9427185,-7.8731384,-5.881775,4.844757,1.167099,5.302636,30.014156,-10.521338
1570715434,0.63394165,23.378494,-15.456772,-5.881775,4.844757,1.167099,5.302636,30.014156,-10.521338
1570715434,-4.8930664,24.284698,25.315277,-5.881775,4.844757,1.167099,5.302636,30.014156,-10.521338
1570715434,-4.310089,-1.2039795,-2.408371,-5.881775,4.844757,1.167099,5.302636,30.014156,-10.521338
1570715434,11.725082,15.251373,21.447449,-5.881775,4.844757,1.167099,5.302636,30.014156,-10.521338
1570715434,3.6374664,-6.1168823,-3.4091492,-5.881775,4.844757,1.167099,5.302636,30.014156,-10.521338
1570715434,-5.7071075,6.153412,2.9881592,-5.881775,4.844757,1.167099,5.302636,30.014156,-10.521338
1570715434,-3.3667755,35.210632,-4.3392944,-5.881775,4.844757,1.167099,5.302636,30.014156,-10.521338
1570715434,-7.195099,38.93602,16.332245,-5.881775,4.844757,1.167099,5.302636,30.014156,-10.521338
1570715434,15.005142,11.613388,-4.429077,-5.881775,4.844757,1.167099,5.302636,30.014156,-10.521338
1570715434,-3.1225586,4.569641,-5.0623474,-5.881775,4.844757,1.167099,5.302636,30.014156,-10.521338
1570715434,-3.0124207,-8.848663,-2.882431,-5.881775,4.844757,1.167099,5.302636,30.014156,-10.521338
1570715434,-2.9609528,-5.0825806,-6.6999817,-5.881775,4.844757,1.167099,5.302636,30.014156,-10.521338
1570715434,-0.7343445,4.3338165,1.7240143,-5.881775,4.844757,1.167099,5.302636,30.014156,-10.521338
1570715434,-6.0051727,16.825562,0.25398254,-5.881775,4.844757,1.167099,5.302636,30.014156,-10.521338
1570715434,12.669601,15.727814,-1.9833984,-5.881775,4.844757,1.167099,5.302636,30.014156,-10.521338
1570715434,-2.6616821,1.9120789,-0.5792084,-5.881775,4.844757,1.167099,5.302636,30.014156,-10.521338
1570715434,3.450714,23.25998,-20.382843,-5.881775,4.844757,1.167099,5.302636,30.014156,-10.521338
1570715434,8.716766,29.126968,38.548035,-5.881775,4.844757,1.167099,5.302636,30.014156,-10.521338
1570715434,-7.057434,24.238007,27.24022,-5.881775,4.844757,1.167099,5.302636,30.014156,-10.521338
1570715434,-7.057434,24.238007,27.24022,-5.881775,4.844757,1.167099,5.302636,30.014156,-10.521338
1570715434,-7.057434,24.238007,27.24022,-5.881775,4.844757,1.167099,5.302636,30.014156,-10.521338
1570715434,-7.057434,24.238007,27.24022,-5.881775,4.844757,1.167099,5.302636,30.014156,-10.521338
1570715434,-7.057434,24.238007,27.24022,-5.881775,4.844757,1.167099,5.302636,30.014156,-10.521338
1570715434,-7.057434,24.238007,27.24022,-5.881775,4.844757,1.167099,5.302636,30.014156,-10.521338
1570715434,-7.057434,24.238007,27.24022,-5.881775,4.844757,1.167099,5.302636,30.014156,-10.521338
1570715434,-7.057434,24.238007,27.24022,-5.881775,4.844757,1.167099,5.302636,30.014156,-10.521338
1570715434,-7.057434,24.238007,27.24022,-5.881775,4.844757,1.167099,5.302636,30.014156,-10.521338
1570715434,-7.057434,24.238007,27.24022,-5.881775,4.844757,1.167099,5.302636,30.014156,-10.521338
1570715434,-7.057434,24.238007,27.24022,-5.881775,4.844757,1.167099,5.302636,30.014156,-10.521338
1570715434,-7.057434,24.238007,27.24022,-5.881775,4.844757,1.167099,5.302636,30.014156,-10.521338
1570715434,-7.057434,24.238007,27.24022,-5.881775,4.844757,1.167099,5.302636,30.014156,-10.521338
1570715434,-7.057434,24.238007,27.24022,-5.881775,4.844757,1.167099,5.302636,30.014156,-10.521338
1570715434,-7.057434,24.238007,27.24022,-5.881775,4.844757,1.167099,5.302636,30.014156,-10.521338
1570715434,-7.057434,24.238007,27.24022,-5.881775,4.844757,1.167099,5.302636,30.014156,-10.521338
1570715434,-7.057434,24.238007,27.24022,-5.881775,4.844757,1.167099,5.302636,30.014156,-10.521338
1570715434,-7.057434,24.238007,27.24022,-5.881775,4.844757,1.167099,5.302636,30.014156,-10.521338
1570715434,-7.057434,24.238007,27.24022,-5.881775,4.844757,1.167099,5.302636,30.014156,-10.521338
1570715434,-7.057434,24.238007,27.24022,-5.881775,4.844757,1.167099,5.302636,30.014156,-10.521338
1570715434,-7.057434,24.238007,27.24022,-5.881775,4.844757,1.167099,5.302636,30.014156,-10.521338
1570715434,-7.057434,24.238007,27.24022,-5.881775,4.844757,1.167099,5.302636,30.014156,-10.521338
1570715434,-7.057434,24.238007,27.24022,-5.881775,4.844757,1.167099,5.302636,30.014156,-10.521338
1570715434,-7.057434,24.238007,27.24022,-5.881775,4.844757,1.167099,5.302636,30.014156,-10.521338
1570715434,-7.057434,24.238007,27.24022,-5.881775,4.844757,1.167099,5.302636,30.014156,-10.521338
1570715434,-7.057434,24.238007,27.24022,-5.881775,4.844757,1.167099,5.302636,30.014156,-10.521338
1570715434,-7.057434,24.238007,27.24022,-5.881775,4.844757,1.167099,5.302636,30.014156,-10.521338
1570715434,-7.057434,24.238007,27.24022,-5.881775,4.844757,1.167099,5.302636,30.014156,-10.521338
1570715434,-7.057434,24.238007,27.24022,-5.881775,4.844757,1.167099,5.302636,30.014156,-10.521338
1570715434,-7.057434,24.238007,27.24022,-5.881775,4.844757,1.167099,5.302636,30.014156,-10.521338
1570715434,-7.057434,24.238007,27.24022,-5.881775,4.844757,1.167099,5.302636,30.014156,-10.521338
1570715434,-7.057434,24.238007,27.24022,-5.881775,4.844757,1.167099,5.302636,30.014156,-10.521338
1570715434,-7.057434,24.238007,27.24022,-5.881775,4.844757,1.167099,5.302636,30.014156,-10.521338
1570715434,-7.057434,24.238007,27.24022,-5.881775,4.844757,1.167099,5.302636,30.014156,-10.521338
1570715434,-7.057434,24.238007,27.24022,-5.881775,4.844757,1.167099,5.302636,30.014156,-10.521338
1570715434,-7.057434,24.238007,27.24022,-5.881775,4.844757,1.167099,5.302636,30.014156,-10.521338
1570715434,-7.057434,24.238007,27.24022,-5.881775,4.844757,1.167099,5.302636,30.014156,-10.521338
1570715434,-7.057434,24.238007,27.24022,-5.881775,4.844757,1.167099,5.302636,30.014156,-10.521338
1570715434,-7.057434,24.238007,27.24022,-5.881775,4.844757,1.167099,5.302636,30.014156,-10.521338
1570715434,-7.057434,24.238007,27.24022,-5.881775,4.844757,1.167099,5.302636,30.014156,-10.521338
1570715434,-7.057434,24.238007,27.24022,-5.881775,4.844757,1.167099,5.302636,30.014156,-10.521338
1570715434,-7.057434,24.238007,27.24022,-5.881775,4.844757,1.167099,5.302636,30.014156,-10.521338
1570715434,-7.057434,24.238007,27.24022,-5.881775,4.844757,1.167099,5.302636,30.014156,-10.521338
1570715434,-7.057434,24.238007,27.24022,-5.881775,4.844757,1.167099,5.302636,30.014156,-10.521338
1570715434,-7.057434,24.238007,27.24022,-5.881775,4.844757,1.167099,5.302636,30.014156,-10.521338
1570715434,-7.057434,24.238007,27.24022,-5.881775,4.844757,1.167099,5.302636,30.014156,-10.521338
1570715434,-7.057434,24.238007,27.24022,-5.881775,4.844757,1.167099,5.302636,30.014156,-10.521338
1570715434,-7.057434,24.238007,27.24022,-5.881775,4.844757,1.167099,5.302636,30.014156,-10.521338
1570715434,-7.057434,24.238007,27.24022,-5.881775,4.844757,1.167099,5.302636,30.014156,-10.521338
1570715434,-7.057434,24.238007,27.24022,-5.881775,4.844757,1.167099,5.302636,30.014156,-10.521338
1570715434,-7.057434,24.238007,27.24022,-5.881775,4.844757,1.167099,5.302636,30.014156,-10.521338
1570715434,-7.057434,24.238007,27.24022,-5.881775,4.844757,1.167099,5.302636,30.014156,-10.521338
1570715434,-7.057434,24.238007,27.24022,-5.881775,4.844757,1.167099,5.302636,30.014156,-10.521338
1570715434,-7.057434,24.238007,27.24022,-5.881775,4.844757,1.167099,5.302636,30.014156,-10.521338
1570715434,-7.057434,24.238007,27.24022,-5.881775,4.844757,1.167099,5.302636,30.014156,-10.521338
1570715434,-7.057434,24.238007,27.24022,-5.881775,4.844757,1.167099,5.302636,30.014156,-10.521338
1570715434,-7.057434,24.238007,27.24022,-5.881775,4.844757,1.167099,5.302636,30.014156,-10.521338
1570715434,-7.057434,24.238007,27.24022,-5.881775,4.844757,1.167099,5.302636,30.014156,-10.521338
1570715434,-7.057434,24.238007,27.24022,-5.881775,4.844757,1.167099,5.302636,30.014156,-10.521338
1570715434,-7.057434,24.238007,27.24022,-5.881775,4.844757,1.167099,5.302636,30.014156,-10.521338
1570715434,-7.057434,24.238007,27.24022,-5.881775,4.844757,1.167099,5.302636,30.014156,-10.521338
1570715434,-7.057434,24.238007,27.24022,-5.881775,4.844757,1.167099,5.302636,30.014156,-10.521338
1570715434,-7.057434,24.238007,27.24022,-5.881775,4.844757,1.167099,5.302636,30.014156,-10.521338
1570715434,-7.057434,24.238007,27.24022,-5.881775,4.844757,1.167099,5.302636,30.014156,-10.521338
1570715434,-7.057434,24.238007,27.24022,-5.881775,4.844757,1.167099,5.302636,30.014156,-10.521338
1570715434,-7.057434,24.238007,27.24022,-5.881775,4.844757,1.167099,5.302636,30.014156,-10.521338
1570715434,-7.057434,24.238007,27.24022,-5.881775,4.844757,1.167099,5.302636,30.014156,-10.521338
1570715434,-7.057434,24.238007,27.24022,-5.881775,4.844757,1.167099,5.302636,30.014156,-10.521338
1570715434,-7.057434,24.238007,27.24022,-5.881775,4.844757,1.167099,5.302636,30.014156,-10.521338
1570715434,-7.057434,24.238007,27.24022,-5.881775,4.844757,1.167099,5.302636,30.014156,-10.521338
1570715434,-7.057434,24.238007,27.24022,-5.881775,4.844757,1.167099,5.302636,30.014156,-10.521338
1570715434,-7.057434,24.238007,27.24022,-5.881775,4.844757,1.167099,5.302636,30.014156,-10.521338
1570715434,-7.057434,24.238007,27.24022,-5.881775,4.844757,1.167099,5.302636,30.014156,-10.521338
1570715434,-7.057434,24.238007,27.24022,-5.881775,4.844757,1.167099,5.302636,30.014156,-10.521338
1570715434,-7.057434,24.238007,27.24022,-5.881775,4.844757,1.167099,5.302636,30.014156,-10.521338
1570715434,-7.057434,24.238007,27.24022,-5.881775,4.844757,1.167099,5.302636,30.014156,-10.521338
1570715434,-7.057434,24.238007,27.24022,-5.881775,4.844757,1.167099,5.302636,30.014156,-10.521338
1570715434,-7.057434,24.238007,27.24022,-5.881775,4.844757,1.167099,5.302636,30.014156,-10.521338
1570715434,-7.057434,24.238007,27.24022,-5.881775,4.844757,1.167099,5.302636,30.014156,-10.521338
1570715434,-7.057434,24.238007,27.24022,-5.881775,4.844757,1.167099,5.302636,30.014156,-10.521338
1570715434,-7.057434,24.238007,27.24022,-5.881775,4.844757,1.167099,5.302636,30.014156,-10.521338
1570715434,-7.057434,24.238007,27.24022,-5.881775,4.844757,1.167099,5.302636,30.014156,-10.521338
1570715434,-7.057434,24.238007,27.24022,-5.881775,4.844757,1.167099,5.302636,30.014156,-10.521338
1570715434,-7.057434,24.238007,27.24022,-5.881775,4.844757,1.167099,5.302636,30.014156,-10.521338
1570715434,-7.057434,24.238007,27.24022,-5.881775,4.844757,1.167099,5.302636,30.014156,-10.521338
1570715434,-7.057434,24.238007,27.24022,-5.881775,4.844757,1.167099,5.302636,30.014156,-10.521338
1570715434,-7.057434,24.238007,27.24022,-5.881775,4.844757,1.167099,5.302636,30.014156,-10.521338
1570715434,-7.057434,24.238007,27.24022,-5.881775,4.844757,1.167099,5.302636,30.014156,-10.521338
1570715434,-7.057434,24.238007,27.24022,-5.881775,4.844757,1.167099,5.302636,30.014156,-10.521338
1570715434,-7.057434,24.238007,27.24022,-5.881775,4.844757,1.167099,5.302636,30.014156,-10.521338
1570715434,-7.057434,24.238007,27.24022,-5.881775,4.844757,1.167099,5.302636,30.014156,-10.521338
1570715434,-7.057434,24.238007,27.24022,-5.881775,4.844757,1.167099,5.302636,30.014156,-10.521338
1570715434,-7.057434,24.238007,27.24022,-5.881775,4.844757,1.167099,5.302636,30.014156,-10.521338
1570715434,-7.057434,24.238007,27.24022,-5.881775,4.844757,1.167099,5.302636,30.014156,-10.521338
1570715434,-7.057434,24.238007,27.24022,-5.881775,4.844757,1.167099,5.302636,30.014156,-10.521338
1570715434,-7.057434,24.238007,27.24022,-5.881775,4.844757,1.167099,5.302636,30.014156,-10.521338
1570715434,-7.057434,24.238007,27.24022,-5.881775,4.844757,1.167099,5.302636,30.014156,-10.521338
1570715434,-7.057434,24.238007,27.24022,-5.881775,4.844757,1.167099,5.302636,30.014156,-10.521338
1570715434,-7.057434,24.238007,27.24022,-5.881775,4.844757,1.167099,5.302636,30.014156,-10.521338
1570715434,-7.057434,24.238007,27.24022,-5.881775,4.844757,1.167099,5.302636,30.014156,-10.521338
1570715434,-7.057434,24.238007,27.24022,-5.881775,4.844757,1.167099,5.302636,30.014156,-10.521338
1570715434,-7.057434,24.238007,27.24022,-5.881775,4.844757,1.167099,5.302636,30.014156,-10.521338
1570715434,-7.057434,24.238007,27.24022,-5.881775,4.844757,1.167099,5.302636,30.014156,-10.521338
1570715434,-7.057434,24.238007,27.24022,-5.881775,4.844757,1.167099,5.302636,30.014156,-10.521338
1570715434,-7.057434,24.238007,27.24022,-5.881775,4.844757,1.167099,5.302636,30.014156,-10.521338
1570715434,-7.057434,24.238007,27.24022,-5.881775,4.844757,1.167099,5.302636,30.014156,-10.521338
1570715434,-7.057434,24.238007,27.24022,-5.881775,4.844757,1.167099,5.302636,30.014156,-10.521338
1570715434,-7.057434,24.238007,27.24022,-5.881775,4.844757,1.167099,5.302636,30.014156,-10.521338
1570715434,-7.057434,24.238007,27.24022,-5.881775,4.844757,1.167099,5.302636,30.014156,-10.521338
1570715434,-7.057434,24.238007,27.24022,-5.881775,4.844757,1.167099,5.302636,30.014156,-10.521338
1570715434,-7.057434,24.238007,27.24022,-5.881775,4.844757,1.167099,5.302636,30.014156,-10.521338
1570715434,-7.057434,24.238007,27.24022,-5.881775,4.844757,1.167099,5.302636,30.014156,-10.521338
1570715434,-7.057434,24.238007,27.24022,-5.881775,4.844757,1.167099,5.302636,30.014156,-10.521338
1570715434,-7.057434,24.238007,27.24022,-5.881775,4.844757,1.167099,5.302636,30.014156,-10.521338
1570715434,-7.057434,24.238007,27.24022,-5.881775,4.844757,1.167099,5.302636,30.014156,-10.521338
1570715434,-7.057434,24.238007,27.24022,-5.881775,4.844757,1.167099,5.302636,30.014156,-10.521338
1570715434,-7.057434,24.238007,27.24022,-5.881775,4.844757,1.167099,5.302636,30.014156,-10.521338
1570715434,-7.057434,24.238007,27.24022,-5.881775,4.844757,1.167099,5.302636,30.014156,-10.521338
1570715434,-7.057434,24.238007,27.24022,-5.881775,4.844757,1.167099,5.302636,30.014156,-10.521338
1570715434,-7.057434,24.238007,27.24022,-5.881775,4.844757,1.167099,5.302636,30.014156,-10.521338
1570715434,-7.057434,24.238007,27.24022,-5.881775,4.844757,1.167099,5.302636,30.014156,-10.521338
1570715434,-7.057434,24.238007,27.24022,-5.881775,4.844757,1.167099,5.302636,30.014156,-10.521338
1570715434,-7.057434,24.238007,27.24022,-5.881775,4.844757,1.167099,5.302636,30.014156,-10.521338
1570715434,-7.057434,24.238007,27.24022,-5.881775,4.844757,1.167099,5.302636,30.014156,-10.521338
1570715434,-7.057434,24.238007,27.24022,-5.881775,4.844757,1.167099,5.302636,30.014156,-10.521338
1570715434,-7.057434,24.238007,27.24022,-5.881775,4.844757,1.167099,5.302636,30.014156,-10.521338
1570715434,-7.057434,24.238007,27.24022,-5.881775,4.844757,1.167099,5.302636,30.014156,-10.521338
1570715434,-7.057434,24.238007,27.24022,-5.881775,4.844757,1.167099,5.302636,30.014156,-10.521338
1570715434,-7.057434,24.238007,27.24022,-5.881775,4.844757,1.167099,5.302636,30.014156,-10.521338
1570715434,-7.057434,24.238007,27.24022,-5.881775,4.844757,1.167099,5.302636,30.014156,-10.521338
1570715434,-7.057434,24.238007,27.24022,-5.881775,4.844757,1.167099,5.302636,30.014156,-10.521338
1570715434,-7.057434,24.238007,27.24022,-5.881775,4.844757,1.167099,5.302636,30.014156,-10.521338
1570715434,-7.057434,24.238007,27.24022,-5.881775,4.844757,1.167099,5.302636,30.014156,-10.521338
1570715434,-7.057434,24.238007,27.24022,-5.881775,4.844757,1.167099,5.302636,30.014156,-10.521338
1570715434,-7.057434,24.238007,27.24022,-5.881775,4.844757,1.167099,5.302636,30.014156,-10.521338
1570715434,-7.057434,24.238007,27.24022,-5.881775,4.844757,1.167099,5.302636,30.014156,-10.521338
1570715434,-7.057434,24.238007,27.24022,-5.881775,4.844757,1.167099,5.302636,30.014156,-10.521338
1570715434,-7.057434,24.238007,27.24022,-5.881775,4.844757,1.167099,5.302636,30.014156,-10.521338
1570715434,-7.057434,24.238007,27.24022,-5.881775,4.844757,1.167099,5.302636,30.014156,-10.521338
1570715434,-7.057434,24.238007,27.24022,-5.881775,4.844757,1.167099,5.302636,30.014156,-10.521338
1570715434,-7.057434,24.238007,27.24022,-5.881775,4.844757,1.167099,5.302636,30.014156,-10.521338
1570715434,-7.057434,24.238007,27.24022,-5.881775,4.844757,1.167099,5.302636,30.014156,-10.521338
1570715434,-7.057434,24.238007,27.24022,-5.881775,4.844757,1.167099,5.302636,30.014156,-10.521338
1570715434,-7.057434,24.238007,27.24022,-5.881775,4.844757,1.167099,5.302636,30.014156,-10.521338
1570715434,-7.057434,24.238007,27.24022,-5.881775,4.844757,1.167099,5.302636,30.014156,-10.521338
1570715434,-7.057434,24.238007,27.24022,-5.881775,4.844757,1.167099,5.302636,30.014156,-10.521338
1570715434,-7.057434,24.238007,27.24022,-5.881775,4.844757,1.167099,5.302636,30.014156,-10.521338
1570715434,-7.057434,24.238007,27.24022,-5.881775,4.844757,1.167099,5.302636,30.014156,-10.521338
1570715434,-7.057434,24.238007,27.24022,-5.881775,4.844757,1.167099,5.302636,30.014156,-10.521338
1570715434,-7.057434,24.238007,27.24022,-5.881775,4.844757,1.167099,5.302636,30.014156,-10.521338
1570715434,-7.057434,24.238007,27.24022,-5.881775,4.844757,1.167099,5.302636,30.014156,-10.521338
1570715434,-7.057434,24.238007,27.24022,-5.881775,4.844757,1.167099,5.302636,30.014156,-10.521338
1570715434,-7.057434,24.238007,27.24022,-5.881775,4.844757,1.167099,5.302636,30.014156,-10.521338
1570715434,-7.057434,24.238007,27.24022,-5.881775,4.844757,1.167099,5.302636,30.014156,-10.521338
1570715434,-7.057434,24.238007,27.24022,-5.881775,4.844757,1.167099,5.302636,30.014156,-10.521338
1570715434,-7.057434,24.238007,27.24022,-5.881775,4.844757,1.167099,5.302636,30.014156,-10.521338
1570715434,-7.057434,24.238007,27.24022,-5.881775,4.844757,1.167099,5.302636,30.014156,-10.521338
1570715434,-7.057434,24.238007,27.24022,-5.881775,4.844757,1.167099,5.302636,30.014156,-10.521338
1570715434,-7.057434,24.238007,27.24022,-5.881775,4.844757,1.167099,5.302636,30.014156,-10.521338
1570715434,-7.057434,24.238007,27.24022,-5.881775,4.844757,1.167099,5.302636,30.014156,-10.521338
1570715434,-7.057434,24.238007,27.24022,-5.881775,4.844757,1.167099,5.302636,30.014156,-10.521338
1570715434,-7.057434,24.238007,27.24022,-5.881775,4.844757,1.167099,5.302636,30.014156,-10.521338
1570715434,-7.057434,24.238007,27.24022,-5.881775,4.844757,1.167099,5.302636,30.014156,-10.521338
1570715434,-7.057434,24.238007,27.24022,-5.881775,4.844757,1.167099,5.302636,30.014156,-10.521338
1570715434,-7.057434,24.238007,27.24022,-5.881775,4.844757,1.167099,5.302636,30.014156,-10.521338
1570715434,-7.057434,24.238007,27.24022,-5.881775,4.844757,1.167099,5.302636,30.014156,-10.521338
1570715434,-7.057434,24.238007,27.24022,-5.881775,4.844757,1.167099,5.302636,30.014156,-10.521338
1570715434,-7.057434,24.238007,27.24022,-5.881775,4.844757,1.167099,5.302636,30.014156,-10.521338
1570715434,-7.057434,24.238007,27.24022,-5.881775,4.844757,1.167099,5.302636,30.014156,-10.521338
1570715434,-7.057434,24.238007,27.24022,-5.881775,4.844757,1.167099,5.302636,30.014156,-10.521338
1570715434,-7.057434,24.238007,27.24022,-5.881775,4.844757,1.167099,5.302636,30.014156,-10.521338
1570715434,-7.057434,24.238007,27.24022,-5.881775,4.844757,1.167099,5.302636,30.014156,-10.521338
1570715434,-7.057434,24.238007,27.24022,-5.881775,4.844757,1.167099,5.302636,30.014156,-10.521338
1570715434,-7.057434,24.238007,27.24022,-5.881775,4.844757,1.167099,5.302636,30.014156,-10.521338
1570715434,-7.057434,24.238007,27.24022,-5.881775,4.844757,1.167099,5.302636,30.014156,-10.521338
1570715434,-7.057434,24.238007,27.24022,-5.881775,4.844757,1.167099,5.302636,30.014156,-10.521338
1570715434,-7.057434,24.238007,27.24022,-5.881775,4.844757,1.167099,5.302636,30.014156,-10.521338
1570715434,-7.057434,24.238007,27.24022,-5.881775,4.844757,1.167099,5.302636,30.014156,-10.521338
1570715434,-7.057434,24.238007,27.24022,-5.881775,4.844757,1.167099,5.302636,30.014156,-10.521338
1570715434,-7.057434,24.238007,27.24022,-5.881775,4.844757,1.167099,5.302636,30.014156,-10.521338
1570715434,-7.057434,24.238007,27.24022,-5.881775,4.844757,1.167099,5.302636,30.014156,-10.521338
1570715434,-7.057434,24.238007,27.24022,-5.881775,4.844757,1.167099,5.302636,30.014156,-10.521338
1570715434,-7.057434,24.238007,27.24022,-5.881775,4.844757,1.167099,5.302636,30.014156,-10.521338
1570715434,0.671051,31.994019,34.23848,10.204788,-0.52098083,3.207077,5.302636,30.014156,-10.521338
1570715434,0.671051,31.994019,34.23848,10.204788,-0.52098083,3.207077,5.302636,30.014156,-10.521338
1570715434,0.671051,31.994019,34.23848,10.204788,-0.52098083,3.207077,5.302636,30.014156,-10.521338
1570715434,9.190826,0.6395569,0.73521423,0.9550934,1.2239227,-1.9892731,5.8127174,-9.693905,1.5152636
1570715434,15.828751,7.044052,16.991837,-0.7471924,0.56985474,0.8006592,17.187145,2.7252169,24.47492
1570715434,3.2771454,-1.530777,-3.0093231,-1.7805023,4.1331635,0.29571533,4.7771244,-8.910772,0.74200344
1570715434,-8.077362,-0.87716675,5.4841156,-4.009033,3.822113,-0.73013306,-8.256977,-9.636185,8.958937
1570715434,-5.424591,7.150589,-0.28231812,-4.1230164,1.8961029,-0.64172363,-5.557583,-1.3314619,2.0969887
1570715434,-4.4381714,11.436218,1.374466,-5.963791,3.2085114,-1.7549133,-4.3548837,1.4876118,1.346127
1570715434,8.459396,40.02298,12.26329,-6.7478333,1.9493713,-2.2534637,7.5553226,30.73951,8.026354
1570715434,-1.5316162,35.406967,12.5637665,-7.800308,-4.6627197,0.94233704,-0.78529704,28.619427,10.743736
1570715434,11.200745,27.09668,-12.812378,-8.159302,6.7910004,1.4589844,2.8194969,26.282402,-21.945045
1570715434,8.895142,8.078339,-13.870621,-4.7163696,8.885315,1.3034515,11.56655,1.0454693,-17.30048
1570715434,-10.056168,-5.19751,-7.7223053,-2.15654,7.6219025,0.009155273,-4.8982944,-10.722631,-13.9617405
1570715434,-8.243759,-9.077301,-9.12291,0.41926575,2.9944,0.018753052,-5.688114,-15.03407,-15.752296
1570715434,1.8394165,-7.4336853,-8.899063,3.30188,-1.4850464,0.07521057,4.3846455,-14.2198105,-13.300379
1570715434,0.28678894,-4.721054,-6.661682,4.296829,-5.1815033,1.51651,3.4609373,-11.870575,-11.0459
1570715434,-5.848358,3.453949,1.3565063,4.6302643,-6.7442474,1.9085236,-2.2632651,-6.015088,-5.474798
1570715434,-6.8934326,17.986755,3.0695648,2.3761597,-5.5809784,0.22860718,-7.3211317,7.689597,0.24707031
1570715434,-0.056777954,18.22258,5.722336,0.7974396,-2.8081055,-0.43399048,-2.748314,11.280855,1.6707478
1570715444,-0.056777954,18.22258,5.722336,0.7974396,-2.8081055,-0.43399048,-2.748314,11.280855,1.6707478
1570715444,-0.056777954,18.22258,5.722336,0.7974396,-2.8081055,-0.43399048,-2.748314,11.280855,1.6707478
1570715444,-0.056777954,18.22258,5.722336,0.7974396,-2.8081055,-0.43399048,-2.748314,11.280855,1.6707478
1570715444,-0.056777954,18.22258,5.722336,0.7974396,-2.8081055,-0.43399048,-2.748314,11.280855,1.6707478
1570715444,-0.056777954,18.22258,5.722336,0.7974396,-2.8081055,-0.43399048,-2.748314,11.280855,1.6707478
1570715444,-0.056777954,18.22258,5.722336,0.7974396,-2.8081055,-0.43399048,-2.748314,11.280855,1.6707478
1570715444,-0.056777954,18.22258,5.722336,0.7974396,-2.8081055,-0.43399048,-2.748314,11.280855,1.6707478
1570715444,-0.056777954,18.22258,5.722336,0.7974396,-2.8081055,-0.43399048,-2.748314,11.280855,1.6707478
1570715444,-0.056777954,18.22258,5.722336,0.7974396,-2.8081055,-0.43399048,-2.748314,11.280855,1.6707478
1570715444,-0.056777954,18.22258,5.722336,0.7974396,-2.8081055,-0.43399048,-2.748314,11.280855,1.6707478
1570715444,-0.056777954,18.22258,5.722336,0.7974396,-2.8081055,-0.43399048,-2.748314,11.280855,1.6707478
1570715444,-0.056777954,18.22258,5.722336,0.7974396,-2.8081055,-0.43399048,-2.748314,11.280855,1.6707478
1570715444,-0.056777954,18.22258,5.722336,0.7974396,-2.8081055,-0.43399048,-2.748314,11.280855,1.6707478
1570715444,-0.056777954,18.22258,5.722336,0.7974396,-2.8081055,-0.43399048,-2.748314,11.280855,1.6707478
1570715444,-0.056777954,18.22258,5.722336,0.7974396,-2.8081055,-0.43399048,-2.748314,11.280855,1.6707478
1570715444,-0.056777954,18.22258,5.722336,0.7974396,-2.8081055,-0.43399048,-2.748314,11.280855,1.6707478
1570715444,-0.056777954,18.22258,5.722336,0.7974396,-2.8081055,-0.43399048,-2.748314,11.280855,1.6707478
1570715444,-0.056777954,18.22258,5.722336,0.7974396,-2.8081055,-0.43399048,-2.748314,11.280855,1.6707478
1570715444,-0.056777954,18.22258,5.722336,0.7974396,-2.8081055,-0.43399048,-2.748314,11.280855,1.6707478
1570715444,-0.056777954,18.22258,5.722336,0.7974396,-2.8081055,-0.43399048,-2.748314,11.280855,1.6707478
1570715444,-0.056777954,18.22258,5.722336,0.7974396,-2.8081055,-0.43399048,-2.748314,11.280855,1.6707478
1570715444,-0.056777954,18.22258,5.722336,0.7974396,-2.8081055,-0.43399048,-2.748314,11.280855,1.6707478
1570715444,-0.056777954,18.22258,5.722336,0.7974396,-2.8081055,-0.43399048,-2.748314,11.280855,1.6707478
1570715444,-0.056777954,18.22258,5.722336,0.7974396,-2.8081055,-0.43399048,-2.748314,11.280855,1.6707478
1570715444,-0.056777954,18.22258,5.722336,0.7974396,-2.8081055,-0.43399048,-2.748314,11.280855,1.6707478
1570715444,-0.056777954,18.22258,5.722336,0.7974396,-2.8081055,-0.43399048,-2.748314,11.280855,1.6707478
1570715444,-0.056777954,18.22258,5.722336,0.7974396,-2.8081055,-0.43399048,-2.748314,11.280855,1.6707478
1570715444,-0.056777954,18.22258,5.722336,0.7974396,-2.8081055,-0.43399048,-2.748314,11.280855,1.6707478
1570715444,-0.056777954,18.22258,5.722336,0.7974396,-2.8081055,-0.43399048,-2.748314,11.280855,1.6707478
1570715444,-0.056777954,18.22258,5.722336,0.7974396,-2.8081055,-0.43399048,-2.748314,11.280855,1.6707478
1570715444,-0.056777954,18.22258,5.722336,0.7974396,-2.8081055,-0.43399048,-2.748314,11.280855,1.6707478
1570715444,-0.056777954,18.22258,5.722336,0.7974396,-2.8081055,-0.43399048,-2.748314,11.280855,1.6707478
1570715444,-0.056777954,18.22258,5.722336,0.7974396,-2.8081055,-0.43399048,-2.748314,11.280855,1.6707478
1570715444,-0.056777954,18.22258,5.722336,0.7974396,-2.8081055,-0.43399048,-2.748314,11.280855,1.6707478
1570715444,-0.056777954,18.22258,5.722336,0.7974396,-2.8081055,-0.43399048,-2.748314,11.280855,1.6707478
1570715444,-0.056777954,18.22258,5.722336,0.7974396,-2.8081055,-0.43399048,-2.748314,11.280855,1.6707478
1570715444,-0.056777954,18.22258,5.722336,0.7974396,-2.8081055,-0.43399048,-2.748314,11.280855,1.6707478
1570715444,-0.056777954,18.22258,5.722336,0.7974396,-2.8081055,-0.43399048,-2.748314,11.280855,1.6707478
1570715444,-0.056777954,18.22258,5.722336,0.7974396,-2.8081055,-0.43399048,-2.748314,11.280855,1.6707478
1570715444,-0.056777954,18.22258,5.722336,0.7974396,-2.8081055,-0.43399048,-2.748314,11.280855,1.6707478
1570715444,-0.056777954,18.22258,5.722336,0.7974396,-2.8081055,-0.43399048,-2.748314,11.280855,1.6707478
1570715444,-0.056777954,18.22258,5.722336,0.7974396,-2.8081055,-0.43399048,-2.748314,11.280855,1.6707478
1570715444,-0.056777954,18.22258,5.722336,0.7974396,-2.8081055,-0.43399048,-2.748314,11.280855,1.6707478
1570715444,-0.056777954,18.22258,5.722336,0.7974396,-2.8081055,-0.43399048,-2.748314,11.280855,1.6707478
1570715444,-0.056777954,18.22258,5.722336,0.7974396,-2.8081055,-0.43399048,-2.748314,11.280855,1.6707478
1570715444,-0.056777954,18.22258,5.722336,0.7974396,-2.8081055,-0.43399048,-2.748314,11.280855,1.6707478
1570715444,-0.056777954,18.22258,5.722336,0.7974396,-2.8081055,-0.43399048,-2.748314,11.280855,1.6707478
1570715444,-0.056777954,18.22258,5.722336,0.7974396,-2.8081055,-0.43399048,-2.748314,11.280855,1.6707478
1570715444,-0.056777954,18.22258,5.722336,0.7974396,-2.8081055,-0.43399048,-2.748314,11.280855,1.6707478
1570715444,-0.056777954,18.22258,5.722336,0.7974396,-2.8081055,-0.43399048,-2.748314,11.280855,1.6707478
1570715444,-0.056777954,18.22258,5.722336,0.7974396,-2.8081055,-0.43399048,-2.748314,11.280855,1.6707478
1570715444,-0.056777954,18.22258,5.722336,0.7974396,-2.8081055,-0.43399048,-2.748314,11.280855,1.6707478
1570715444,-0.056777954,18.22258,5.722336,0.7974396,-2.8081055,-0.43399048,-2.748314,11.280855,1.6707478
1570715444,-0.056777954,18.22258,5.722336,0.7974396,-2.8081055,-0.43399048,-2.748314,11.280855,1.6707478
1570715444,-0.056777954,18.22258,5.722336,0.7974396,-2.8081055,-0.43399048,-2.748314,11.280855,1.6707478
1570715444,-0.056777954,18.22258,5.722336,0.7974396,-2.8081055,-0.43399048,-2.748314,11.280855,1.6707478
1570715444,-0.056777954,18.22258,5.722336,0.7974396,-2.8081055,-0.43399048,-2.748314,11.280855,1.6707478
1570715444,-0.056777954,18.22258,5.722336,0.7974396,-2.8081055,-0.43399048,-2.748314,11.280855,1.6707478
1570715444,-0.056777954,18.22258,5.722336,0.7974396,-2.8081055,-0.43399048,-2.748314,11.280855,1.6707478
1570715444,-0.056777954,18.22258,5.722336,0.7974396,-2.8081055,-0.43399048,-2.748314,11.280855,1.6707478
1570715444,-0.056777954,18.22258,5.722336,0.7974396,-2.8081055,-0.43399048,-2.748314,11.280855,1.6707478
1570715444,-0.056777954,18.22258,5.722336,0.7974396,-2.8081055,-0.43399048,-2.748314,11.280855,1.6707478
1570715444,-0.056777954,18.22258,5.722336,0.7974396,-2.8081055,-0.43399048,-2.748314,11.280855,1.6707478
1570715444,-0.056777954,18.22258,5.722336,0.7974396,-2.8081055,-0.43399048,-2.748314,11.280855,1.6707478
1570715444,-0.056777954,18.22258,5.722336,0.7974396,-2.8081055,-0.43399048,-2.748314,11.280855,1.6707478
1570715444,-0.056777954,18.22258,5.722336,0.7974396,-2.8081055,-0.43399048,-2.748314,11.280855,1.6707478
1570715444,-0.056777954,18.22258,5.722336,0.7974396,-2.8081055,-0.43399048,-2.748314,11.280855,1.6707478
1570715444,-0.056777954,18.22258,5.722336,0.7974396,-2.8081055,-0.43399048,-2.748314,11.280855,1.6707478
1570715444,-0.056777954,18.22258,5.722336,0.7974396,-2.8081055,-0.43399048,-2.748314,11.280855,1.6707478
1570715444,-0.056777954,18.22258,5.722336,0.7974396,-2.8081055,-0.43399048,-2.748314,11.280855,1.6707478
1570715444,-0.056777954,18.22258,5.722336,0.7974396,-2.8081055,-0.43399048,-2.748314,11.280855,1.6707478
1570715444,-0.056777954,18.22258,5.722336,0.7974396,-2.8081055,-0.43399048,-2.748314,11.280855,1.6707478
1570715444,-0.056777954,18.22258,5.722336,0.7974396,-2.8081055,-0.43399048,-2.748314,11.280855,1.6707478
1570715444,-0.056777954,18.22258,5.722336,0.7974396,-2.8081055,-0.43399048,-2.748314,11.280855,1.6707478
1570715444,-0.056777954,18.22258,5.722336,0.7974396,-2.8081055,-0.43399048,-2.748314,11.280855,1.6707478
1570715444,-0.056777954,18.22258,5.722336,0.7974396,-2.8081055,-0.43399048,-2.748314,11.280855,1.6707478
1570715444,-0.056777954,18.22258,5.722336,0.7974396,-2.8081055,-0.43399048,-2.748314,11.280855,1.6707478
1570715444,-0.056777954,18.22258,5.722336,0.7974396,-2.8081055,-0.43399048,-2.748314,11.280855,1.6707478
1570715444,-0.056777954,18.22258,5.722336,0.7974396,-2.8081055,-0.43399048,-2.748314,11.280855,1.6707478
1570715444,-0.056777954,18.22258,5.722336,0.7974396,-2.8081055,-0.43399048,-2.748314,11.280855,1.6707478
1570715444,-0.056777954,18.22258,5.722336,0.7974396,-2.8081055,-0.43399048,-2.748314,11.280855,1.6707478
1570715444,-0.056777954,18.22258,5.722336,0.7974396,-2.8081055,-0.43399048,-2.748314,11.280855,1.6707478
1570715444,-0.056777954,18.22258,5.722336,0.7974396,-2.8081055,-0.43399048,-2.748314,11.280855,1.6707478
1570715444,-0.056777954,18.22258,5.722336,0.7974396,-2.8081055,-0.43399048,-2.748314,11.280855,1.6707478
1570715444,-0.056777954,18.22258,5.722336,0.7974396,-2.8081055,-0.43399048,-2.748314,11.280855,1.6707478
1570715444,-0.056777954,18.22258,5.722336,0.7974396,-2.8081055,-0.43399048,-2.748314,11.280855,1.6707478
1570715444,-0.056777954,18.22258,5.722336,0.7974396,-2.8081055,-0.43399048,-2.748314,11.280855,1.6707478
1570715444,-0.056777954,18.22258,5.722336,0.7974396,-2.8081055,-0.43399048,-2.748314,11.280855,1.6707478
1570715444,-0.056777954,18.22258,5.722336,0.7974396,-2.8081055,-0.43399048,-2.748314,11.280855,1.6707478
1570715444,-0.056777954,18.22258,5.722336,0.7974396,-2.8081055,-0.43399048,-2.748314,11.280855,1.6707478
1570715444,-0.056777954,18.22258,5.722336,0.7974396,-2.8081055,-0.43399048,-2.748314,11.280855,1.6707478
1570715444,-0.056777954,18.22258,5.722336,0.7974396,-2.8081055,-0.43399048,-2.748314,11.280855,1.6707478
1570715444,-0.056777954,18.22258,5.722336,0.7974396,-2.8081055,-0.43399048,-2.748314,11.280855,1.6707478
1570715444,-0.056777954,18.22258,5.722336,0.7974396,-2.8081055,-0.43399048,-2.748314,11.280855,1.6707478
1570715444,-0.056777954,18.22258,5.722336,0.7974396,-2.8081055,-0.43399048,-2.748314,11.280855,1.6707478
1570715444,-0.056777954,18.22258,5.722336,0.7974396,-2.8081055,-0.43399048,-2.748314,11.280855,1.6707478
1570715444,-0.056777954,18.22258,5.722336,0.7974396,-2.8081055,-0.43399048,-2.748314,11.280855,1.6707478
1570715444,-0.056777954,18.22258,5.722336,0.7974396,-2.8081055,-0.43399048,-2.748314,11.280855,1.6707478
1570715444,-0.056777954,18.22258,5.722336,0.7974396,-2.8081055,-0.43399048,-2.748314,11.280855,1.6707478
1570715444,-0.056777954,18.22258,5.722336,0.7974396,-2.8081055,-0.43399048,-2.748314,11.280855,1.6707478
1570715444,-0.056777954,18.22258,5.722336,0.7974396,-2.8081055,-0.43399048,-2.748314,11.280855,1.6707478
1570715444,-0.056777954,18.22258,5.722336,0.7974396,-2.8081055,-0.43399048,-2.748314,11.280855,1.6707478
1570715444,-0.056777954,18.22258,5.722336,0.7974396,-2.8081055,-0.43399048,-2.748314,11.280855,1.6707478
1570715444,-0.056777954,18.22258,5.722336,0.7974396,-2.8081055,-0.43399048,-2.748314,11.280855,1.6707478
1570715444,-0.056777954,18.22258,5.722336,0.7974396,-2.8081055,-0.43399048,-2.748314,11.280855,1.6707478
1570715444,-0.056777954,18.22258,5.722336,0.7974396,-2.8081055,-0.43399048,-2.748314,11.280855,1.6707478
1570715444,-0.056777954,18.22258,5.722336,0.7974396,-2.8081055,-0.43399048,-2.748314,11.280855,1.6707478
1570715444,-0.056777954,18.22258,5.722336,0.7974396,-2.8081055,-0.43399048,-2.748314,11.280855,1.6707478
1570715444,-0.056777954,18.22258,5.722336,0.7974396,-2.8081055,-0.43399048,-2.748314,11.280855,1.6707478
1570715444,-0.056777954,18.22258,5.722336,0.7974396,-2.8081055,-0.43399048,-2.748314,11.280855,1.6707478
1570715444,-0.056777954,18.22258,5.722336,0.7974396,-2.8081055,-0.43399048,-2.748314,11.280855,1.6707478
1570715444,-0.056777954,18.22258,5.722336,0.7974396,-2.8081055,-0.43399048,-2.748314,11.280855,1.6707478
1570715444,-0.056777954,18.22258,5.722336,0.7974396,-2.8081055,-0.43399048,-2.748314,11.280855,1.6707478
1570715444,-0.056777954,18.22258,5.722336,0.7974396,-2.8081055,-0.43399048,-2.748314,11.280855,1.6707478
1570715444,-0.056777954,18.22258,5.722336,0.7974396,-2.8081055,-0.43399048,-2.748314,11.280855,1.6707478
1570715444,-0.056777954,18.22258,5.722336,0.7974396,-2.8081055,-0.43399048,-2.748314,11.280855,1.6707478
1570715444,-0.056777954,18.22258,5.722336,0.7974396,-2.8081055,-0.43399048,-2.748314,11.280855,1.6707478
1570715444,-0.056777954,18.22258,5.722336,0.7974396,-2.8081055,-0.43399048,-2.748314,11.280855,1.6707478
1570715444,-0.056777954,18.22258,5.722336,0.7974396,-2.8081055,-0.43399048,-2.748314,11.280855,1.6707478
1570715444,-0.056777954,18.22258,5.722336,0.7974396,-2.8081055,-0.43399048,-2.748314,11.280855,1.6707478
1570715444,-0.056777954,18.22258,5.722336,0.7974396,-2.8081055,-0.43399048,-2.748314,11.280855,1.6707478
1570715444,-0.056777954,18.22258,5.722336,0.7974396,-2.8081055,-0.43399048,-2.748314,11.280855,1.6707478
1570715444,-0.056777954,18.22258,5.722336,0.7974396,-2.8081055,-0.43399048,-2.748314,11.280855,1.6707478
1570715444,-0.056777954,18.22258,5.722336,0.7974396,-2.8081055,-0.43399048,-2.748314,11.280855,1.6707478
1570715444,-0.056777954,18.22258,5.722336,0.7974396,-2.8081055,-0.43399048,-2.748314,11.280855,1.6707478
1570715444,-0.056777954,18.22258,5.722336,0.7974396,-2.8081055,-0.43399048,-2.748314,11.280855,1.6707478
1570715444,-0.056777954,18.22258,5.722336,0.7974396,-2.8081055,-0.43399048,-2.748314,11.280855,1.6707478
1570715444,-0.056777954,18.22258,5.722336,0.7974396,-2.8081055,-0.43399048,-2.748314,11.280855,1.6707478
1570715444,-0.056777954,18.22258,5.722336,0.7974396,-2.8081055,-0.43399048,-2.748314,11.280855,1.6707478
1570715444,-0.056777954,18.22258,5.722336,0.7974396,-2.8081055,-0.43399048,-2.748314,11.280855,1.6707478
1570715444,-0.056777954,18.22258,5.722336,0.7974396,-2.8081055,-0.43399048,-2.748314,11.280855,1.6707478
1570715444,-0.056777954,18.22258,5.722336,0.7974396,-2.8081055,-0.43399048,-2.748314,11.280855,1.6707478
1570715444,-0.056777954,18.22258,5.722336,0.7974396,-2.8081055,-0.43399048,-2.748314,11.280855,1.6707478
1570715444,-0.056777954,18.22258,5.722336,0.7974396,-2.8081055,-0.43399048,-2.748314,11.280855,1.6707478
1570715444,-0.056777954,18.22258,5.722336,0.7974396,-2.8081055,-0.43399048,-2.748314,11.280855,1.6707478
1570715444,-0.056777954,18.22258,5.722336,0.7974396,-2.8081055,-0.43399048,-2.748314,11.280855,1.6707478
1570715444,-0.056777954,18.22258,5.722336,0.7974396,-2.8081055,-0.43399048,-2.748314,11.280855,1.6707478
1570715444,-0.056777954,18.22258,5.722336,0.7974396,-2.8081055,-0.43399048,-2.748314,11.280855,1.6707478
1570715444,-0.056777954,18.22258,5.722336,0.7974396,-2.8081055,-0.43399048,-2.748314,11.280855,1.6707478
1570715444,-0.056777954,18.22258,5.722336,0.7974396,-2.8081055,-0.43399048,-2.748314,11.280855,1.6707478
1570715444,-0.056777954,18.22258,5.722336,0.7974396,-2.8081055,-0.43399048,-2.748314,11.280855,1.6707478
1570715444,-0.056777954,18.22258,5.722336,0.7974396,-2.8081055,-0.43399048,-2.748314,11.280855,1.6707478
1570715444,-0.056777954,18.22258,5.722336,0.7974396,-2.8081055,-0.43399048,-2.748314,11.280855,1.6707478
1570715444,-0.056777954,18.22258,5.722336,0.7974396,-2.8081055,-0.43399048,-2.748314,11.280855,1.6707478
1570715444,-0.056777954,18.22258,5.722336,0.7974396,-2.8081055,-0.43399048,-2.748314,11.280855,1.6707478
1570715444,-0.056777954,18.22258,5.722336,0.7974396,-2.8081055,-0.43399048,-2.748314,11.280855,1.6707478
1570715444,-0.056777954,18.22258,5.722336,0.7974396,-2.8081055,-0.43399048,-2.748314,11.280855,1.6707478
1570715444,-0.056777954,18.22258,5.722336,0.7974396,-2.8081055,-0.43399048,-2.748314,11.280855,1.6707478
1570715444,-0.056777954,18.22258,5.722336,0.7974396,-2.8081055,-0.43399048,-2.748314,11.280855,1.6707478
1570715444,-0.056777954,18.22258,5.722336,0.7974396,-2.8081055,-0.43399048,-2.748314,11.280855,1.6707478
1570715444,-0.056777954,18.22258,5.722336,0.7974396,-2.8081055,-0.43399048,-2.748314,11.280855,1.6707478
1570715444,-0.056777954,18.22258,5.722336,0.7974396,-2.8081055,-0.43399048,-2.748314,11.280855,1.6707478
1570715444,-0.056777954,18.22258,5.722336,0.7974396,-2.8081055,-0.43399048,-2.748314,11.280855,1.6707478
1570715444,-0.056777954,18.22258,5.722336,0.7974396,-2.8081055,-0.43399048,-2.748314,11.280855,1.6707478
1570715444,-0.056777954,18.22258,5.722336,0.7974396,-2.8081055,-0.43399048,-2.748314,11.280855,1.6707478
1570715444,-0.056777954,18.22258,5.722336,0.7974396,-2.8081055,-0.43399048,-2.748314,11.280855,1.6707478
1570715444,-0.056777954,18.22258,5.722336,0.7974396,-2.8081055,-0.43399048,-2.748314,11.280855,1.6707478
1570715444,-0.056777954,18.22258,5.722336,0.7974396,-2.8081055,-0.43399048,-2.748314,11.280855,1.6707478
1570715444,-0.056777954,18.22258,5.722336,0.7974396,-2.8081055,-0.43399048,-2.748314,11.280855,1.6707478
1570715444,-0.056777954,18.22258,5.722336,0.7974396,-2.8081055,-0.43399048,-2.748314,11.280855,1.6707478
1570715444,-0.056777954,18.22258,5.722336,0.7974396,-2.8081055,-0.43399048,-2.748314,11.280855,1.6707478
1570715444,-0.056777954,18.22258,5.722336,0.7974396,-2.8081055,-0.43399048,-2.748314,11.280855,1.6707478
1570715444,-0.056777954,18.22258,5.722336,0.7974396,-2.8081055,-0.43399048,-2.748314,11.280855,1.6707478
1570715444,-0.056777954,18.22258,5.722336,0.7974396,-2.8081055,-0.43399048,-2.748314,11.280855,1.6707478
1570715444,-0.056777954,18.22258,5.722336,0.7974396,-2.8081055,-0.43399048,-2.748314,11.280855,1.6707478
1570715444,-0.056777954,18.22258,5.722336,0.7974396,-2.8081055,-0.43399048,-2.748314,11.280855,1.6707478
1570715444,-0.056777954,18.22258,5.722336,0.7974396,-2.8081055,-0.43399048,-2.748314,11.280855,1.6707478
1570715444,-0.056777954,18.22258,5.722336,0.7974396,-2.8081055,-0.43399048,-2.748314,11.280855,1.6707478
1570715444,-0.056777954,18.22258,5.722336,0.7974396,-2.8081055,-0.43399048,-2.748314,11.280855,1.6707478
1570715444,-0.056777954,18.22258,5.722336,0.7974396,-2.8081055,-0.43399048,-2.748314,11.280855,1.6707478
1570715444,-0.056777954,18.22258,5.722336,0.7974396,-2.8081055,-0.43399048,-2.748314,11.280855,1.6707478
1570715444,-0.056777954,18.22258,5.722336,0.7974396,-2.8081055,-0.43399048,-2.748314,11.280855,1.6707478
1570715444,-0.056777954,18.22258,5.722336,0.7974396,-2.8081055,-0.43399048,-2.748314,11.280855,1.6707478
1570715444,-0.056777954,18.22258,5.722336,0.7974396,-2.8081055,-0.43399048,-2.748314,11.280855,1.6707478
1570715444,-0.056777954,18.22258,5.722336,0.7974396,-2.8081055,-0.43399048,-2.748314,11.280855,1.6707478
1570715444,-0.056777954,18.22258,5.722336,0.7974396,-2.8081055,-0.43399048,-2.748314,11.280855,1.6707478
1570715444,-0.056777954,18.22258,5.722336,0.7974396,-2.8081055,-0.43399048,-2.748314,11.280855,1.6707478
1570715444,-0.056777954,18.22258,5.722336,0.7974396,-2.8081055,-0.43399048,-2.748314,11.280855,1.6707478
1570715444,-0.056777954,18.22258,5.722336,0.7974396,-2.8081055,-0.43399048,-2.748314,11.280855,1.6707478
1570715444,-0.056777954,18.22258,5.722336,0.7974396,-2.8081055,-0.43399048,-2.748314,11.280855,1.6707478
1570715444,-0.056777954,18.22258,5.722336,0.7974396,-2.8081055,-0.43399048,-2.748314,11.280855,1.6707478
1570715444,-0.056777954,18.22258,5.722336,0.7974396,-2.8081055,-0.43399048,-2.748314,11.280855,1.6707478
1570715444,-0.056777954,18.22258,5.722336,0.7974396,-2.8081055,-0.43399048,-2.748314,11.280855,1.6707478
1570715444,-0.056777954,18.22258,5.722336,0.7974396,-2.8081055,-0.43399048,-2.748314,11.280855,1.6707478
1570715444,-0.056777954,18.22258,5.722336,0.7974396,-2.8081055,-0.43399048,-2.748314,11.280855,1.6707478
1570715444,-0.056777954,18.22258,5.722336,0.7974396,-2.8081055,-0.43399048,-2.748314,11.280855,1.6707478
1570715444,-0.056777954,18.22258,5.722336,0.7974396,-2.8081055,-0.43399048,-2.748314,11.280855,1.6707478
1570715444,-0.056777954,18.22258,5.722336,0.7974396,-2.8081055,-0.43399048,-2.748314,11.280855,1.6707478
1570715444,-0.056777954,18.22258,5.722336,0.7974396,-2.8081055,-0.43399048,-2.748314,11.280855,1.6707478
1570715444,-0.056777954,18.22258,5.722336,0.7974396,-2.8081055,-0.43399048,-2.748314,11.280855,1.6707478
1570715444,-0.056777954,18.22258,5.722336,0.7974396,-2.8081055,-0.43399048,-2.748314,11.280855,1.6707478
1570715444,-0.056777954,18.22258,5.722336,0.7974396,-2.8081055,-0.43399048,-2.748314,11.280855,1.6707478
1570715444,-0.056777954,18.22258,5.722336,0.7974396,-2.8081055,-0.43399048,-2.748314,11.280855,1.6707478
1570715444,-0.056777954,18.22258,5.722336,0.7974396,-2.8081055,-0.43399048,-2.748314,11.280855,1.6707478
1570715444,-0.056777954,18.22258,5.722336,0.7974396,-2.8081055,-0.43399048,-2.748314,11.280855,1.6707478
1570715444,-0.056777954,18.22258,5.722336,0.7974396,-2.8081055,-0.43399048,-2.748314,11.280855,1.6707478
1570715444,-0.056777954,18.22258,5.722336,0.7974396,-2.8081055,-0.43399048,-2.748314,11.280855,1.6707478
1570715444,-0.056777954,18.22258,5.722336,0.7974396,-2.8081055,-0.43399048,-2.748314,11.280855,1.6707478
1570715444,-0.056777954,18.22258,5.722336,0.7974396,-2.8081055,-0.43399048,-2.748314,11.280855,1.6707478
1570715444,-0.056777954,18.22258,5.722336,0.7974396,-2.8081055,-0.43399048,-2.748314,11.280855,1.6707478
1570715444,-0.056777954,18.22258,5.722336,0.7974396,-2.8081055,-0.43399048,-2.748314,11.280855,1.6707478
1570715444,-0.056777954,18.22258,5.722336,0.7974396,-2.8081055,-0.43399048,-2.748314,11.280855,1.6707478
1570715444,-0.056777954,18.22258,5.722336,0.7974396,-2.8081055,-0.43399048,-2.748314,11.280855,1.6707478
1570715444,-0.056777954,18.22258,5.722336,0.7974396,-2.8081055,-0.43399048,-2.748314,11.280855,1.6707478
1570715444,-0.056777954,18.22258,5.722336,0.7974396,-2.8081055,-0.43399048,-2.748314,11.280855,1.6707478
1570715444,-0.056777954,18.22258,5.722336,0.7974396,-2.8081055,-0.43399048,-2.748314,11.280855,1.6707478
1570715444,-0.056777954,18.22258,5.722336,0.7974396,-2.8081055,-0.43399048,-2.748314,11.280855,1.6707478
1570715444,-0.056777954,18.22258,5.722336,0.7974396,-2.8081055,-0.43399048,-2.748314,11.280855,1.6707478
1570715444,-0.056777954,18.22258,5.722336,0.7974396,-2.8081055,-0.43399048,-2.748314,11.280855,1.6707478
1570715444,-0.056777954,18.22258,5.722336,0.7974396,-2.8081055,-0.43399048,-2.748314,11.280855,1.6707478
1570715444,-0.056777954,18.22258,5.722336,0.7974396,-2.8081055,-0.43399048,-2.748314,11.280855,1.6707478
1570715444,-0.056777954,18.22258,5.722336,0.7974396,-2.8081055,-0.43399048,-2.748314,11.280855,1.6707478
1570715444,-0.056777954,18.22258,5.722336,0.7974396,-2.8081055,-0.43399048,-2.748314,11.280855,1.6707478
1570715444,-0.056777954,18.22258,5.722336,0.7974396,-2.8081055,-0.43399048,-2.748314,11.280855,1.6707478
1570715444,-0.056777954,18.22258,5.722336,0.7974396,-2.8081055,-0.43399048,-2.748314,11.280855,1.6707478
1570715444,-0.056777954,18.22258,5.722336,0.7974396,-2.8081055,-0.43399048,-2.748314,11.280855,1.6707478
1570715444,-0.056777954,18.22258,5.722336,0.7974396,-2.8081055,-0.43399048,-2.748314,11.280855,1.6707478
1570715444,-0.056777954,18.22258,5.722336,0.7974396,-2.8081055,-0.43399048,-2.748314,11.280855,1.6707478
1570715444,-0.056777954,18.22258,5.722336,0.7974396,-2.8081055,-0.43399048,-2.748314,11.280855,1.6707478
1570715444,-0.056777954,18.22258,5.722336,0.7974396,-2.8081055,-0.43399048,-2.748314,11.280855,1.6707478
1570715444,-0.056777954,18.22258,5.722336,0.7974396,-2.8081055,-0.43399048,-2.748314,11.280855,1.6707478
1570715444,-0.056777954,18.22258,5.722336,0.7974396,-2.8081055,-0.43399048,-2.748314,11.280855,1.6707478
1570715444,-0.056777954,18.22258,5.722336,0.7974396,-2.8081055,-0.43399048,-2.748314,11.280855,1.6707478
1570715444,-0.056777954,18.22258,5.722336,0.7974396,-2.8081055,-0.43399048,-2.748314,11.280855,1.6707478
1570715444,-0.056777954,18.22258,5.722336,0.7974396,-2.8081055,-0.43399048,-2.748314,11.280855,1.6707478
1570715444,-0.056777954,18.22258,5.722336,0.7974396,-2.8081055,-0.43399048,-2.748314,11.280855,1.6707478
1570715444,-0.056777954,18.22258,5.722336,0.7974396,-2.8081055,-0.43399048,-2.748314,11.280855,1.6707478
1570715444,-0.056777954,18.22258,5.722336,0.7974396,-2.8081055,-0.43399048,-2.748314,11.280855,1.6707478
1570715444,-0.056777954,18.22258,5.722336,0.7974396,-2.8081055,-0.43399048,-2.748314,11.280855,1.6707478
1570715444,-0.056777954,18.22258,5.722336,0.7974396,-2.8081055,-0.43399048,-2.748314,11.280855,1.6707478
1570715444,-0.056777954,18.22258,5.722336,0.7974396,-2.8081055,-0.43399048,-2.748314,11.280855,1.6707478
1570715444,-0.056777954,18.22258,5.722336,0.7974396,-2.8081055,-0.43399048,-2.748314,11.280855,1.6707478
1570715444,-0.056777954,18.22258,5.722336,0.7974396,-2.8081055,-0.43399048,-2.748314,11.280855,1.6707478
1570715444,-0.056777954,18.22258,5.722336,0.7974396,-2.8081055,-0.43399048,-2.748314,11.280855,1.6707478
1570715444,-0.056777954,18.22258,5.722336,0.7974396,-2.8081055,-0.43399048,-2.748314,11.280855,1.6707478
1570715444,-0.056777954,18.22258,5.722336,0.7974396,-2.8081055,-0.43399048,-2.748314,11.280855,1.6707478
1570715444,-0.056777954,18.22258,5.722336,0.7974396,-2.8081055,-0.43399048,-2.748314,11.280855,1.6707478
1570715444,-0.056777954,18.22258,5.722336,0.7974396,-2.8081055,-0.43399048,-2.748314,11.280855,1.6707478
1570715444,-0.056777954,18.22258,5.722336,0.7974396,-2.8081055,-0.43399048,-2.748314,11.280855,1.6707478
1570715444,-0.056777954,18.22258,5.722336,0.7974396,-2.8081055,-0.43399048,-2.748314,11.280855,1.6707478
1570715444,-0.056777954,18.22258,5.722336,0.7974396,-2.8081055,-0.43399048,-2.748314,11.280855,1.6707478
1570715444,-0.056777954,18.22258,5.722336,0.7974396,-2.8081055,-0.43399048,-2.748314,11.280855,1.6707478
1570715444,-0.056777954,18.22258,5.722336,0.7974396,-2.8081055,-0.43399048,-2.748314,11.280855,1.6707478
1570715444,-0.056777954,18.22258,5.722336,0.7974396,-2.8081055,-0.43399048,-2.748314,11.280855,1.6707478
1570715444,-0.056777954,18.22258,5.722336,0.7974396,-2.8081055,-0.43399048,-2.748314,11.280855,1.6707478
1570715444,-0.056777954,18.22258,5.722336,0.7974396,-2.8081055,-0.43399048,-2.748314,11.280855,1.6707478
1570715444,-0.056777954,18.22258,5.722336,0.7974396,-2.8081055,-0.43399048,-2.748314,11.280855,1.6707478
1570715444,-0.056777954,18.22258,5.722336,0.7974396,-2.8081055,-0.43399048,-2.748314,11.280855,1.6707478
1570715444,-0.056777954,18.22258,5.722336,0.7974396,-2.8081055,-0.43399048,-2.748314,11.280855,1.6707478
1570715444,-0.056777954,18.22258,5.722336,0.7974396,-2.8081055,-0.43399048,-2.748314,11.280855,1.6707478
1570715444,-0.056777954,18.22258,5.722336,0.7974396,-2.8081055,-0.43399048,-2.748314,11.280855,1.6707478
1570715444,-0.056777954,18.22258,5.722336,0.7974396,-2.8081055,-0.43399048,-2.748314,11.280855,1.6707478
1570715444,-0.056777954,18.22258,5.722336,0.7974396,-2.8081055,-0.43399048,-2.748314,11.280855,1.6707478
1570715444,-0.056777954,18.22258,5.722336,0.7974396,-2.8081055,-0.43399048,-2.748314,11.280855,1.6707478
1570715444,-0.056777954,18.22258,5.722336,0.7974396,-2.8081055,-0.43399048,-2.748314,11.280855,1.6707478
1570715444,-0.056777954,18.22258,5.722336,0.7974396,-2.8081055,-0.43399048,-2.748314,11.280855,1.6707478
1570715444,-0.056777954,18.22258,5.722336,0.7974396,-2.8081055,-0.43399048,-2.748314,11.280855,1.6707478
1570715444,-0.056777954,18.22258,5.722336,0.7974396,-2.8081055,-0.43399048,-2.748314,11.280855,1.6707478
1570715444,-0.056777954,18.22258,5.722336,0.7974396,-2.8081055,-0.43399048,-2.748314,11.280855,1.6707478
1570715444,-0.056777954,18.22258,5.722336,0.7974396,-2.8081055,-0.43399048,-2.748314,11.280855,1.6707478
1570715444,-0.056777954,18.22258,5.722336,0.7974396,-2.8081055,-0.43399048,-2.748314,11.280855,1.6707478
1570715444,-0.056777954,18.22258,5.722336,0.7974396,-2.8081055,-0.43399048,-2.748314,11.280855,1.6707478
1570715444,-0.056777954,18.22258,5.722336,0.7974396,-2.8081055,-0.43399048,-2.748314,11.280855,1.6707478
1570715444,-0.056777954,18.22258,5.722336,0.7974396,-2.8081055,-0.43399048,-2.748314,11.280855,1.6707478
1570715444,-0.056777954,18.22258,5.722336,0.7974396,-2.8081055,-0.43399048,-2.748314,11.280855,1.6707478
1570715444,-0.056777954,18.22258,5.722336,0.7974396,-2.8081055,-0.43399048,-2.748314,11.280855,1.6707478
1570715444,-0.056777954,18.22258,5.722336,0.7974396,-2.8081055,-0.43399048,-2.748314,11.280855,1.6707478
1570715444,-0.056777954,18.22258,5.722336,0.7974396,-2.8081055,-0.43399048,-2.748314,11.280855,1.6707478
1570715444,-0.056777954,18.22258,5.722336,0.7974396,-2.8081055,-0.43399048,-2.748314,11.280855,1.6707478
1570715444,-0.056777954,18.22258,5.722336,0.7974396,-2.8081055,-0.43399048,-2.748314,11.280855,1.6707478
1570715444,-0.056777954,18.22258,5.722336,0.7974396,-2.8081055,-0.43399048,-2.748314,11.280855,1.6707478
1570715444,-0.056777954,18.22258,5.722336,0.7974396,-2.8081055,-0.43399048,-2.748314,11.280855,1.6707478
1570715444,-0.056777954,18.22258,5.722336,0.7974396,-2.8081055,-0.43399048,-2.748314,11.280855,1.6707478
1570715444,-0.056777954,18.22258,5.722336,0.7974396,-2.8081055,-0.43399048,-2.748314,11.280855,1.6707478
1570715444,-0.056777954,18.22258,5.722336,0.7974396,-2.8081055,-0.43399048,-2.748314,11.280855,1.6707478
1570715444,-0.056777954,18.22258,5.722336,0.7974396,-2.8081055,-0.43399048,-2.748314,11.280855,1.6707478
1570715444,-0.056777954,18.22258,5.722336,0.7974396,-2.8081055,-0.43399048,-2.748314,11.280855,1.6707478
1570715444,-0.056777954,18.22258,5.722336,0.7974396,-2.8081055,-0.43399048,-2.748314,11.280855,1.6707478
1570715444,-0.056777954,18.22258,5.722336,0.7974396,-2.8081055,-0.43399048,-2.748314,11.280855,1.6707478
1570715444,-0.056777954,18.22258,5.722336,0.7974396,-2.8081055,-0.43399048,-2.748314,11.280855,1.6707478
1570715444,-0.056777954,18.22258,5.722336,0.7974396,-2.8081055,-0.43399048,-2.748314,11.280855,1.6707478
1570715444,-0.056777954,18.22258,5.722336,0.7974396,-2.8081055,-0.43399048,-2.748314,11.280855,1.6707478
1570715444,-0.056777954,18.22258,5.722336,0.7974396,-2.8081055,-0.43399048,-2.748314,11.280855,1.6707478
1570715444,-0.056777954,18.22258,5.722336,0.7974396,-2.8081055,-0.43399048,-2.748314,11.280855,1.6707478
1570715444,-0.056777954,18.22258,5.722336,0.7974396,-2.8081055,-0.43399048,-2.748314,11.280855,1.6707478
1570715444,-0.056777954,18.22258,5.722336,0.7974396,-2.8081055,-0.43399048,-2.748314,11.280855,1.6707478
1570715444,-0.056777954,18.22258,5.722336,0.7974396,-2.8081055,-0.43399048,-2.748314,11.280855,1.6707478
1570715444,-0.056777954,18.22258,5.722336,0.7974396,-2.8081055,-0.43399048,-2.748314,11.280855,1.6707478
1570715444,-0.056777954,18.22258,5.722336,0.7974396,-2.8081055,-0.43399048,-2.748314,11.280855,1.6707478
1570715444,-0.056777954,18.22258,5.722336,0.7974396,-2.8081055,-0.43399048,-2.748314,11.280855,1.6707478
1570715444,-0.056777954,18.22258,5.722336,0.7974396,-2.8081055,-0.43399048,-2.748314,11.280855,1.6707478
1570715444,-0.056777954,18.22258,5.722336,0.7974396,-2.8081055,-0.43399048,-2.748314,11.280855,1.6707478
1570715444,-0.056777954,18.22258,5.722336,0.7974396,-2.8081055,-0.43399048,-2.748314,11.280855,1.6707478
1570715444,-0.056777954,18.22258,5.722336,0.7974396,-2.8081055,-0.43399048,-2.748314,11.280855,1.6707478
1570715444,-0.056777954,18.22258,5.722336,0.7974396,-2.8081055,-0.43399048,-2.748314,11.280855,1.6707478
1570715444,-0.056777954,18.22258,5.722336,0.7974396,-2.8081055,-0.43399048,-2.748314,11.280855,1.6707478
1570715444,-0.056777954,18.22258,5.722336,0.7974396,-2.8081055,-0.43399048,-2.748314,11.280855,1.6707478
1570715444,-0.056777954,18.22258,5.722336,0.7974396,-2.8081055,-0.43399048,-2.748314,11.280855,1.6707478
1570715444,-0.056777954,18.22258,5.722336,0.7974396,-2.8081055,-0.43399048,-2.748314,11.280855,1.6707478
1570715444,-0.056777954,18.22258,5.722336,0.7974396,-2.8081055,-0.43399048,-2.748314,11.280855,1.6707478
1570715444,-0.056777954,18.22258,5.722336,0.7974396,-2.8081055,-0.43399048,-2.748314,11.280855,1.6707478
1570715444,-0.056777954,18.22258,5.722336,0.7974396,-2.8081055,-0.43399048,-2.748314,11.280855,1.6707478
1570715444,-0.056777954,18.22258,5.722336,0.7974396,-2.8081055,-0.43399048,-2.748314,11.280855,1.6707478
1570715444,-0.056777954,18.22258,5.722336,0.7974396,-2.8081055,-0.43399048,-2.748314,11.280855,1.6707478
1570715444,-0.056777954,18.22258,5.722336,0.7974396,-2.8081055,-0.43399048,-2.748314,11.280855,1.6707478
1570715444,-0.056777954,18.22258,5.722336,0.7974396,-2.8081055,-0.43399048,-2.748314,11.280855,1.6707478
1570715444,-0.056777954,18.22258,5.722336,0.7974396,-2.8081055,-0.43399048,-2.748314,11.280855,1.6707478
1570715444,-0.056777954,18.22258,5.722336,0.7974396,-2.8081055,-0.43399048,-2.748314,11.280855,1.6707478
1570715444,-0.056777954,18.22258,5.722336,0.7974396,-2.8081055,-0.43399048,-2.748314,11.280855,1.6707478
1570715444,-0.056777954,18.22258,5.722336,0.7974396,-2.8081055,-0.43399048,-2.748314,11.280855,1.6707478
1570715444,-0.056777954,18.22258,5.722336,0.7974396,-2.8081055,-0.43399048,-2.748314,11.280855,1.6707478
1570715444,-0.056777954,18.22258,5.722336,0.7974396,-2.8081055,-0.43399048,-2.748314,11.280855,1.6707478
1570715444,-0.056777954,18.22258,5.722336,0.7974396,-2.8081055,-0.43399048,-2.748314,11.280855,1.6707478
1570715444,-0.056777954,18.22258,5.722336,0.7974396,-2.8081055,-0.43399048,-2.748314,11.280855,1.6707478
1570715444,-0.056777954,18.22258,5.722336,0.7974396,-2.8081055,-0.43399048,-2.748314,11.280855,1.6707478
1570715444,-0.056777954,18.22258,5.722336,0.7974396,-2.8081055,-0.43399048,-2.748314,11.280855,1.6707478
1570715444,-0.056777954,18.22258,5.722336,0.7974396,-2.8081055,-0.43399048,-2.748314,11.280855,1.6707478
1570715444,-0.056777954,18.22258,5.722336,0.7974396,-2.8081055,-0.43399048,-2.748314,11.280855,1.6707478
1570715444,-0.056777954,18.22258,5.722336,0.7974396,-2.8081055,-0.43399048,-2.748314,11.280855,1.6707478
1570715444,-0.056777954,18.22258,5.722336,0.7974396,-2.8081055,-0.43399048,-2.748314,11.280855,1.6707478
1570715444,-0.056777954,18.22258,5.722336,0.7974396,-2.8081055,-0.43399048,-2.748314,11.280855,1.6707478
1570715444,-0.056777954,18.22258,5.722336,0.7974396,-2.8081055,-0.43399048,-2.748314,11.280855,1.6707478
1570715444,-0.056777954,18.22258,5.722336,0.7974396,-2.8081055,-0.43399048,-2.748314,11.280855,1.6707478
1570715444,-0.056777954,18.22258,5.722336,0.7974396,-2.8081055,-0.43399048,-2.748314,11.280855,1.6707478
1570715444,-0.056777954,18.22258,5.722336,0.7974396,-2.8081055,-0.43399048,-2.748314,11.280855,1.6707478
1570715444,-0.056777954,18.22258,5.722336,0.7974396,-2.8081055,-0.43399048,-2.748314,11.280855,1.6707478
1570715444,-0.056777954,18.22258,5.722336,0.7974396,-2.8081055,-0.43399048,-2.748314,11.280855,1.6707478
1570715444,-0.056777954,18.22258,5.722336,0.7974396,-2.8081055,-0.43399048,-2.748314,11.280855,1.6707478
1570715444,-0.056777954,18.22258,5.722336,0.7974396,-2.8081055,-0.43399048,-2.748314,11.280855,1.6707478
1570715444,-0.056777954,18.22258,5.722336,0.7974396,-2.8081055,-0.43399048,-2.748314,11.280855,1.6707478
1570715444,-0.056777954,18.22258,5.722336,0.7974396,-2.8081055,-0.43399048,-2.748314,11.280855,1.6707478
1570715444,-0.056777954,18.22258,5.722336,0.7974396,-2.8081055,-0.43399048,-2.748314,11.280855,1.6707478
1570715444,-1.2969818,-1.2267151,0.19291687,0.7974396,-2.8081055,-0.43399048,-7.7151823,30.752857,-3.6437895
1570715444,-1.2969818,-1.2267151,0.19291687,0.7974396,-2.8081055,-0.43399048,-7.7151823,30.752857,-3.6437895
1570715444,-1.2969818,-1.2267151,0.19291687,0.7974396,-2.8081055,-0.43399048,-7.7151823,30.752857,-3.6437895
1570715445,-1.2969818,-1.2267151,0.19291687,0.7974396,-2.8081055,-0.43399048,-7.7151823,30.752857,-3.6437895
1570715445,-1.2969818,-1.2267151,0.19291687,0.7974396,-2.8081055,-0.43399048,-7.7151823,30.752857,-3.6437895
1570715445,-5.630493,-2.130539,-2.7890472,-0.080337524,3.0093079,-0.19644165,-4.3340073,-9.867963,-7.0204535
1570715445,-5.630493,-2.130539,-2.7890472,-0.080337524,3.0093079,-0.19644165,-4.3340073,-9.867963,-7.0204535
1570715445,-5.630493,-2.130539,-2.7890472,-0.080337524,3.0093079,-0.19644165,-4.3340073,-9.867963,-7.0204535
1570715445,0.24009705,1.655899,3.8752136,2.271759,-6.4577026,0.92741394,1.230206,-7.135373,1.372437
1570715445,-0.8360901,10.488113,3.9159088,0.08477783,-2.3500366,0.9678955,-1.4958905,1.5608387,1.4004273
1570715445,6.730774,8.500916,4.473755,0.017669678,1.4391174,0.26802063,5.5387015,0.8548689,6.7159986
1570715445,1.7951355,6.0803833,-13.625214,-1.841217,-2.9796143,-0.46168518,3.991192,-6.6275263,-21.270897
1570715445,-39.996857,40.02298,-1.0245209,-1.5152588,-0.0011291504,-4.201828,5.070372,27.90866,9.057892
1570715448,-39.996857,40.02298,-1.0245209,-1.5152588,-0.0011291504,-4.201828,4.042082,-4.4297743,6.9633617
1570715448,-39.996857,40.02298,-1.0245209,-1.5152588,-0.0011291504,-4.201828,4.042082,-4.4297743,6.9633617
1570715448,-39.996857,40.02298,-1.0245209,-1.5152588,-0.0011291504,-4.201828,4.042082,-4.4297743,6.9633617
1570715448,-39.996857,40.02298,-1.0245209,-1.5152588,-0.0011291504,-4.201828,4.042082,-4.4297743,6.9633617
1570715448,-39.996857,40.02298,-1.0245209,-1.5152588,-0.0011291504,-4.201828,4.042082,-4.4297743,6.9633617
1570715448,-39.996857,40.02298,-1.0245209,-1.5152588,-0.0011291504,-4.201828,4.042082,-4.4297743,6.9633617
1570715448,-39.996857,40.02298,-1.0245209,-1.5152588,-0.0011291504,-4.201828,4.042082,-4.4297743,6.9633617
1570715448,-39.996857,40.02298,-1.0245209,-1.5152588,-0.0011291504,-4.201828,4.042082,-4.4297743,6.9633617
1570715448,-39.996857,40.02298,-1.0245209,-1.5152588,-0.0011291504,-4.201828,4.042082,-4.4297743,6.9633617
1570715448,-39.996857,40.02298,-1.0245209,-1.5152588,-0.0011291504,-4.201828,4.042082,-4.4297743,6.9633617
1570715448,-39.996857,40.02298,-1.0245209,-1.5152588,-0.0011291504,-4.201828,4.042082,-4.4297743,6.9633617
1570715448,-39.996857,40.02298,-1.0245209,-1.5152588,-0.0011291504,-4.201828,4.042082,-4.4297743,6.9633617
1570715448,-39.996857,40.02298,-1.0245209,-1.5152588,-0.0011291504,-4.201828,4.042082,-4.4297743,6.9633617
1570715448,-39.996857,40.02298,-1.0245209,-1.5152588,-0.0011291504,-4.201828,4.042082,-4.4297743,6.9633617
1570715448,-39.996857,40.02298,-1.0245209,-1.5152588,-0.0011291504,-4.201828,4.042082,-4.4297743,6.9633617
1570715448,-39.996857,40.02298,-1.0245209,-1.5152588,-0.0011291504,-4.201828,4.042082,-4.4297743,6.9633617
1570715448,-39.996857,40.02298,-1.0245209,-1.5152588,-0.0011291504,-4.201828,4.042082,-4.4297743,6.9633617
1570715448,-39.996857,40.02298,-1.0245209,-1.5152588,-0.0011291504,-4.201828,4.042082,-4.4297743,6.9633617
1570715448,-39.996857,40.02298,-1.0245209,-1.5152588,-0.0011291504,-4.201828,4.042082,-4.4297743,6.9633617
1570715448,-39.996857,40.02298,-1.0245209,-1.5152588,-0.0011291504,-4.201828,4.042082,-4.4297743,6.9633617
1570715448,-39.996857,40.02298,-1.0245209,-1.5152588,-0.0011291504,-4.201828,4.042082,-4.4297743,6.9633617
1570715448,-39.996857,40.02298,-1.0245209,-1.5152588,-0.0011291504,-4.201828,4.042082,-4.4297743,6.9633617
1570715448,-39.996857,40.02298,-1.0245209,-1.5152588,-0.0011291504,-4.201828,4.042082,-4.4297743,6.9633617
1570715448,-39.996857,40.02298,-1.0245209,-1.5152588,-0.0011291504,-4.201828,4.042082,-4.4297743,6.9633617
1570715448,-39.996857,40.02298,-1.0245209,-1.5152588,-0.0011291504,-4.201828,4.042082,-4.4297743,6.9633617
1570715448,-39.996857,40.02298,-1.0245209,-1.5152588,-0.0011291504,-4.201828,4.042082,-4.4297743,6.9633617
1570715448,-39.996857,40.02298,-1.0245209,-1.5152588,-0.0011291504,-4.201828,4.042082,-4.4297743,6.9633617
1570715448,-39.996857,40.02298,-1.0245209,-1.5152588,-0.0011291504,-4.201828,4.042082,-4.4297743,6.9633617
1570715448,-39.996857,40.02298,-1.0245209,-1.5152588,-0.0011291504,-4.201828,4.042082,-4.4297743,6.9633617
1570715448,-39.996857,40.02298,-1.0245209,-1.5152588,-0.0011291504,-4.201828,4.042082,-4.4297743,6.9633617
1570715448,-39.996857,40.02298,-1.0245209,-1.5152588,-0.0011291504,-4.201828,4.042082,-4.4297743,6.9633617
1570715448,-39.996857,40.02298,-1.0245209,-1.5152588,-0.0011291504,-4.201828,4.042082,-4.4297743,6.9633617
1570715448,-39.996857,40.02298,-1.0245209,-1.5152588,-0.0011291504,-4.201828,4.042082,-4.4297743,6.9633617
1570715448,-39.996857,40.02298,-1.0245209,-1.5152588,-0.0011291504,-4.201828,4.042082,-4.4297743,6.9633617
1570715448,-39.996857,40.02298,-1.0245209,-1.5152588,-0.0011291504,-4.201828,4.042082,-4.4297743,6.9633617
1570715448,-39.996857,40.02298,-1.0245209,-1.5152588,-0.0011291504,-4.201828,4.042082,-4.4297743,6.9633617
1570715448,-39.996857,40.02298,-1.0245209,-1.5152588,-0.0011291504,-4.201828,4.042082,-4.4297743,6.9633617
1570715448,-39.996857,40.02298,-1.0245209,-1.5152588,-0.0011291504,-4.201828,4.042082,-4.4297743,6.9633617
1570715448,-39.996857,40.02298,-1.0245209,-1.5152588,-0.0011291504,-4.201828,4.042082,-4.4297743,6.9633617
1570715448,-39.996857,40.02298,-1.0245209,-1.5152588,-0.0011291504,-4.201828,4.042082,-4.4297743,6.9633617
1570715448,-39.996857,40.02298,-1.0245209,-1.5152588,-0.0011291504,-4.201828,4.042082,-4.4297743,6.9633617
1570715448,-39.996857,40.02298,-1.0245209,-1.5152588,-0.0011291504,-4.201828,4.042082,-4.4297743,6.9633617
1570715448,-39.996857,40.02298,-1.0245209,-1.5152588,-0.0011291504,-4.201828,4.042082,-4.4297743,6.9633617
1570715448,-39.996857,40.02298,-1.0245209,-1.5152588,-0.0011291504,-4.201828,4.042082,-4.4297743,6.9633617
1570715448,-39.996857,40.02298,-1.0245209,-1.5152588,-0.0011291504,-4.201828,4.042082,-4.4297743,6.9633617
1570715448,-39.996857,40.02298,-1.0245209,-1.5152588,-0.0011291504,-4.201828,4.042082,-4.4297743,6.9633617
1570715448,-39.996857,40.02298,-1.0245209,-1.5152588,-0.0011291504,-4.201828,4.042082,-4.4297743,6.9633617
1570715448,-39.996857,40.02298,-1.0245209,-1.5152588,-0.0011291504,-4.201828,4.042082,-4.4297743,6.9633617
1570715448,-39.996857,40.02298,-1.0245209,-1.5152588,-0.0011291504,-4.201828,4.042082,-4.4297743,6.9633617
1570715448,-39.996857,40.02298,-1.0245209,-1.5152588,-0.0011291504,-4.201828,4.042082,-4.4297743,6.9633617
1570715448,-39.996857,40.02298,-1.0245209,-1.5152588,-0.0011291504,-4.201828,4.042082,-4.4297743,6.9633617
1570715448,-39.996857,40.02298,-1.0245209,-1.5152588,-0.0011291504,-4.201828,4.042082,-4.4297743,6.9633617
1570715448,-39.996857,40.02298,-1.0245209,-1.5152588,-0.0011291504,-4.201828,4.042082,-4.4297743,6.9633617
1570715448,-39.996857,40.02298,-1.0245209,-1.5152588,-0.0011291504,-4.201828,4.042082,-4.4297743,6.9633617
1570715448,-39.996857,40.02298,-1.0245209,-1.5152588,-0.0011291504,-4.201828,4.042082,-4.4297743,6.9633617
1570715448,-39.996857,40.02298,-1.0245209,-1.5152588,-0.0011291504,-4.201828,4.042082,-4.4297743,6.9633617
1570715448,-39.996857,40.02298,-1.0245209,-1.5152588,-0.0011291504,-4.201828,4.042082,-4.4297743,6.9633617
1570715448,-39.996857,40.02298,-1.0245209,-1.5152588,-0.0011291504,-4.201828,4.042082,-4.4297743,6.9633617
1570715448,-39.996857,40.02298,-1.0245209,-1.5152588,-0.0011291504,-4.201828,4.042082,-4.4297743,6.9633617
1570715448,-39.996857,40.02298,-1.0245209,-1.5152588,-0.0011291504,-4.201828,4.042082,-4.4297743,6.9633617
1570715448,-39.996857,40.02298,-1.0245209,-1.5152588,-0.0011291504,-4.201828,4.042082,-4.4297743,6.9633617
1570715448,-39.996857,40.02298,-1.0245209,-1.5152588,-0.0011291504,-4.201828,4.042082,-4.4297743,6.9633617
1570715448,-39.996857,40.02298,-1.0245209,-1.5152588,-0.0011291504,-4.201828,4.042082,-4.4297743,6.9633617
1570715448,-39.996857,40.02298,-1.0245209,-1.5152588,-0.0011291504,-4.201828,4.042082,-4.4297743,6.9633617
1570715448,-39.996857,40.02298,-1.0245209,-1.5152588,-0.0011291504,-4.201828,4.042082,-4.4297743,6.9633617
1570715448,-39.996857,40.02298,-1.0245209,-1.5152588,-0.0011291504,-4.201828,4.042082,-4.4297743,6.9633617
1570715448,-39.996857,40.02298,-1.0245209,-1.5152588,-0.0011291504,-4.201828,4.042082,-4.4297743,6.9633617
1570715448,-39.996857,40.02298,-1.0245209,-1.5152588,-0.0011291504,-4.201828,4.042082,-4.4297743,6.9633617
1570715448,-39.996857,40.02298,-1.0245209,-1.5152588,-0.0011291504,-4.201828,4.042082,-4.4297743,6.9633617
1570715448,-39.996857,40.02298,-1.0245209,-1.5152588,-0.0011291504,-4.201828,4.042082,-4.4297743,6.9633617
1570715448,-39.996857,40.02298,-1.0245209,-1.5152588,-0.0011291504,-4.201828,4.042082,-4.4297743,6.9633617
1570715448,-39.996857,40.02298,-1.0245209,-1.5152588,-0.0011291504,-4.201828,4.042082,-4.4297743,6.9633617
1570715448,-39.996857,40.02298,-1.0245209,-1.5152588,-0.0011291504,-4.201828,4.042082,-4.4297743,6.9633617
1570715448,-39.996857,40.02298,-1.0245209,-1.5152588,-0.0011291504,-4.201828,4.042082,-4.4297743,6.9633617
1570715448,-39.996857,40.02298,-1.0245209,-1.5152588,-0.0011291504,-4.201828,4.042082,-4.4297743,6.9633617
1570715448,-39.996857,40.02298,-1.0245209,-1.5152588,-0.0011291504,-4.201828,4.042082,-4.4297743,6.9633617
1570715448,-39.996857,40.02298,-1.0245209,-1.5152588,-0.0011291504,-4.201828,4.042082,-4.4297743,6.9633617
1570715448,-39.996857,40.02298,-1.0245209,-1.5152588,-0.0011291504,-4.201828,4.042082,-4.4297743,6.9633617
1570715448,-39.996857,40.02298,-1.0245209,-1.5152588,-0.0011291504,-4.201828,4.042082,-4.4297743,6.9633617
1570715448,-39.996857,40.02298,-1.0245209,-1.5152588,-0.0011291504,-4.201828,4.042082,-4.4297743,6.9633617
1570715448,-39.996857,40.02298,-1.0245209,-1.5152588,-0.0011291504,-4.201828,4.042082,-4.4297743,6.9633617
1570715448,-39.996857,40.02298,-1.0245209,-1.5152588,-0.0011291504,-4.201828,4.042082,-4.4297743,6.9633617
1570715448,-39.996857,40.02298,-1.0245209,-1.5152588,-0.0011291504,-4.201828,4.042082,-4.4297743,6.9633617
1570715448,-39.996857,40.02298,-1.0245209,-1.5152588,-0.0011291504,-4.201828,4.042082,-4.4297743,6.9633617
1570715448,-39.996857,40.02298,-1.0245209,-1.5152588,-0.0011291504,-4.201828,4.042082,-4.4297743,6.9633617
1570715448,-39.996857,40.02298,-1.0245209,-1.5152588,-0.0011291504,-4.201828,4.042082,-4.4297743,6.9633617
1570715448,-39.996857,40.02298,-1.0245209,-1.5152588,-0.0011291504,-4.201828,4.042082,-4.4297743,6.9633617
1570715448,-39.996857,40.02298,-1.0245209,-1.5152588,-0.0011291504,-4.201828,4.042082,-4.4297743,6.9633617
1570715448,-39.996857,40.02298,-1.0245209,-1.5152588,-0.0011291504,-4.201828,4.042082,-4.4297743,6.9633617
1570715448,-39.996857,40.02298,-1.0245209,-1.5152588,-0.0011291504,-4.201828,4.042082,-4.4297743,6.9633617
1570715448,-39.996857,40.02298,-1.0245209,-1.5152588,-0.0011291504,-4.201828,4.042082,-4.4297743,6.9633617
1570715448,-39.996857,40.02298,-1.0245209,-1.5152588,-0.0011291504,-4.201828,4.042082,-4.4297743,6.9633617
1570715448,-39.996857,40.02298,-1.0245209,-1.5152588,-0.0011291504,-4.201828,4.042082,-4.4297743,6.9633617
1570715448,-39.996857,40.02298,-1.0245209,-1.5152588,-0.0011291504,-4.201828,4.042082,-4.4297743,6.9633617
1570715448,-39.996857,40.02298,-1.0245209,-1.5152588,-0.0011291504,-4.201828,4.042082,-4.4297743,6.9633617
1570715448,-39.996857,40.02298,-1.0245209,-1.5152588,-0.0011291504,-4.201828,4.042082,-4.4297743,6.9633617
1570715448,-39.996857,40.02298,-1.0245209,-1.5152588,-0.0011291504,-4.201828,4.042082,-4.4297743,6.9633617
1570715448,-39.996857,40.02298,-1.0245209,-1.5152588,-0.0011291504,-4.201828,4.042082,-4.4297743,6.9633617
1570715448,-39.996857,40.02298,-1.0245209,-1.5152588,-0.0011291504,-4.201828,4.042082,-4.4297743,6.9633617
1570715448,-39.996857,40.02298,-1.0245209,-1.5152588,-0.0011291504,-4.201828,4.042082,-4.4297743,6.9633617
1570715448,-39.996857,40.02298,-1.0245209,-1.5152588,-0.0011291504,-4.201828,4.042082,-4.4297743,6.9633617
1570715448,-39.996857,40.02298,-1.0245209,-1.5152588,-0.0011291504,-4.201828,4.042082,-4.4297743,6.9633617
1570715448,-39.996857,40.02298,-1.0245209,-1.5152588,-0.0011291504,-4.201828,4.042082,-4.4297743,6.9633617
1570715448,-39.996857,40.02298,-1.0245209,-1.5152588,-0.0011291504,-4.201828,4.042082,-4.4297743,6.9633617
1570715448,-39.996857,40.02298,-1.0245209,-1.5152588,-0.0011291504,-4.201828,4.042082,-4.4297743,6.9633617
1570715448,-39.996857,40.02298,-1.0245209,-1.5152588,-0.0011291504,-4.201828,4.042082,-4.4297743,6.9633617
1570715448,-39.996857,40.02298,-1.0245209,-1.5152588,-0.0011291504,-4.201828,4.042082,-4.4297743,6.9633617
1570715448,-39.996857,40.02298,-1.0245209,-1.5152588,-0.0011291504,-4.201828,4.042082,-4.4297743,6.9633617
1570715448,-39.996857,40.02298,-1.0245209,-1.5152588,-0.0011291504,-4.201828,4.042082,-4.4297743,6.9633617
1570715448,-39.996857,40.02298,-1.0245209,-1.5152588,-0.0011291504,-4.201828,4.042082,-4.4297743,6.9633617
1570715448,-39.996857,40.02298,-1.0245209,-1.5152588,-0.0011291504,-4.201828,4.042082,-4.4297743,6.9633617
1570715448,-39.996857,40.02298,-1.0245209,-1.5152588,-0.0011291504,-4.201828,4.042082,-4.4297743,6.9633617
1570715448,-39.996857,40.02298,-1.0245209,-1.5152588,-0.0011291504,-4.201828,4.042082,-4.4297743,6.9633617
1570715448,-39.996857,40.02298,-1.0245209,-1.5152588,-0.0011291504,-4.201828,4.042082,-4.4297743,6.9633617
1570715448,-1.8320923,-2.135315,8.834793,-1.505661,-0.7457428,-0.3136139,-1.1846671,0.8680699,-0.07637215
1570715448,-1.0372162,-1.6923981,9.350739,-1.0028534,-1.1345673,-0.4403839,-0.7945966,1.4772825,0.4361477
1570715448,0.55493164,-1.3236847,8.930557,-1.0135193,-0.8299103,-0.42227173,0.6657673,2.0982919,-0.2335825
1570715448,1.1403198,-1.8815308,9.123291,-0.78874207,-0.47517395,-0.2592926,0.8248951,1.8059056,0.26644135
1570715448,0.34065247,-2.2550354,7.581436,-0.28593445,-0.023498535,-0.33065796,0.24623859,1.6614239,-1.0549784
1570715448,0.17425537,-2.3280487,7.528763,0.17958069,0.0574646,-0.016403198,-0.025155336,1.2163131,-1.3068733
1570715448,-0.5667572,-3.3264313,7.513199,0.45228577,0.07237244,0.26908875,-1.0266153,0.5233526,-1.4853029
1570715448,-0.2243805,-2.4968414,8.005203,0.18704224,-0.18115234,0.2147522,-0.5384207,1.1150093,-0.91118526
1570715448,-0.46858215,-2.9673004,8.235046,-0.019622803,-0.22802734,0.15083313,-0.7008983,0.70912695,-0.6700201
1570715449,-0.45780945,-3.0917969,8.457703,0.21154785,-0.15452576,0.21368408,-0.7805064,0.582705,-0.47969246
1570715449,-0.34768677,-3.0211792,8.612137,0.3990326,-0.0053863525,0.18173218,-0.3928704,0.39550424,-0.27718353
1570715449,-0.7295532,-3.2629852,8.651642,0.24668884,-0.023498535,0.23606873,-0.9900255,0.26832104,-0.44232368
1570715449,-1.3915558,-3.392273,9.070618,0.33511353,-0.1854248,0.26908875,-1.3577995,0.075120926,0.21524143
1570715449,-0.32972717,-3.4281921,8.304474,0.29463196,-0.07463074,0.20835876,-0.73659414,-0.15336418,-0.38557053
1570715449,-0.82173157,-3.6759949,9.344757,0.060272217,0.06492615,0.21902466,-0.98363364,-0.2588868,0.17476845
1570715449,-0.81214905,-3.0582886,9.044281,0.16893005,-0.115112305,0.31062317,-0.90104824,0.10457134,1.9359589E-4
1570715449,-0.50450134,-2.8440094,9.981613,0.3063507,-0.09486389,0.19238281,-0.24039055,0.024590254,0.8557005
1570715449,-0.41711426,-3.2869263,8.792892,0.07518005,-0.02243042,0.3596344,-0.6987507,-0.017468214,-0.21293259
1570715449,0.027008057,-4.5366974,9.254974,-0.70458984,-0.30152893,0.9455261,-0.17642127,-1.3418465,0.008330345
1570715449,0.4232483,-2.396286,10.300049,-0.7940674,-0.98542786,1.7572632,-0.03260407,0.86939335,0.81955624
1570715449,1.7568207,-2.0862427,12.444061,-0.24545288,-1.671463,2.2984161,1.5428965,1.149842,5.830453
1570715449,0.89012146,-0.6281738,11.182312,-0.41589355,-3.2725525,2.8321075,0.19540972,3.27455,2.3373585
1570715449,1.2241058,-3.3539734,10.810013,0.6717377,-2.3052979,3.1527557,0.24342155,0.6522074,1.9607964
1570715449,-0.26148987,-6.748947,4.726349,-0.08886719,-0.80540466,2.9471588,1.3264501,-5.062043,-8.092007
1570715449,-2.4904938,-3.799286,8.517563,0.067733765,0.66786194,3.617218,-3.4556866,-0.066847086,-0.7867851
1570715449,-0.97016907,-3.661621,10.827972,0.8027649,1.4231262,4.307495,-1.2347823,0.14819598,1.7433491
1570715449,-2.4174652,-2.3160858,10.116898,1.348175,1.3624115,5.3493347,-1.3388016,1.281075,1.465826
1570715449,-4.4309845,-2.545929,8.874298,1.1447144,0.8106079,6.121643,-2.4340518,0.07985926,0.15786743
1570715449,-3.3428192,-0.8747711,8.138077,0.6855774,0.051071167,7.0015564,-1.2704115,1.317358,-1.06073
1570715449,-1.8656006,-1.747467,8.728256,0.2871704,0.9128723,7.0399017,0.8464174,0.096668005,-0.5005617
1570715449,-3.563095,-2.8092804,9.421371,-0.0388031,1.9376526,6.227112,0.091109514,-1.7297566,0.6171274
1570715449,-2.8376465,-1.0387726,10.557419,-0.12402344,0.68170166,5.4143066,0.36221647,-1.4030429,1.0496397
1570715449,-5.2402344,-0.14694214,10.173157,0.12205505,-1.5106049,3.6928406,-1.5230308,-0.36134833,0.6993265
1570715449,-4.499222,0.29599,8.674377,0.6014252,-2.7313995,3.3200073,-1.469898,-0.479694,0.5646868
1570715449,-2.2283325,1.631958,7.1193542,0.4128723,-1.5542755,3.2156067,-0.16458678,0.1909101,-1.8496933
1570715449,-2.0667114,2.2795868,7.8208466,0.278656,-0.2727661,3.0387726,0.08444071,0.7913078,-1.5250978
1570715449,-2.5204163,1.6032257,8.412216,0.34895325,0.0382843,2.915207,-0.5561359,-0.06767404,-0.8869915
1570715449,-2.3013458,1.5828705,8.582214,0.3841095,0.159729,2.8587494,-0.3318509,-0.17908442,-0.6730175
1570715449,-2.7969513,3.0960083,9.887054,0.58226013,-0.42510986,2.1098633,-1.0252261,0.84791946,0.66638756
1570715449,-1.4657745,3.6215363,8.454117,0.40968323,-0.7137909,1.3918762,-0.109396935,1.2011211,-0.789402
1570715449,-1.6668854,4.226074,9.359131,-0.10484314,-0.8533325,0.8475189,-0.55465305,1.7242255,0.03524494
1570715449,-1.253891,3.2815552,9.766144,-0.36157227,-0.5870209,0.7963867,-0.50081795,0.8115027,0.45039845
1570715449,-0.21121216,3.5700684,11.574966,-0.43721008,-0.20458984,0.65045166,0.4628175,1.1748478,2.1524181
1570715450,-0.41711426,3.0601044,12.070557,-0.36050415,0.01272583,0.30636597,0.6771855,0.7329495,2.706646
1570715450,-0.64216614,2.9715118,11.695862,-0.35411072,-0.35372925,0.18812561,-0.071977556,0.74382186,2.2689905
1570715450,0.42445374,2.8482056,9.302856,-0.18153381,-0.3334961,0.34898376,0.81713474,0.69527483,-0.08402634
1570715450,0.8769531,3.4491577,8.5858,-0.0036468506,0.16291809,0.33512878,1.2287848,1.276195,-0.85536575
1570715450,1.1103821,3.2109375,8.784515,0.07305908,0.43563843,0.30104065,1.5506215,1.0734878,-0.69820404
1570715450,0.38015747,2.3777466,9.113724,-0.35517883,0.4111328,-0.06541443,1.1163057,0.27213216,-0.37271023
1570715450,-0.23634338,2.754837,9.8164215,-0.582077,0.34402466,-0.267807,0.42203176,0.7810724,0.30227757
1570715450,-0.3105774,2.7440643,9.942108,-0.38075256,0.12138367,-0.20602417,0.47412974,0.8340777,0.5393028
1570715450,-1.1892395,3.288742,8.792892,-0.20817566,0.43563843,0.12846375,-0.3477401,1.468301,-0.69178677
1570715450,-0.5032959,3.458725,6.8356323,-0.18153381,1.2324524,0.41290283,0.45117533,1.865881,-2.8009033
1570715450,-0.35725403,2.809906,8.673187,-0.15811157,0.67637634,0.32873535,1.0143372,1.1088469,-0.83355045
1570715450,-0.61582947,2.8278656,9.9552765,-0.12295532,-0.29727173,0.38839722,0.6703968,1.1326731,0.46648788
1570715450,-1.6345673,3.154663,10.054642,-0.06010437,-0.8533325,0.40011597,-0.5003214,1.4296788,0.633296
1570715450,-1.2311401,2.809906,9.237015,0.07518005,-0.28341675,0.65470886,-0.36020666,1.1031483,-0.2729988
1570715450,-0.3141632,2.8960876,8.668396,-0.07714844,-6.1035156E-5,0.81663513,0.51253015,1.1017479,-0.882802
1570715450,-0.29501343,2.9655304,9.446518,-0.31469727,-0.09913635,0.8283539,0.5240881,1.2561697,-0.21863365
1570715450,-0.5523834,3.4036713,9.369904,-0.0036468506,0.3088684,0.67707825,0.2108218,1.6802567,-0.15759277
1570715450,-1.3484497,3.3162842,9.65361,0.40968323,0.8659973,0.6856079,-0.41234618,1.5063119,0.17016602
1570715450,-1.3783875,3.7580109,9.727829,0.3766632,0.72750854,0.7420654,-0.27058756,1.8310068,0.25343895
1570715450,-1.7028046,4.059677,10.173157,0.26800537,0.2758484,0.559906,-0.49958122,2.0324376,0.7283716
1570715450,-1.7698364,3.6766052,10.568192,0.29463196,-0.1342926,0.3628235,-0.6010699,1.507685,1.1411839
1570715450,-1.6656952,3.6777954,10.237793,0.4363098,0.056396484,0.3404541,-0.5220741,1.3455539,0.90630436
1570715450,-1.4490204,4.885681,9.576996,0.34469604,0.47824097,0.4565735,-0.30562425,2.4417737,0.21177387
1570715450,-1.669281,4.3338165,9.505173,0.06666565,0.49528503,0.33512878,-0.30061352,1.7737432,0.13996887
1570715450,-2.306137,3.4156342,10.510742,-0.455307,0.5805054,0.11248779,-0.6712892,1.0476551,0.9420223
1570715450,-1.9122925,2.5585175,11.613266,-0.7482605,0.5304413,0.06561279,-0.28131783,0.22418308,2.1095095
1570715450,-1.9625702,2.3717651,12.314774,-0.37329102,0.62524414,0.04324341,-0.17144608,0.21501875,2.914629
1570715450,-2.539566,2.4998474,10.393417,0.2275238,0.49742126,0.06881714,-0.6153563,0.29869938,1.1470947
1570715450,-2.148117,2.7057495,8.337997,0.26905823,0.16824341,0.14445496,-0.40064824,0.11473632,-0.41203976
1570715450,-2.4497833,1.8534241,8.403839,0.048553467,-0.2440033,0.16043091,-0.30358458,-0.32407784,-1.1274576
