time,ax,ay,az,gx,gy,gz,la_x,la_y,la_z,fox,foy,foz
1570715199,9.3661175,2.5713725,3.6535518,-1.2474627,-1.0056403,0.08628905,1.163582,-0.61770403,-0.19153613
1570715199,8.949526,2.408567,3.6727054,-1.2975317,-1.6980833,-0.10759499,0.34955344,-0.6368576,0.07182605
1570715199,7.1586633,2.9783869,3.9983168,-1.0290768,-2.2882578,-0.7627526,-0.6512229,0.2825158,0.02873042
1570715199,6.315904,4.3478703,1.8435353,-0.60615396,-4.391154,-3.2299802,-2.5091233,0.6751649,-0.34476504
1570715199,11.257536,7.819463,0.15801731,-1.2421362,-3.2257192,-2.1497693,1.70946,3.5434184,-1.316811
1570715199,13.029245,4.9464207,0.48362875,-1.266638,-2.2935843,-0.5869786,4.271256,1.0247183,-0.78050977
1570715199,11.99495,3.0885203,1.5466543,-0.7723403,-2.8752365,-0.527322,3.5913026,-1.2449849,1.0486604
1570715199,10.500969,3.514688,0.25378537,-0.9140248,-3.0584674,-0.5731298,1.934515,-1.2449849,0.61770403
1570715199,10.625467,4.175488,-0.8283938,-1.2123079,-2.5982592,-0.35900506,2.1643584,-0.5267244,0.18674773
1570715199,9.854534,4.060566,-0.7517793,-0.907633,-2.4906642,-0.1384886,1.3072342,-1.1348516,0.6607997
1570715199,8.619126,4.060566,0.82360536,-0.80323386,-2.1305938,0.036220096,0.47405192,-1.0295067,2.078167
1570715199,8.015787,3.3566709,0.47405192,-1.6171207,-1.6512103,0.064983115,-0.023942016,-1.5705963,2.633622
1570715199,7.714118,4.4101195,-1.2785037,-1.1995244,-1.5468111,-0.22477765,-0.24899697,-1.1348516,0.90021986
1570715199,8.767567,5.8466406,-3.3901896,-0.66794115,-1.1601083,-0.33556855,0.48362875,0.29688102,-0.93373865
1570715199,9.160215,6.363788,-3.0502129,-0.08202787,-0.67220235,-0.14381509,1.532289,0.8475474,-0.7134721
1570715199,7.5944076,5.497087,-2.2170308,-0.24075711,-0.36859274,-0.1747087,0.08140286,0.25378537,0.4405331
1570715199,7.728483,5.3725886,-1.9680338,-0.07883197,-0.29508725,-0.32598087,0.22505496,0.21068975,0.2633622
1570715199,6.4547677,4.156334,-1.2162545,-0.5656727,-0.65089643,-0.61787224,-1.1061212,-1.3982137,1.8291701
1570715199,6.9767036,6.3063273,-3.4332852,-0.43144527,-0.7041613,-0.5283873,0.15801731,1.6663644,-1.1683705
1570715199,7.249643,4.3239284,-2.2218192,-0.7510343,-0.2801731,-0.4932325,-0.19632454,-1.6567876,0.6847417
1570715199,7.819463,4.697424,-2.585738,-0.936396,0.07457078,-0.63065577,0.89064306,-1.2641385,-0.110133275
1570715199,4.2185836,4.8602295,1.0630256,-1.277291,-0.054330144,-1.6757121,-2.920926,-2.6384103,3.892972
1570715199,6.6893997,8.848969,-0.91458505,-1.0652969,-0.73612016,-2.4619012,-0.34476504,1.8531121,0.842759
1570715199,1.4077905,-6.5696893,3.53863,-0.9193513,-1.99104,-3.6369238,-4.453215,-14.111424,5.731719
1570715199,7.575254,14.978126,-10.232818,2.1689446,-3.1436913,-4.208988,3.7924154,7.8529816,-7.2209125
1570715199,4.745308,7.97748,-5.0661306,-0.53690964,0.47299185,-0.4847101,1.4269443,0.5410896,-2.8107927
1570715199,3.6966474,6.751649,-1.9536686,-1.2645074,0.39735577,-0.5614115,-0.37349546,-1.4652514,1.2210429
1570715199,3.6727054,9.404425,-2.0159178,-1.3699719,0.4175964,-0.66368,0.59376204,-0.34955344,0.7278373
1570715199,5.118803,13.254301,-0.80924016,-0.95131016,0.380311,-0.54543203,0.91937345,4.31914,0.9911995
1570715200,3.7110126,15.691598,-1.2737153,-0.42824936,-0.56780326,-0.31319728,0.20111294,6.5026517,1.0534488
1570715200,4.6112323,12.26789,-1.3120226,0.4548818,-0.6029581,0.011718267,0.93373865,0.9864111,0.6943185
1570715200,4.247314,4.6830587,-4.0462008,0.9449184,-1.0716888,0.09374613,0.8714894,-4.2281604,-1.7238252
1570715200,3.2609026,7.627927,-3.2130187,0.63385165,0.24075711,-0.3206544,-0.023942016,-1.2545617,-0.6703765
1570715200,3.4093432,8.532935,-5.2002063,0.2769772,0.17683929,-0.1384886,0.15322891,0.009576807,-1.757344
1570715200,3.3039982,8.480263,-1.6711528,-0.61467636,0.53690964,-0.25673655,0.009576807,-0.4309563,0.7613561
1570715200,2.2457612,9.92636,-1.1875241,0.08522376,0.25673655,-0.15553336,-0.9959879,0.9528923,1.0821792
1570715200,2.6192567,9.011775,-2.1978772,0.4527512,0.0031958907,-0.07457078,-0.641646,0.06703765,0.15322891
1570715200,2.7485435,8.930372,-3.0071173,0.13635801,-0.02450183,-0.019175345,-0.521936,0.009576807,-0.56982
1570715200,2.3702598,3.0885203,-4.0557775,-0.14274979,0.07350549,0.053264845,-0.92895025,-5.8226986,-1.6472107
1570715200,3.2369606,1.661576,-0.6703765,-0.64876586,0.47512242,-0.018110048,-0.08140286,-7.326257,1.3934253
1570715200,2.9783869,6.612785,-0.545878,0.014914157,-0.12677033,-0.6913777,-0.23463176,-2.4420857,1.4077905
1570715200,2.4756045,7.1155677,-2.054225,0.82453984,-0.7925809,-0.96089786,-0.47405192,-1.982399,0.090979666
1570715200,2.4372973,12.0332575,-4.1276035,1.0514481,-0.7680791,-0.58058685,-0.23942018,2.9352913,-1.6136919
1570715200,2.4995465,12.124237,-2.6671407,-0.02450183,-0.091615535,-0.50921196,-0.009576807,3.0262709,0.0
1570715200,2.2026656,8.145074,-2.4420857,-0.33343795,0.009587673,-0.49429777,-0.17238252,-1.0103531,0.1340753
1570715200,3.7588966,17.745823,-2.0638018,0.14274979,0.025567126,0.091615535,0.5746084,6.7372837,0.17238252
1570715200,1.9488802,11.449073,-3.1747115,-1.022685,0.3440909,0.16085984,-0.48841715,2.4612393,-0.48362875
1570715200,2.2170308,11.616667,-1.7525556,-0.47512242,0.7009654,0.22264706,-0.38307226,1.6519991,-0.41180268
1570715200,2.2505496,8.130709,-1.4700398,0.0042611877,0.44103295,0.26312834,-0.770933,-0.842759,1.0007763
1570715200,3.9695864,11.549629,-1.910573,0.19601464,0.22264706,0.057526033,1.3311762,1.6950948,-0.7422025
1570715200,3.040636,11.142614,-2.408567,-0.17683929,-0.07670138,-0.1384886,0.56982,2.5713725,-0.2681506
1570715200,3.0502129,10.409989,-2.6479871,-0.35793978,0.23543063,-0.32491556,0.34476504,1.4652514,-0.7374141
1570715200,3.5003228,8.264784,-1.6567876,0.053264845,0.43890235,-0.36326626,0.9720459,-0.7757214,0.110133275
1570715200,3.3183637,6.8905125,-2.0350714,-0.1033338,0.3526133,-0.33130735,0.9816227,-2.5091233,0.22984336
1570715200,4.0174704,9.23683,-2.2505496,-0.31319728,0.2748466,-0.26845482,1.5227122,-0.16280572,-0.5746084
1570715200,3.8402996,9.346964,-2.5378537,-0.21625528,0.5358444,-0.22903883,1.5658079,0.12928689,-0.59376204
1570715200,3.892972,8.499416,-2.9879637,-0.12890093,0.91295946,-0.23010413,1.5131354,-0.7086837,-1.3742718
1570715200,4.9176903,8.106767,-3.9983168,0.25354066,1.0482522,-0.1054644,2.456451,-1.2114661,-2.3080103
1570715200,5.5497594,7.326257,-3.323152,0.46446946,1.0056403,0.09055024,3.1986535,-2.2601264,-1.757344
1570715200,4.9559975,8.39886,-3.3997664,0.44849002,0.94704896,0.14701098,2.6384103,-1.2162545,-1.5466543
1570715200,3.1507695,8.695741,-3.9695864,0.56354207,1.3433394,0.046873067,0.93852705,-0.6464345,-2.2888567
1570715200,2.1547816,8.010999,-3.6248214,0.59656626,1.4498692,-0.09055024,-0.36391866,-1.1444284,-2.0590134
1570715201,1.8579005,8.010999,-3.394978,0.65622294,1.4083226,-0.10652969,-0.78050977,-1.2641385,-1.6328455
1570715201,2.954445,8.054094,-3.1172507,0.7329243,1.2964664,0.022371236,0.090979666,-1.1252748,-1.3503298
1570715201,3.1268275,8.236053,-2.9592333,0.85436815,1.1696961,0.07670138,0.46926352,-1.0390835,-1.043872
1570715201,2.566584,8.207323,-2.9161377,0.93426543,1.0535786,0.07563608,-0.2633622,-0.8571242,-0.79008657
1570715201,3.0550013,8.106767,-2.9831753,0.95983255,1.0354686,0.089484945,0.090979666,-0.9576807,-0.6991069
1570715201,3.9552212,8.063671,-3.1507695,0.9044371,0.85436815,0.04900366,0.90500826,-0.92895025,-0.7038953
1570715201,4.381389,7.728483,-3.620033,0.8437152,0.7297284,-0.06285252,1.2737153,-1.1971009,-1.0055647
1570715201,4.5298295,6.622362,-4.2281604,0.7371855,0.5901745,-0.26738954,1.412579,-2.255338,-1.4700398
1570715201,4.831499,6.181829,-5.4061074,0.64450467,0.409074,-0.53371376,1.661576,-2.6001031,-2.3415294
1570715201,5.717354,5.023035,-6.4643445,0.19175345,0.47405714,-0.8469111,2.8491,-3.8738184,-3.5003228
1570715201,4.036624,4.960786,-5.889736,-0.04261188,0.6402435,-1.0024444,1.364695,-4.0078936,-2.9640217
1570715201,1.3934253,8.231265,-4.256891,-0.0021305939,0.43037996,-1.4115185,-0.06703765,-2.2649148,-1.8243817
1570715201,0.82360536,10.773908,-2.6240451,0.41653112,-0.31958908,-0.8724782,-1.2545617,1.6519991,0.32561144
1570715201,2.815581,7.881712,-2.7102363,0.089484945,-0.907633,-0.79045033,1.0295067,-1.2545617,0.36391866
1570715201,0.038307227,13.781025,-1.2210429,-0.5262567,-1.14839,-1.0194892,-1.3838485,4.572925,1.8339585
1570715201,-0.8283938,14.00608,-2.5761611,-0.9044371,-1.3891472,-1.0589051,-1.8626889,4.687847,0.29688102
1570715201,-0.8762778,13.575124,-3.4045548,-1.0599705,-1.7321728,-1.230418,-1.2114661,4.2521024,-0.51714754
1570715201,-3.0023289,13.43626,-5.66947,-1.3028581,-2.4384646,-1.7023445,-3.0023289,3.8977604,-3.371036
1570715201,3.4093432,16.04594,-4.855441,-1.7747847,-1.7385646,-1.8078089,2.705448,6.325481,-3.1555579
1570715201,1.3359646,15.586253,-5.5497594,-2.2861273,-1.8195271,-2.400114,3.9791632,6.167464,-5.521029
1570715201,1.6424223,14.5088625,-5.8322754,-2.2413847,-1.5116564,-1.610729,3.098097,6.2967505,-4.185065
1570715201,4.309563,3.098097,-7.589619,-1.287944,-0.8362581,-0.4133352,6.6989765,-6.4499793,-7.73806
1570715201,6.2584434,0.7613561,-7.0102224,-0.64876586,-0.1747087,-0.31745848,8.034941,-8.738836,-7.536947
1570715201,9.136273,-1.7381904,-6.4787097,0.5262567,1.2655728,0.31958908,11.247959,-10.606314,-7.264008
1570715201,6.6175733,-3.0502129,-2.2697031,1.4157796,2.0421743,1.1633042,10.208876,-12.588713,-2.7724855
1570715201,0.47405192,-2.9352913,-2.432509,1.9771911,2.249907,1.0780805,3.1651347,-13.551182,-1.1779473
1570715201,-3.3901896,9.902418,-3.2465374,2.156161,1.4935462,2.024064,-1.6519991,-1.6663644,-2.183512
1570715201,-8.317456,26.02976,-7.398083,1.1558472,1.2357445,3.494174,-7.833828,16.409859,-5.5497594
1570715201,-7.455544,25.862167,-1.4413095,1.2922052,0.3494174,3.4568887,-8.178593,16.333244,0.7613561
1570715201,10.376471,4.5872903,2.5378537,2.7900126,2.5929327,2.4331381,7.4986396,-2.6001031,5.463568
1570715201,17.257406,25.512613,-9.165004,2.4672277,1.5116564,3.146887,13.125013,14.499286,-2.6240451
1570715201,3.5098996,16.361975,-8.590396,0.3526133,-0.33556855,1.1238883,3.8833952,8.542512,-6.5122285
1570715201,-5.506664,10.821792,2.8395233,0.9097636,2.9583297,0.46127358,-9.035717,5.0374002,6.2488666
1570715202,-6.253655,-2.7006595,-1.4460979,-0.7584914,1.2613115,-0.6274599,-9.198523,-10.055647,2.087744
1570715202,-10.007763,-2.8634653,-3.7301662,-0.43464115,-0.5784562,-2.1337898,-13.345281,-11.894394,-0.033518825
1570715202,-4.477157,-2.4037786,-0.38307226,-1.2911398,-1.1515859,-2.2871926,-8.820239,-11.544841,2.3175871
1570715202,3.0071173,1.0582372,0.79966336,-0.95983255,-2.525819,-0.78192794,0.08619126,-9.035717,4.175488
1570715202,4.855441,2.6671407,-0.60333884,-0.70735717,-2.6983972,-0.43570644,2.0638018,-7.302315,2.8060043
1570715202,5.9567738,47.76911,-12.617443,1.8088742,-1.3497312,1.8078089,6.469133,28.07441,-16.036364
1570715202,-14.240712,1.9488802,4.735731,0.9193513,-0.7797974,-0.07244019,-16.376339,-6.9767036,8.183381
1570715202,-2.4899697,12.5264635,4.1611223,-0.96835494,-1.9079468,-2.3947875,-3.9839516,3.4237084,7.489063
1570715202,0.08140286,18.598158,-7.0820484,-2.1135492,-2.4927948,-0.7595567,-0.6943185,9.294291,-4.074931
1570715202,0.8858546,18.732235,-4.1419687,-1.9697341,-0.26525894,-1.2794216,0.41180268,9.26556,-1.6232687
1570715202,-1.4796166,6.1004257,-8.355764,-2.515166,-2.9050648,-1.786503,-1.3120226,-3.5290532,-6.5265937
1570715202,6.919243,11.449073,-6.277597,-1.9931706,-1.4903504,-0.6711371,7.5944076,1.7381904,-5.0757074
1570715202,6.7708025,2.7868507,-7.991845,-1.6639938,-0.80749506,0.09800732,7.4986396,-6.967127,-7.350199
1570715202,8.647857,0.9816227,-7.61835,-0.49429777,-0.09907261,-0.10972559,9.385271,-8.791509,-7.2927384
1570715202,8.805874,-2.3702598,-6.4739213,0.96835494,0.85330284,-0.02769772,9.5385,-12.133814,-5.995081
1570715202,4.156334,-4.9224787,-2.6384103,1.8717268,2.1433775,-0.1384886,4.865018,-14.652514,-1.6711528
1570715202,-0.1436521,-0.9672575,-2.3750482,2.2307317,2.812384,0.033024207,0.50757074,-10.611102,-0.7374141
1570715202,-2.9783869,2.6240451,-5.1762643,1.6991487,2.1412468,1.728977,-2.7485435,-6.9144545,-2.920926
1570715202,-4.960786,14.451402,-7.321469,1.0461216,1.6629285,3.9330764,-5.7125654,5.023035,-4.711789
1570715202,-7.129933,54.19515,10.596737,3.1831071,1.9164692,5.2423263,-9.485827,45.212105,13.747506
1570715202,16.807297,14.72434,2.3415294,3.5857894,0.6871165,0.81175625,11.405977,14.360422,6.7468605
1570715202,18.387468,15.868769,-2.1883004,2.0325866,3.3663383,2.0762637,14.384364,7.9631147,2.0159178
1570715202,3.2034419,14.5088625,-15.351622,-0.23436533,-0.36326626,1.0258809,-4.2185836,6.823475,-11.018116
1570715202,-6.9527617,6.2105594,9.921572,1.7055404,1.1462595,0.14168449,-11.425131,-1.2976574,14.355634
1570715202,-7.565677,-2.0207062,1.4221559,-1.5052645,1.553203,-1.7151281,-12.052411,-9.662998,5.60722
1570715202,-8.015787,-2.4660277,-2.72939,-1.7928947,-0.7254672,-2.5748227,-11.975797,-10.6158905,1.0103531
1570715202,-1.3934253,-0.90979666,-2.4851813,-1.324164,-2.3021066,-1.7438911,-4.596867,-9.471462,1.0534488
1570715202,3.763685,2.0446482,4.1659107,-0.8671517,-1.6309696,-0.6295905,2.27928,-6.7133417,7.6231384
1570715202,10.060435,9.251195,3.964798,-0.7297284,-2.3031719,0.3920293,7.627927,-0.2873042,8.327033
1570715202,5.5880666,34.00724,-12.74673,0.60402334,-2.0464354,0.10866029,2.791639,13.081918,-16.184803
1570715202,-11.7268,1.2880806,0.6655881,0.21305938,0.33024204,0.2428877,-14.499286,-2.7246015,5.434838
1570715202,0.9864111,5.473145,-1.0869676,-0.4538165,-0.886327,-1.9494934,-3.169923,-5.425261,3.1842883
1570715202,5.2002063,25.684996,-6.26802,-1.3870167,-2.589737,-1.1430637,3.8594532,14.69561,-4.5394063
1570715202,3.8019924,18.856733,-4.1371803,-1.9452322,-0.29828313,-1.9345793,2.8203697,9.667787,-2.480393
1570715203,2.3511062,11.027693,-8.762778,-2.016607,-1.1217576,-1.728977,2.006341,3.1651347,-6.0860605
1570715203,3.1794999,5.650316,-5.1571107,-2.4331381,-1.0951252,-0.61467636,2.9831753,-2.4516625,-4.132392
1570715203,5.8083334,3.1603463,-5.291186,-1.6874304,-0.8064298,-0.96302843,4.975151,-6.1626754,-3.739743
1570715203,8.480263,-2.2649148,-4.7070007,-0.31106672,0.02130594,-1.1419983,9.112331,-9.878476,-4.2425256
1570715203,7.4028716,-6.6271505,-4.644751,0.8011033,1.1931325,-0.81921333,8.805874,-15.749059,-3.6104562
1570715203,2.6288335,-7.6135616,-2.3175871,1.6054025,2.216883,-0.18110047,3.5098996,-17.266983,-0.8571242
1570715203,-0.5746084,2.6431987,-4.3287168,2.1114185,2.4011793,1.3145764,0.51714754,-8.7053175,-1.8339585
1570715203,-1.6424223,12.698846,-3.371036,1.8269843,1.8376372,2.515166,-1.7286136,3.2561142,-0.7086837
1570715203,-7.9487495,43.976696,-8.087613,2.1071572,2.533276,4.336824,-9.203311,37.6177,-12.038046
1570715203,-0.12449849,20.618866,2.1452048,1.4328244,1.2634422,3.0691204,-2.4037786,11.789049,5.755661
1570715203,10.0269165,13.651738,-0.78050977,2.00915,4.477443,1.4786321,6.9383965,5.2145715,3.1555579
1570715203,14.599842,13.9198885,-9.313444,1.7460216,0.13316211,1.980387,10.951078,2.0590134,-3.4476504
1570715203,2.3127987,15.519216,-2.231396,0.3483521,0.2098635,1.366776,-1.8052281,7.785944,2.1691468
1570715203,-3.6822822,9.02614,2.0829554,0.7851238,1.0908641,0.5198649,-7.335834,1.4652514,6.4978633
1570715203,-2.7341783,1.0007763,1.7764976,-1.0482522,0.95450604,-0.8266704,-7.225701,-6.603208,6.033388
1570715203,-6.2632318,-1.5179238,-1.6663644,-1.7758499,-0.113986775,-1.8312454,-10.232818,-8.748413,3.0550013
1570715203,-4.855441,-6.172252,-2.7006595,-1.3081846,-1.5255052,-1.5542682,-8.413225,-14.5567465,0.92895025
1570715203,3.7301662,-1.2210429,0.50278234,-1.2123079,-1.4903504,-0.014914157,0.49320555,-9.816227,3.9360676
1570715203,8.676587,7.0102224,11.9135475,-0.21838588,-2.4981213,0.57526034,5.5162406,-1.6041151,15.365987
1570715203,14.72434,59.5007,-15.155296,2.3372614,-1.306054,2.557778,11.544841,51.130573,-11.152191
1570715203,-7.867347,5.0278234,-0.9624691,0.3483521,0.5145384,-2.482142,-11.257536,-3.1507695,3.2465374
1570715203,1.2258313,9.892841,-5.8083334,-1.883445,-2.6280875,-0.7339896,-1.8052281,1.4317327,-1.8770541
1570715203,4.5441947,27.02096,-7.3310456,-0.17896989,-1.7161933,0.12677033,1.910573,18.387468,-3.490746
1570715203,6.847417,15.911864,-6.991069,-2.6685688,-2.3159556,-2.1870546,6.3446345,14.312538,-3.6966474
1570715203,1.388637,9.710882,-10.577583,-2.2978456,-1.7332381,-1.2549198,-0.04309563,0.50757074,-7.503428
1570715203,2.3558946,6.5265937,-6.83784,-3.0339656,-1.4179102,-0.054330144,0.5410896,-2.3654714,-4.936844
1570715203,8.552089,1.6472107,-7.728483,-2.0869167,-1.2037855,-0.07776668,6.5936313,-7.0581064,-5.6120086
1570715203,9.059659,-1.8770541,-6.564901,-0.29615256,-0.6274599,-0.527322,8.408437,-11.45865,-5.0661306
1570715203,7.1155677,-4.4196963,-5.080496,0.9747467,0.65089643,-0.82134396,6.8330517,-13.761871,-3.8163576
1570715203,2.743755,-4.807557,-1.934515,1.1249535,1.7630664,-0.23116943,2.801216,-14.5088625,-0.6368576
1570715203,-0.770933,-0.60812724,-1.7812861,1.6203166,2.1753364,1.0503827,-1.1492168,-10.989386,0.6607997
1570715203,-3.1890767,4.381389,-4.237737,1.5659865,1.9505587,1.9569504,-4.5681367,-5.755661,-1.067814
1570715203,-3.4524388,10.759542,-5.415684,1.374233,1.3294905,3.013725,-5.497087,0.2873042,0.29688102
1570715204,4.534618,50.096275,-4.6160207,2.8113186,2.7814903,4.6468253,-0.37828386,45.920788,-13.685257
1570715204,10.759542,12.421119,1.7525556,3.1117322,1.140933,0.012783563,4.663905,6.4068837,3.7732618
1570715204,14.298173,7.97748,-1.2641385,1.8397678,3.3194652,1.6341655,8.714894,-4.501099,5.2385135
1570715204,9.222465,16.151285,-13.661315,0.73185897,-0.6615494,0.47405714,6.7803793,9.859323,-9.844957
1570715204,0.05746084,13.8480625,0.94331545,0.6647453,1.0716888,0.094811425,-3.6774938,7.52737,2.8682537
1570715204,-1.460463,0.8523358,1.3934253,0.18429637,1.5063299,-0.868217,-7.359776,-6.6415157,7.666234
1570715204,-4.343082,-0.7422025,-0.9720459,-1.4583915,0.56780326,-2.1103532,-9.141062,-8.293514,3.122039
1570715204,-2.7389667,-1.8435353,-3.8115692,-1.6224473,-1.1292148,-1.9356445,-7.2592196,-9.006987,0.6991069
1570715204,-2.1883004,-2.1308396,-2.4612393,-0.95876724,-0.99818325,-0.89698005,-6.8665705,-10.97502,0.16280572
1570715204,1.6759412,2.4181437,3.9935284,-0.6274599,-1.6671897,-0.15979454,-3.0454245,-6.885724,5.12838
1570715204,16.122555,39.65756,-22.069752,0.98113847,-3.1159935,1.7087363,6.775591,18.435352,-16.381128
1570715204,2.1212628,3.667917,-2.72939,-0.26206306,-1.5883577,-0.018110048,-1.0486604,-2.303222,3.916914
1570715204,-0.22026655,14.504074,-0.019153614,-1.2250915,-1.0663623,-1.6757121,-5.0757074,3.7780502,6.7324953
1570715204,-3.1172507,17.956512,-6.196194,-2.744205,-2.0038235,-0.88845766,-6.3063273,9.399636,-2.6192567
1570715204,8.949526,15.773001,-8.374918,-1.4690444,-0.71481425,-0.6285252,6.0716953,6.967127,-5.1475334
1570715204,4.912902,10.888829,-8.935161,-2.3074331,-2.382004,-1.8088742,2.5713725,1.7764976,-6.14831
1570715204,3.9073372,10.0508585,-8.78672,-2.3180861,-1.4978075,-1.2282873,1.7286136,1.2162545,-7.201759
1570715204,6.133945,3.6966474,-6.4164605,-2.557778,-0.70948774,-0.3206544,4.525041,-5.8466406,-4.8362875
1570715204,6.540959,-0.7469909,-6.172252,-1.5382888,0.094811425,-0.7350549,5.085284,-10.390836,-5.171476
1570715204,6.4404025,-3.2225955,-5.717354,0.091615535,0.24821419,-0.89591473,5.233725,-12.919112,-4.903325
1570715204,4.5394063,-7.2448545,-4.285621,1.4040613,0.60828453,-0.77340555,3.572149,-16.94616,-3.2225955
1570715204,-1.1731589,-7.0341644,-2.6192567,2.2211442,1.4306937,0.012783563,-2.0685902,-16.668432,-1.0247183
1570715204,-1.0295067,6.157887,-1.1204864,2.625957,1.8184619,1.5968801,-1.2354081,-3.2992098,1.1300632
1570715204,-4.999093,50.129795,-20.556616,4.0928707,1.9825176,2.2680173,-6.943185,41.036617,-17.439365
1570715204,3.5482068,19.82878,-0.12928689,0.54649734,0.37391922,3.6550338,0.45968673,11.15698,3.2609026
1570715204,10.912771,13.804967,0.6703765,2.9828315,4.175964,0.57952154,7.129933,5.530606,4.333505
1570715204,17.099388,8.255207,-6.3350577,2.6504588,0.9491796,1.8259189,12.990938,-1.9967642,0.31124622
1570715204,7.4746976,14.010868,-5.0517654,0.7244019,0.54223615,1.56066,4.8698063,7.632715,-1.541866
1570715204,-0.6895301,12.679692,-0.51714754,1.0993865,1.0610358,0.9374613,-5.841852,5.559336,3.8307228
1570715204,-3.5577838,3.064578,0.7613561,0.82560515,1.4338896,-0.122509144,-8.576031,-3.1172507,4.9416323
1570715204,-7.599196,0.22026655,1.3455414,-0.57632565,0.26845482,-1.7119322,-11.9614315,-6.7085533,5.592855
1570715204,-6.196194,-1.6567876,-0.8810662,-1.3827554,-1.0130974,-1.9441669,-11.693281,-7.7189064,3.1890767
1570715204,1.0582372,-2.9161377,-1.2258313,-1.474371,-1.2570504,-0.5646074,-4.4196963,-11.142614,2.7964275
1570715205,5.6790466,0.79966336,-0.34955344,-0.30680552,-1.3039235,-0.20027582,0.9864111,-8.42759,2.6527755
1570715205,7.3645644,14.978126,-0.6512229,-1.2826176,-3.3013551,0.48151422,3.3854012,3.596091,17.860744
1570715205,7.326257,23.999477,-3.6822822,0.9417225,-0.03089361,3.6656868,12.789825,39.786842,-5.1906295
1570715205,-4.31914,1.8387469,2.944868,-0.07670138,1.6373614,-1.1867408,-8.590396,-4.477157,4.4005427
1570715205,-3.3997664,13.541605,-5.659893,-1.844029,-3.4792597,-0.15553336,-6.540959,1.9632454,-2.0494366
1570715205,13.187263,28.835766,-3.7780502,0.29082605,-0.5614115,0.09800732,7.489063,19.958065,0.33039984
1570715205,8.073248,10.084377,-7.350199,-1.9356445,-1.5191134,-2.3361962,7.9631147,2.5139117,-3.1124623
1570715205,3.1411927,10.160992,-10.836157,-2.795339,-0.9118942,-0.98007315,0.59855044,1.5131354,-7.565677
1570715205,3.9121256,5.497087,-6.8282633,-2.8134491,-0.5592809,-0.46553475,0.8762778,-2.8060043,-3.4859576
1570715205,8.901642,0.78050977,-6.7851677,-1.7012792,-0.5614115,-0.64343935,5.9280434,-7.0341644,-5.2002063
1570715205,5.7604494,-4.2281604,-6.143522,-0.05113425,-0.3898987,-0.70948774,4.213795,-12.98615,-3.9552212
1570715205,3.0502129,-6.7851677,-4.237737,0.8692823,0.936396,-0.7510343,1.6903064,-15.935806,-2.6910827
1570715205,1.8866309,-3.7732618,-0.9864111,1.5649211,1.7066057,0.43037996,0.58418524,-14.077906,1.1492168
1570715205,-1.4652514,2.60968,-2.4372973,1.7747847,1.4871545,1.485024,-2.858677,-7.393295,0.8571242
1570715205,-2.15957,7.038953,-4.390966,1.2922052,1.3444047,2.1593568,-4.783615,-1.8770541,-1.2737153
1570715205,2.4372973,22.529438,-15.380352,1.7023445,0.89698005,2.9082606,-0.9816227,13.977349,-12.014104
1570715205,9.610326,31.330523,3.7014358,1.6022066,1.1270841,2.468293,5.094861,23.400927,7.302315
1570715205,12.258312,0.36391866,1.9919758,3.2843103,1.4935462,1.4221714,7.541735,-3.2704794,7.101202
1570715205,16.888699,11.209652,-6.4260373,1.3518618,1.5872924,1.2645074,11.616667,4.2281604,-1.9871874
1570715205,5.5880666,13.163321,-10.884041,0.19494934,0.24501829,0.5731298,0.07182605,6.411672,-6.3829417
1570715205,-0.11971009,12.545617,1.2401965,0.36539686,0.91722065,0.1747087,-5.7987566,5.865794,5.631162
1570715205,-0.5650316,5.21936,1.0007763,-0.09055024,0.419727,-0.9822038,-6.2392898,-1.4939818,5.3438582
1570715205,-2.2457612,1.8195933,-3.3327289,-1.2250915,-0.26952013,-2.0283253,-7.608773,-5.2624555,0.80924016
1570715205,0.02873042,-3.145981,-3.6487634,-1.1132354,-0.41653112,-1.8717268,-5.12838,-8.987833,0.4165911
1570715205,-0.4357447,-2.1883004,-3.5577838,-1.0312074,-0.50921196,-0.067113705,-5.085284,-9.940725,0.22984336
1570715205,0.80445176,2.4372973,6.3350577,-0.19494934,-1.0216198,0.789385,-4.620809,-6.363788,7.359776
1570715205,18.282124,36.540306,-8.647857,1.1036476,-1.99104,2.1391163,13.479356,29.113493,-4.4005427
1570715205,4.247314,9.337387,-1.9057846,-0.33769912,-0.01384886,-1.4456079,-0.39264908,1.8914193,2.4756045
1570715205,4.247314,16.888699,-5.2049947,-1.5159175,-0.84158456,-0.9278736,0.8523358,7.656657,-2.906561
1570715205,0.36870706,16.021997,-6.540959,-1.7460216,-1.2016549,-0.89591473,-5.5401826,6.9000893,-1.934515
1570715205,9.284714,12.703634,-6.090849,-1.9313834,-1.2165691,-1.8695961,5.645528,4.31914,-2.528277
1570715205,4.534618,11.951855,-9.868899,-2.0506966,-1.6405573,-2.3383267,1.1971009,3.1316159,-6.6846113
1570715205,6.220136,10.01734,-6.196194,-2.4927948,-0.73185897,-1.3316212,3.1794999,1.7142484,-4.6399627
1570715205,5.257667,1.8387469,-6.2009826,-2.4128976,-0.07137489,-0.36220095,3.2704794,-7.5225816,-4.261679
1570715206,5.746084,-2.4277205,-5.5497594,-0.92148185,-0.42611876,-0.81175625,3.7541082,-11.9135475,-4.050989
1570715206,6.2967505,-6.7947445,-5.094861,0.487906,0.070309594,-0.83732337,4.4915223,-15.332468,-3.9695864
1570715206,2.753332,-7.85777,-3.3614593,1.5723783,1.3092499,-0.52945256,2.0207062,-17.678785,-2.0590134
1570715206,-0.2777274,-2.815581,-2.3127987,2.1593568,1.7524135,0.527322,-1.6998832,-13.441049,0.15801731
1570715206,-1.8387469,8.42759,-1.9632454,2.0826554,1.5798354,2.0965044,-3.7014358,-2.930503,-0.4261679
1570715206,-2.8203697,33.499672,-17.81765,3.1159935,1.9132733,2.7420743,-5.305551,17.798496,-12.780249
1570715206,8.566454,27.700914,0.41180268,1.3902125,1.2421362,4.2814283,2.7246015,24.387339,-0.60333884
1570715206,12.378023,9.787497,4.936844,3.0829694,3.2438293,0.7307937,6.631939,5.6120086,7.3645644
1570715206,17.381905,11.645397,-9.562442,2.3979833,-0.8660864,1.3124459,12.052411,-0.23463176,-1.6998832
1570715206,5.535394,13.867216,-9.619903,0.04900366,0.5539544,0.886327,1.9201498,7.704541,-5.5641246
1570715206,0.2633622,11.171345,1.0199299,1.0684928,1.5255052,0.10866029,-5.032612,7.9152308,3.0262709
1570715206,-0.37349546,1.5897499,1.2497733,-0.046873067,1.1036476,-0.9832691,-6.0285997,-4.4963107,6.3063273
1570715206,-2.8107927,0.19632454,-1.3934253,-1.5233747,0.04154658,-1.8344413,-8.6095495,-6.4020953,3.2513258
1570715206,-4.060566,0.076614454,-4.687847,-1.32736,-1.2559851,-1.6650591,-9.3661175,-7.6614456,-0.3878607
1570715206,-0.2825158,1.1252748,-1.2880806,-0.5539544,-0.38670278,-0.6977695,-5.8562174,-6.411672,1.7286136
1570715206,2.801216,3.7732618,6.655881,-1.1707613,-1.2336138,0.2066676,-2.0159178,-4.831499,10.060435
1570715206,5.1235914,13.364434,-12.856863,-1.406192,-3.412146,0.30467492,-1.4460979,3.6966474,-1.6089035
1570715206,7.465121,24.009054,-2.3080103,-0.068179004,-0.054330144,2.299976,2.906561,16.299725,1.6903064
1570715206,2.6767175,4.0701427,-3.145981,-0.7563608,-0.84584576,-0.36539686,-1.8579005,-4.357447,-1.2306197
1570715206,4.8937483,18.885464,-6.6893997,-1.628839,-3.509088,-0.70629185,0.79008657,10.927136,-2.681506
1570715206,13.910312,16.409859,-7.7093296,-2.3298044,-0.87993526,-0.9726161,9.500193,10.874464,-2.7868507
1570715206,8.762778,10.654198,-8.130709,-2.3734815,-0.51666903,-1.5904883,7.359776,2.8395233,-5.6215854
1570715206,3.2465374,10.448297,-8.087613,-3.0265086,-0.96835494,-1.2645074,0.40222588,1.4317327,-5.4683566
1570715206,5.070919,1.4030021,-7.043741,-2.2882578,-0.48151422,-0.10759499,2.4229321,-6.9048777,-5.243302
1570715206,6.6654577,-0.49320555,-5.875371,-1.6852998,-0.19068815,-0.40587813,3.9312792,-9.370906,-4.4196963
1570715206,6.090849,-3.6391866,-5.3103395,0.08415846,0.21625528,-0.50495076,3.6727054,-13.057976,-4.060566
1570715206,4.5633483,-6.172252,-5.4922986,1.2463974,0.936396,-0.4452941,2.255338,-15.59583,-4.0557775
1570715206,-0.3878607,-5.0996494,-1.043872,2.152965,2.0389783,-0.14381509,-2.6862943,-14.45619,0.78050977
1570715206,-1.2162545,2.2026656,-2.1404164,2.4384646,2.0251296,0.9768773,-3.7588966,-6.9719152,0.20590134
1570715206,-0.18195933,11.9135475,-5.947197,2.191316,1.3294905,2.3745468,-3.1842883,3.0693667,-3.145981
1570715206,4.927267,46.476242,-21.614853,3.365273,2.2616253,3.6038995,0.02873042,34.67283,-22.055386
1570715206,7.2113357,13.584701,0.21068975,2.5130355,1.8014171,1.2719646,2.303222,5.90889,3.845088
1570715206,15.179238,0.2825158,-2.5330653,3.4238644,0.89591473,1.1164312,9.854534,-6.909666,1.4700398
1570715207,14.882358,13.900735,-11.611878,1.8994244,0.8810006,0.99818325,11.602302,6.727707,-10.223241
1570715207,4.9081135,14.192827,-3.5913026,0.800038,1.1590431,0.6359823,-0.01436521,7.101202,-0.08619126
1570715207,-1.5275006,7.896077,-0.14844051,1.1579778,1.1867408,0.088419646,-7.240066,4.31914,4.084508
1570715207,-1.8818425,2.135628,0.46926352,0.07350549,1.1206924,-1.13028,-7.4268136,-3.074155,4.5777135
1570715207,-5.875371,0.842759,0.5363012,-1.384886,-0.21412468,-2.1327245,-11.444284,-5.257667,4.5633483
1570715207,-3.8019924,-3.347094,-2.078167,-1.5510724,-1.0407951,-1.1856755,-10.831368,-10.299856,1.1013328
1570715207,2.9879637,-2.8060043,1.0486604,-0.70629185,-0.74996907,-0.25247538,-2.681506,-10.453085,3.9743748
1570715207,7.824251,6.981492,12.344504,-0.9140248,-2.7942739,0.08628905,1.70946,-4.2664676,13.67568
1570715207,24.708162,49.593494,-9.801862,1.2165691,-1.0599705,2.8177104,22.088905,42.147526,-12.990938
1570715207,-2.906561,5.3486466,-0.9864111,-0.36646214,0.74996907,-1.348666,-8.576031,-2.1404164,2.834735
1570715207,1.3120226,14.743494,-7.015011,-2.005954,-2.1540303,-1.0471869,-4.175488,4.6926355,-1.8339585
1570715207,10.041282,16.840815,-7.4746976,-1.3465353,-0.95876724,0.21732058,3.667917,9.390059,-5.3438582
1570715207,9.490616,11.812991,-6.789956,-2.6643076,-1.374233,-1.5617253,6.9527617,5.3007627,-3.6583402
1570715207,4.357447,11.09473,-10.271125,-2.428877,-1.0099015,-1.8003519,0.4309563,2.2744915,-6.9144545
1570715207,5.473145,6.5936313,-5.861006,-2.8358204,-0.11185618,-0.43996763,2.3798366,-1.4556746,-3.2848446
1570715207,6.4308257,1.5131354,-5.7125654,-1.9548199,-0.19068815,-0.7680791,3.2130187,-6.8426285,-3.4237084
1570715207,5.104438,-2.1691468,-4.9559975,-0.74570787,-0.36113566,-0.72333664,2.791639,-10.864887,-3.6631286
1570715207,3.4237084,-6.861782,-4.525041,0.40161693,0.38883337,-0.7180101,1.2880806,-15.466543,-3.1364043
1570715207,1.0869676,-7.517793,-1.1109096,1.7481523,1.7023445,-0.22371235,-0.80445176,-17.314867,-0.009576807
1570715207,-0.272939,-0.6368576,-1.8531121,2.4725542,1.7215198,0.6594188,-2.6910827,-11.314998,1.091756
1570715207,0.1436521,6.3063273,-4.6016555,2.7378132,1.822723,1.6757121,-2.858677,-2.60968,-1.8339585
1570715207,5.5641246,45.94473,-15.820885,2.8635182,1.8642696,3.3279877,1.3359646,36.750996,-15.184027
1570715207,5.9807158,16.237476,-0.41180268,0.98859555,0.7968421,2.360698,1.3982137,8.37013,3.2369606
1570715207,8.1881695,5.1762643,1.1779473,2.6057162,2.593998,0.5187996,3.1364043,-2.3080103,4.999093
1570715207,17.099388,15.662868,-17.080235,1.9388404,-0.37498453,1.5702477,11.769896,8.6813755,-12.713211
1570715207,7.1873937,13.747506,-0.22984336,1.1782184,0.5880439,0.5156037,1.4556746,7.2352777,4.3478703
1570715207,4.4340615,11.669339,0.16759412,1.1782184,1.1004517,0.3419603,-1.3599066,5.233725,4.76925
1570715207,0.5650316,3.2561142,-1.8962077,0.068179004,1.1814142,-0.5901745,-5.386954,-3.1172507,2.5809495
1570715207,-3.6248214,0.7517793,-2.1883004,-0.82134396,0.4825795,-1.3891472,-8.604761,-5.731719,1.934515
1570715207,-8.274361,-1.3982137,-1.9393034,-1.266638,-0.9534408,-1.8237884,-13.661315,-8.513782,2.111686
1570715207,-0.4309563,-0.44532153,-0.7278373,-1.3017929,-0.15872924,-0.556085,-5.521029,-7.896077,3.1028855
1570715207,4.7740383,0.02873042,2.7389667,-0.7254672,-0.965159,0.204537,-0.25378537,-7.5321584,6.4308257
1570715207,8.327033,10.242394,8.00621,-1.6448184,-3.2736576,0.23756121,3.4811692,2.6001031,11.793838
1570715208,19.670761,39.805996,-4.213795,0.56673795,0.67539823,1.9473628,14.882358,32.264263,-0.16280572
1570715208,-7.9152308,3.9312792,-3.107674,0.0063917814,0.74570787,-1.0173585,-13.350069,-1.7477672,0.45489833
1570715208,2.2457612,14.901511,-8.810662,-2.00915,-3.3823178,-0.49962425,-2.2266076,7.1107793,-4.8745947
1570715208,16.472107,24.612394,-7.560889,-1.6235125,-1.1164312,-0.61787224,12.325351,16.572664,-3.763685
1570715208,9.059659,11.947066,-8.37013,-2.4981213,-0.6583535,-1.9154038,6.531382,5.6982,-4.831499
1570715208,3.9073372,10.34774,-10.807426,-3.0989487,-1.0024444,-1.2517239,0.6991069,1.7956513,-8.925584
1570715208,6.9144545,3.9791632,-5.439626,-2.86991,-0.5241261,-0.18962285,3.8833952,-5.1666875,-3.6248214
1570715208,5.9041014,-1.043872,-7.16824,-1.8259189,-0.2769772,-0.8692823,3.2800562,-9.706094,-5.770026
1570715208,6.622362,-1.6567876,-5.00867,-0.6871165,0.15872924,-1.180349,4.357447,-9.883265,-4.132392
1570715208,4.5872903,-5.803545,-4.429273,0.31958908,0.3856375,-0.79045033,2.4612393,-14.944607,-3.098097
1570715208,-3.8067808,-6.253655,-3.6056678,1.1814142,1.7513481,-0.2737813,-4.4436383,-16.01242,-3.5194764
1570715208,-1.6328455,1.043872,-0.7230489,1.8940979,1.3284253,1.1547819,-4.936844,-9.892841,0.94810385
1570715208,-2.552219,16.606182,-8.025364,2.9551337,0.77766675,2.0102153,-3.6343982,5.2049947,-2.8395233
1570715208,7.776367,23.075315,-5.8801594,3.247025,0.2759119,2.1817281,3.7924154,17.147272,-2.9640217
1570715208,8.872911,18.727446,-4.793192,2.5066438,2.1071572,1.8397678,4.663905,11.693281,-1.5179238
1570715208,10.7356,12.516887,-6.751649,1.8610737,1.4914157,1.6554714,5.7365074,4.8123455,-1.9393034
1570715208,12.74673,16.342821,-6.742072,2.1071572,0.9449184,1.9345793,7.833828,8.183381,-5.765238
1570715208,7.7093296,14.54717,-0.6607997,1.384886,1.7534788,0.9353307,3.394978,8.532935,2.4756045
1570715208,-1.8579005,6.799533,-0.78529817,0.74890375,0.77766675,0.4559471,-6.612785,1.6998832,4.7548847
1570715208,-1.8243817,2.2936451,-1.8195933,-0.23756121,0.6455699,-0.6231987,-7.967903,-3.2800562,1.733402
1570715208,-3.7062242,0.37828386,-0.12928689,-0.9012412,-0.6370476,-1.5063299,-9.500193,-6.9048777,4.261679
1570715208,-4.343082,-4.783615,-0.61770403,-1.5095258,-0.965159,-1.5010034,-9.797073,-10.529699,3.8355112
1570715208,-0.2873042,-4.414908,-3.9935284,-1.5052645,-1.0141627,-0.24075711,-6.9719152,-12.603078,-0.12928689
1570715208,6.655881,-0.61291564,4.721366,0.19921052,-1.0834069,0.07350549,0.16759412,-9.734824,4.9655743
1570715208,30.942663,45.446735,-23.506271,1.3838208,-2.3553715,1.2549198,18.540697,21.17432,-14.393941
1570715208,-5.861006,3.3135753,-4.084508,1.1174965,-0.18110047,-1.384886,-9.744401,-1.2018893,1.5705963
1570715208,-0.51235914,9.203311,-3.8498764,-1.8472248,-0.6402435,-0.63811284,-5.841852,-0.9768343,2.1308396
1570715208,0.41180268,17.415422,-5.995081,-2.1007655,-0.9715508,0.031958908,-4.247314,9.677363,-2.1691468
1570715208,17.128119,17.956512,-10.089166,-1.5968801,-0.8405193,-1.8344413,12.818556,9.9550905,-6.3925185
1570715208,6.2823853,6.564901,-7.40766,-1.9100775,-1.0407951,-1.9068816,2.5953147,-1.8914193,-4.084508
1570715208,2.705448,6.909666,-6.8186865,-2.8027961,-0.09800732,-0.44849002,-0.6895301,-1.8770541,-4.0892963
1570715208,4.414908,2.920926,-4.960786,-2.3308697,-0.117182665,-0.5262567,1.1444284,-6.0956373,-2.9161377
1570715208,4.1419687,1.283292,-5.070919,-1.4445426,-0.08735435,-0.8820659,0.6847417,-7.824251,-3.3135753
1570715208,4.8267107,-3.7493198,-4.223372,-0.063917816,-0.27058542,-1.0386645,2.087744,-13.053187,-2.777274
1570715209,1.982399,-9.830592,-4.3526587,0.98753023,0.5571503,-0.4857754,-0.5506664,-19.167978,-2.7629087
1570715209,-0.31124622,-6.919243,-1.2114661,2.037913,1.374233,0.22158176,-2.9831753,-17.48246,0.22505496
1570715209,0.1388637,6.9623384,-1.7860745,2.7687068,1.2836828,1.3710371,-2.801216,-2.0254946,0.79966336
1570715209,0.16759412,24.41128,-15.911864,3.691254,1.0578399,1.3230988,-3.6870706,9.476251,-9.648633
1570715209,8.418014,26.690561,-1.7812861,1.4583915,0.044742472,3.5996385,4.0892963,18.780119,2.078167
1570715209,8.020576,14.211981,0.5554548,2.6280875,2.6430018,1.0386645,2.8634653,8.350976,4.309563
1570715209,14.379576,1.8770541,-9.078813,2.5172966,-1.4679792,1.4264326,8.662222,-6.421249,-0.7038953
1570715209,10.084377,14.322115,-7.536947,0.6839206,1.3891472,1.1846102,4.6160207,7.824251,-2.6288335
1570715209,7.3789296,17.922995,-0.8858546,0.87886995,1.4051267,1.0333381,2.3463178,10.82658,2.327164
1570715209,2.3511062,5.2145715,0.60812724,0.9449184,1.0684928,0.28123838,-2.408567,2.0398598,6.253655
1570715209,0.02873042,0.49320555,-3.6152446,-0.4133352,0.40161693,-0.9449184,-5.4300494,-4.4675803,1.757344
1570715209,-3.9935284,0.35434186,-1.5466543,-1.2751604,-0.40374753,-2.0102153,-9.758766,-6.0142345,2.6623523
1570715209,-7.1155677,-4.462792,-2.5330653,-1.4988728,-0.74890375,-1.610729,-12.641385,-10.912771,3.145981
1570715209,0.25857377,-1.2066777,-0.17717093,-1.0983212,0.12463974,-0.5177343,-5.731719,-8.939949,2.920926
1570715209,9.074024,8.939949,8.207323,-1.0141627,-2.707985,0.2769772,4.132392,1.5035586,12.26789
1570715209,23.290794,40.892963,-6.9288197,0.43464115,-0.43251055,2.3010414,18.349161,33.672054,-2.4851813
1570715209,-4.7788267,6.1243677,-2.777274,0.35474387,0.5614115,-1.2730298,-10.817003,-0.7038953,1.7381904
1570715209,3.1028855,11.774684,-7.728483,-1.7854377,-1.9867787,-0.7126837,-2.1883004,2.1930888,-0.8475474
1570715209,8.101978,19.388245,-8.073248,-1.4914157,-2.2467113,-0.09800732,0.38307226,10.515334,-2.719813
1570715209,10.275913,15.20797,-5.45878,-2.5098395,-1.0290768,-1.0908641,7.1395097,8.264784,-2.2744915
1570715209,2.6671407,11.798626,-10.271125,-2.5844104,-1.1888714,-1.7694582,-0.11492168,3.3997664,-6.7947445
1570715209,4.6830587,7.0485296,-6.6175733,-2.9838967,-0.5177343,-0.7638179,0.92416185,-1.0821792,-4.999093
1570715209,6.8569937,1.6567876,-9.595961,-2.3979833,-0.3419603,-0.6583535,3.9600096,-6.26802,-7.369353
1570715209,7.177817,0.11971009,-6.8282633,-1.3976696,-0.3419603,-0.8724782,4.003105,-9.586384,-5.741296
1570715209,4.807557,-2.9496565,-6.215348,-0.64876586,0.11185618,-0.7510343,2.2170308,-12.306197,-4.841076
1570715209,4.098873,-4.185065,-2.2840683,0.7307937,1.3657106,-0.6615494,1.6759412,-13.589489,-0.93373865
1570715209,2.5330653,-2.1164744,-1.1683705,1.678908,1.9548199,-0.02769772,0.7469909,-11.932701,0.63206923
1570715209,-1.0869676,1.0726024,-2.815581,2.2296665,1.9345793,0.6999001,-3.6583402,-8.178593,-0.82360536
1570715209,-0.04309563,17.956512,-8.528147,3.6955152,1.736434,1.4903504,-3.1411927,4.256891,-4.050989
1570715209,2.3558946,32.336086,-10.228029,2.2509725,1.5894231,3.3535547,-1.4077905,23.898922,-6.9288197
1570715209,4.0557775,15.126566,-1.0869676,1.8173965,1.7087363,1.7321728,-0.49799395,7.177817,2.4133554
1570715209,11.45865,8.949526,-3.7062242,2.9657867,0.6572882,0.92680836,6.493075,1.4269443,0.16280572
1570715209,18.583794,16.960526,-7.5848308,2.3298044,0.44103295,1.6277738,13.330915,10.04607,-3.016694
1570715210,13.28782,12.607866,-3.016694,1.2165691,0.6189375,1.1750225,9.629479,7.3071036,1.6519991
1570715210,2.0350714,9.11712,-2.336741,1.0312074,1.2389404,0.6274599,-2.5713725,4.1419687,2.6671407
1570715210,-0.6799533,2.327164,-2.480393,-0.09907261,0.8650211,-0.30254433,-6.2249246,-2.3989902,1.9249382
1570715210,-5.9041014,-0.79966336,-1.0821792,-1.2240262,-0.05113425,-1.747087,-11.765107,-7.3166804,3.3087866
1570715210,-6.4308257,-3.6727054,-1.3024458,-1.5308317,-0.4836448,-1.8024824,-11.84651,-10.702082,2.8634653
1570715210,0.60812724,-1.5753847,-0.6751649,-1.7790459,-0.5518238,-0.44209823,-4.5298295,-8.987833,3.1651347
1570715210,4.960786,1.0582372,3.4620156,-0.8085604,-1.2527891,0.36539686,-0.090979666,-6.469133,7.1873937
1570715210,19.172768,24.29157,-14.796166,0.54543203,-3.3812525,0.66900647,14.293385,16.773777,-10.802638
1570715210,-6.564901,5.7748146,-2.9017725,0.8138869,0.2066676,0.0,-11.702858,-1.4173675,1.3359646
1570715210,0.47884035,0.12449849,-0.24899697,-0.3483521,-0.46233886,-0.88952297,-4.4580035,-7.1395097,4.1036615
1570715210,4.8506527,17.113754,-7.603985,-2.3361962,-2.2115564,-0.18749227,-1.5849615,7.503428,-4.2425256
1570715210,13.239936,25.134329,-7.3645644,-1.3369477,-0.9694202,-1.8067436,8.925584,17.353174,-3.2273839
1570715210,5.6215854,8.959103,-4.453215,-1.9388404,-1.0482522,-2.3873305,1.1923125,0.59376204,-2.3319526
1570715210,2.8299465,9.835381,-10.04607,-3.1522136,-1.0003139,-1.2474627,-0.31603462,1.4030021,-8.99741
1570715210,5.3486466,4.620809,-6.2249246,-2.9082606,-0.64343935,-0.21625528,1.5753847,-3.7205894,-2.8682537
1570715210,7.642292,-0.29688102,-8.327033,-1.7449564,-0.5614115,-0.6935083,4.4436383,-9.002198,-6.8905125
1570715210,6.8665705,-3.8067808,-6.6079965,-0.6700718,-0.37498453,-0.89591473,4.4963107,-12.138602,-4.414908
1570715210,4.4484267,-6.4882865,-4.2042184,0.47192654,0.6274599,-0.68498594,2.6671407,-15.796943,-3.5913026
1570715210,0.16759412,-4.4244847,-1.6519991,1.5073951,1.3156418,-0.050068956,-1.460463,-14.235924,0.25378537
1570715210,-2.2505496,1.5849615,-1.4939818,2.3692205,1.628839,1.3188376,-4.405331,-8.853758,0.51235914
1570715210,0.0047884034,18.334797,-9.490616,3.6060302,1.1388024,2.0080848,-2.873042,4.2425256,-4.2904096
1570715210,5.12838,29.779081,-9.150639,1.3838208,0.067113705,4.434831,0.02873042,25.062504,-8.173804
1570715210,6.9048777,15.605407,-3.2130187,1.7257811,1.0866029,1.2890093,1.910573,8.944737,0.78050977
1570715210,13.723564,5.3438582,-7.8625584,2.3958528,-0.6967042,1.3049887,7.1826053,0.6655881,0.9576807
1570715210,17.051504,13.101071,-3.9360676,1.6437532,1.0578399,1.5404193,11.765107,5.961562,-1.8052281
1570715210,7.52737,10.28549,-1.4891934,0.5816521,0.6455699,1.5255052,3.8642416,3.8833952,3.572149
1570715210,2.1739352,8.480263,-1.6759412,0.53690964,1.1334759,0.57526034,-3.2992098,3.8642416,3.0789435
1570715210,-2.5139117,1.388637,-1.6711528,-0.3877681,0.7339896,-0.76168734,-7.728483,-4.0653543,2.4181437
1570715210,-6.3781533,0.20111294,-0.6943185,-0.87460876,-0.6029581,-1.833376,-12.3876,-6.2392898,3.6535518
1570715210,-5.094861,-3.6535518,-0.5506664,-1.5872924,-0.18642697,-1.4669139,-11.789049,-10.089166,3.8594532
1570715210,1.3742718,-1.2545617,-1.8195933,-1.6277738,-0.2098635,-0.3440909,-3.9983168,-8.42759,2.1547816
1570715210,6.5984197,4.0940847,6.9240313,-0.37604982,-1.4253674,0.13422741,0.17238252,-5.506664,8.441956
1570715210,32.24032,46.12669,-19.55584,1.2495933,-1.1185617,1.5169828,22.141577,26.953922,-17.281347
1570715211,-5.544971,0.8283938,-4.003105,0.7659485,-0.0021305939,-0.33343795,-10.903194,-6.1100025,0.37828386
1570715211,1.9632454,8.853758,-1.2258313,-0.93426543,-0.98966086,-0.92680836,-3.193865,1.7908629,3.2082303
1570715211,7.326257,19.10094,-7.264008,-1.6117942,-0.3845722,-0.419727,2.5187001,11.683704,-3.0023289
1570715211,14.609419,14.566323,-7.2352777,-1.5904883,0.39309457,-2.030456,10.127473,6.8522053,-3.1603463
1570715211,4.247314,9.749189,-5.1906295,-1.9377751,-0.7542302,-2.8432775,1.0199299,0.9816227,0.272939
1570715211,2.4516625,10.419566,-7.1059904,-3.1085365,-0.44103295,-1.5393541,-0.7086837,1.6424223,-4.0701427
1570715211,6.2632318,2.7389667,-7.0102224,-2.7388785,-0.23330003,-0.43357584,3.3087866,-6.3302693,-4.7309427
1570715211,6.83784,-1.0965444,-6.14831,-1.6544062,-0.33876443,-0.9332001,4.0940847,-10.357317,-4.4484267
1570715211,6.220136,-6.339846,-6.5457473,-0.22477765,0.24821419,-1.015228,3.763685,-15.720328,-5.0757074
1570715211,2.7868507,-7.565677,-3.0597897,1.2719646,1.2783563,-0.7797974,0.5410896,-16.97489,-1.4556746
1570715211,-0.14844051,-4.4244847,-2.5187001,2.1593568,1.6629285,0.025567126,-2.360683,-13.761871,-0.51235914
1570715211,1.4460979,7.1634517,-2.3942018,3.3141387,2.234993,1.4765016,-1.1348516,-1.9153614,0.25378537
1570715211,4.0414124,34.768597,-12.512098,4.320844,2.29678,1.9921052,-1.3599066,18.631678,-8.422802
1570715211,3.86903,21.021091,-5.650316,0.49429777,0.67539823,3.7328005,-0.49320555,13.086706,-1.8770541
1570715211,3.3279405,11.851298,-1.9536686,2.1231368,2.2104912,1.9484282,-2.0829554,5.0996494,1.6711528
1570715211,12.909535,6.555324,-12.713211,1.6948874,-2.3053026,2.543929,5.3199162,-3.8163576,-5.722142
1570715211,14.676456,11.856087,-1.1683705,0.4889713,-0.19814523,1.8024824,9.495404,5.2863975,2.111686
1570715211,3.3566709,10.357317,-0.89543146,0.7510343,0.67220235,0.8138869,0.46926352,5.6646814,3.6727054
1570715211,-0.32561144,3.1890767,-0.5363012,0.0,0.5997622,-0.2759119,-6.564901,-3.107674,4.9559975
1570715211,-5.8322754,-0.1388637,-3.0071173,-0.8011033,-0.56673795,-1.5691824,-10.989386,-6.517017,1.8626889
1570715211,-5.7748146,-2.6623523,-1.2258313,-1.3763636,-1.2911398,-2.171075,-12.061988,-8.39886,3.4237084
1570715211,3.4955344,-2.8299465,-1.4269443,-1.5084604,0.058591332,-0.5134731,-2.5091233,-10.773908,2.8874073
1570715211,6.847417,1.8962077,2.054225,-0.3419603,-0.07989727,0.11185618,1.283292,-6.2967505,5.1475334
1570715211,19.235016,21.543026,-12.98615,0.29402196,-1.7247157,1.0205544,9.059659,8.09719,-3.7253778
1570715211,-7.503428,10.58716,-3.5817258,0.61787224,0.26312834,-0.5156037,-11.669339,7.2687964,-0.038307227
1570715211,4.0701427,11.717223,0.32561144,-0.760622,-0.9949873,-1.080211,-1.1204864,3.145981,6.9862804
1570715211,0.51235914,17.903841,-4.1419687,-2.0506966,-1.1824796,-0.63065577,-4.1802764,10.754754,1.2737153
1570715211,11.48738,16.43859,-10.184934,-1.668255,-0.7925809,-0.71374893,5.7125654,9.255983,-5.923255
1570715211,4.2042184,9.868899,-10.251971,-2.6312835,-2.1412468,-1.6544062,1.7381904,2.4277205,-6.1770406
1570715211,6.4260373,10.01734,-7.690176,-3.0755122,-0.94278777,-1.2581156,1.8579005,1.9488802,-5.085284
1570715211,6.244078,5.6407394,-6.6510925,-3.1404953,-0.43144527,-0.5571503,3.667917,-1.4700398,-3.892972
1570715211,5.7508726,0.31124622,-8.078036,-1.9079468,-0.39415985,-0.7648832,2.5761611,-8.7771435,-6.5361705
1570715211,5.865794,-2.8443117,-6.6367273,-0.7797974,-0.25780186,-0.7936462,3.2034419,-11.793838,-5.3247046
1570715211,5.377377,-6.2009826,-4.309563,0.50921196,0.46766534,-0.5891092,3.1411927,-15.313314,-3.7493198
1570715212,1.0486604,-5.8226986,-2.3654714,1.5947496,1.2836828,-0.08309316,-0.4213795,-15.428236,-1.1204864
1570715212,-0.33039984,-0.2825158,-3.1842883,2.6461976,1.4296285,0.77340555,-3.0310593,-10.817003,-0.7422025
1570715212,-0.37828386,10.58716,-2.9017725,2.7537925,1.6309696,1.8035477,-3.3327289,-0.50278234,0.842759
1570715212,2.6623523,38.695087,-11.540052,3.110667,1.8759879,2.8326244,-1.0151415,26.561274,-8.461109
1570715212,6.493075,22.759281,-4.3239284,1.277291,0.5347791,3.6038995,1.8531121,14.920665,-0.6847417
1570715212,10.25676,8.437167,-0.30166942,2.791078,2.2850618,0.8671517,4.9655743,1.1444284,3.572149
1570715212,19.838356,9.217676,-15.696386,2.7282255,-1.2282873,1.3294905,14.365211,2.4708161,-11.142614
1570715212,11.884817,14.073117,-4.534618,0.6967042,1.7939601,1.1079088,6.0142345,7.728483,0.10055647
1570715212,2.72939,13.182474,-0.842759,1.3816901,1.0599705,0.6168069,-3.4715924,7.1347213,3.7541082
1570715212,-1.5514427,3.323152,-1.7381904,0.60402334,0.62639457,-0.6210681,-7.881712,-2.566584,2.8778305
1570715212,-5.2959743,1.6184803,-1.2737153,-0.45807767,0.24927948,-2.106092,-11.415554,-4.5441947,3.2704794
1570715212,-5.305551,0.16280572,0.94810385,-1.0535786,-0.4548818,-2.5556474,-11.712435,-5.6359506,5.3821654
1570715212,0.35913026,-3.5913026,-2.60968,-1.7311075,-0.36539686,-0.4825795,-4.9464207,-10.7356,1.5035586
1570715212,3.016694,-0.7661445,-0.023942016,-0.46340418,-0.58484805,-0.14381509,-2.9783869,-9.002198,3.107674
1570715212,7.1251445,13.120225,5.209783,-1.5350928,-2.4959908,-0.3078708,2.15957,5.7125654,9.294291
1570715212,23.784,43.70376,-9.739613,1.1856755,-0.060721926,0.9065677,25.426422,44.32146,-12.737153
1570715212,0.9672575,5.094861,0.090979666,0.4538165,0.26952013,-0.6988348,-3.8355112,-2.1739352,4.582502
1570715212,1.4173675,15.993267,-5.717354,-2.134855,-2.152965,-0.12890093,-4.1132383,5.535394,-1.364695
1570715212,10.951078,24.478317,-8.010999,-0.61467636,-1.5862272,-0.5156037,3.821146,17.18558,-1.388637
1570715212,9.289502,9.040505,-8.896853,-2.6163692,-1.2570504,-1.9899746,7.680599,2.906561,-4.855441
1570715212,3.193865,12.832921,-9.835381,-2.759119,-1.3880819,-1.6309696,-0.1388637,3.1172507,-6.6893997
1570715212,6.1387334,7.3789296,-6.612785,-3.210805,-0.93000424,-0.2109288,2.6192567,0.39743748,-2.930503
1570715212,5.9807158,-0.25857377,-7.2448545,-2.4011793,-0.4175964,-0.42824936,3.2273839,-8.724471,-5.109226
1570715212,4.9416323,-1.8195933,-6.3542113,-1.1878061,-0.43570644,-0.88845766,2.2744915,-10.812215,-5.046977
1570715212,4.510676,-6.0142345,-4.663905,-0.09694202,0.13209683,-0.82560515,2.3702598,-15.059528,-4.050989
1570715212,2.3415294,-5.717354,-1.2689269,1.4551957,0.98539966,-0.42611876,0.6751649,-15.404294,0.08140286
1570715212,-0.10055647,-2.1547816,-3.3758245,2.2435153,1.1398677,0.43037996,-2.0494366,-12.124237,-0.6703765
1570715212,-0.50757074,5.5976434,-2.791639,3.13943,1.5809007,1.4434774,-2.7820623,-4.9799395,-1.2545617
1570715212,4.912902,32.623394,-12.641385,3.9650352,2.1774669,2.1135492,0.545878,17.501614,-8.552089
1570715212,6.646304,23.851038,-4.3239284,1.1217576,0.31745848,3.7221475,2.6048915,19.249382,-0.866701
1570715212,6.5744777,11.161768,-2.657564,2.5673656,2.3202167,1.0951252,0.59855044,5.118803,1.3694834
1570715212,15.662868,8.719683,-16.093824,2.543929,-1.3806248,1.4551957,8.561666,-2.6719291,-8.255207
1570715212,15.557523,15.227123,-3.2130187,1.0354686,1.0908641,1.072754,10.6637745,8.973468,0.46926352
1570715213,5.693412,13.091495,1.5897499,1.3380129,1.0173585,0.58378273,1.3694834,7.651869,6.143522
1570715213,-0.29688102,4.4005427,-2.8107927,0.27058542,0.9790079,-0.18749227,-5.5976434,-0.22026655,3.7445314
1570715213,-4.3718123,0.17717093,-1.7142484,-0.80749506,0.5816521,-1.2346791,-9.514558,-5.746084,2.2409728
1570715213,-6.301539,-0.023942016,0.8523358,-1.4765016,-0.409074,-2.0176723,-11.975797,-6.14831,5.3486466
1570715213,-3.323152,-3.9743748,-1.8435353,-1.6565367,-0.5859133,-1.140933,-9.65821,-11.166556,2.7964275
1570715213,2.1883004,-1.4317327,1.1109096,-0.9108289,-1.1174965,-0.26525894,-3.643975,-9.251195,4.0557775
1570715213,6.694188,7.2065473,15.222335,-1.3912778,-2.2946496,0.31958908,1.7956513,-0.20590134,19.37388
1570715213,28.529308,46.24161,-12.50731,0.9779426,-0.98007315,2.5471249,23.736116,38.996758,-7.9487495
1570715213,-0.06703765,5.583278,-5.626374,0.6274599,0.14701098,-1.0461216,-7.398083,-1.3359646,-2.8203697
1570715213,3.2800562,10.371682,-6.6846113,-2.1263328,-1.5372235,-0.57526034,-1.3838485,3.0693667,-2.0925324
1570715213,13.594277,20.786459,-9.825804,-0.9662243,-1.618186,0.1725781,9.169792,13.211205,-5.434838
1570715213,13.28782,15.231912,-5.425261,-2.2648213,-0.25567126,-1.5127217,11.836933,9.394848,-2.4708161
1570715213,3.7349546,11.477803,-11.779472,-2.2232747,-1.5872924,-2.3905263,0.31124622,3.074155,-8.054094
1570715213,3.6870706,7.441179,-8.058883,-3.1841726,-0.34089503,-0.8948494,0.7661445,-1.4077905,-5.0038815
1570715213,4.6495395,1.1827357,-5.693412,-2.7367477,-0.1043991,-0.117182665,1.8195933,-7.9343843,-3.4524388
1570715213,4.76925,-2.4660277,-5.8801594,-1.1739572,-0.25034478,-0.47831833,2.0733786,-11.722012,-4.132392
1570715213,5.104438,-6.167464,-4.7165775,0.43783703,0.18855755,-0.5933704,2.5378537,-15.480908,-3.0310593
1570715213,2.3080103,-7.6231384,-3.8067808,1.6586673,1.0951252,-0.42931467,-0.1436521,-16.907852,-1.8291701
1570715213,-0.93852705,-3.1555579,-1.8818425,2.2935843,1.6203166,0.25034478,-3.4620156,-12.310986,0.545878
1570715213,-1.5993267,6.0238113,-2.3127987,2.6291528,1.4956769,1.6277738,-4.5154643,-2.8443117,0.6751649
1570715213,2.0350714,30.157364,-17.913418,3.8574402,1.4733057,2.6802871,-1.5658079,21.815966,-14.221559
1570715213,10.113108,30.904356,-7.2304893,2.2072952,0.8724782,4.322975,4.4340615,27.183765,-8.1642275
1570715213,10.189722,8.1163435,2.0733786,3.0797734,1.862139,0.059656627,5.0517654,1.1348516,6.6654577
1570715213,16.395493,7.1107793,-15.275007,2.6387405,-1.8184619,1.3390783,9.361329,-4.960786,-3.7062242
1570715213,12.469003,15.413871,-7.5944076,0.9577019,1.6203166,1.0450563,8.451532,9.279925,-3.964798
1570715213,7.5561004,14.915876,-0.21547815,1.1888714,1.4775668,0.92148185,3.0454245,9.993398,3.466804
1570715213,2.1164744,5.5258174,-0.61291564,0.37498453,0.8639558,0.02130594,-3.9743748,0.80445176,5.463568
1570715213,-0.545878,0.17238252,-3.787627,-1.0024444,0.47192654,-1.080211,-5.884948,-5.032612,1.292869
1570715213,-3.5817258,0.8475474,-2.4037786,-1.4796975,-0.1384886,-2.02726,-8.920795,-4.721366,2.0973208
1570715213,-4.711789,-2.0494366,-1.6998832,-1.5947496,0.0010652969,-1.4221714,-11.18571,-8.5473,3.1316159
1570715213,-0.40701428,-1.3263878,1.7956513,-1.2602463,-0.07350549,-0.20027582,-6.679823,-8.106767,4.817134
1570715213,4.735731,6.6989765,10.601525,-1.1270841,-2.2669518,-0.08628905,-0.8858546,-3.347094,13.541605
1570715213,26.010607,38.278496,-11.769896,0.43251055,-0.56780326,1.1015171,20.398598,27.14067,-12.981361
1570715214,-0.2873042,3.8977604,-4.4963107,0.175774,-0.6231987,-0.6903124,-5.391742,-3.1603463,0.0
1570715214,2.992752,16.893488,-5.693412,-1.7460216,-1.4860892,-1.1633042,-2.4229321,7.16824,1.1492168
1570715214,7.043741,18.617311,-7.5465236,-1.9154038,-1.2719646,-0.8224092,0.12928689,11.204864,-3.3279405
1570715214,11.463438,12.143391,-7.0724716,-2.2435153,-0.28869548,-1.4562609,7.809886,3.940856,-5.2720323
1570715214,5.9759274,12.483368,-9.150639,-2.7431395,-1.2208303,-2.1817281,2.4133554,3.4955344,-5.899313
1570715214,6.9240313,7.9104424,-7.3406224,-3.0403574,-0.4218576,-0.7691444,3.667917,0.44532153,-5.070919
1570715214,4.3718123,0.17238252,-6.445191,-2.3393922,-0.0692443,-0.41440052,1.8243817,-8.307879,-4.2904096
1570715214,5.195418,-1.70946,-7.16824,-1.4456079,-0.312132,-0.7883197,1.7812861,-10.520123,-5.631162
1570715214,5.0757074,-7.4507556,-3.9504328,0.47299185,0.40481284,-0.5539544,2.6431987,-16.395493,-3.3901896
1570715214,1.958457,-6.8761473,-3.289633,1.5809007,0.9694202,-0.5305179,-0.49320555,-16.247053,-1.7860745
1570715214,-1.9009962,-2.3127987,-3.3806129,2.5918674,1.2932705,0.16831692,-4.31914,-12.435484,-0.80445176
1570715214,-1.1204864,6.3925185,-3.2513258,3.1223853,1.474371,1.4562609,-3.8402996,-2.633622,-0.5554548
1570715214,3.7972038,36.051888,-17.626112,3.8435915,1.6075331,2.5087743,0.41180268,27.538109,-14.116213
1570715214,8.829816,23.96596,-0.8810662,1.0993865,0.89165354,3.7104292,4.357447,16.136919,2.9831753
1570715214,8.178593,8.542512,1.0726024,2.6163692,2.342588,0.65089643,3.083732,1.2114661,5.1379566
1570715214,16.01242,11.386824,-15.840038,2.6014552,-1.8578779,1.5595948,10.740389,4.6112323,-11.089942
1570715214,9.682152,13.934254,-4.8123455,0.5603462,1.2250915,1.1846102,4.0414124,7.5848308,0.095768064
1570715214,4.0078936,13.618219,0.90021986,1.104713,0.9779426,0.75209963,-1.958457,7.575254,5.7987566
1570715214,0.1340753,4.4484267,-0.7278373,0.16725162,0.7467731,-0.19601464,-6.009446,-1.4413095,4.132392
1570715214,-3.3854012,0.7326257,-3.0071173,-1.0525134,-0.28869548,-1.1238883,-9.428367,-5.3725886,1.70946
1570715214,-6.8043213,-1.5801731,-0.8379706,-1.4232367,-0.9960526,-1.7662623,-12.445061,-8.169016,3.7301662
1570715214,-1.067814,-2.72939,-2.1883004,-1.6533408,-0.05219955,-0.53904027,-6.3781533,-9.720459,2.1691468
1570715214,4.462792,-0.48362875,3.9552212,-0.6359823,-0.7286631,0.068179004,-0.79966336,-7.627927,8.121132
1570715214,7.666234,11.57836,-0.8283938,-1.13028,-3.7604983,0.16725162,0.79487497,1.043872,13.335704
1570715214,12.430696,23.487118,-4.4819455,0.5113425,-0.2737813,1.424302,19.440918,33.370384,-5.3007627
1570715214,3.9743748,5.233725,-2.2601264,-0.10013791,0.47405714,-0.63917816,-1.6184803,-2.2170308,0.08140286
1570715214,0.33997664,14.197616,-3.145981,-2.7282255,-0.8405193,-0.26206306,-3.1124623,5.2289367,0.40222588
1570715214,15.289372,20.12087,-9.734824,-1.2922052,-0.2791078,-0.8298663,10.91756,12.440272,-5.4683566
1570715214,7.374141,9.548077,-6.090849,-2.368155,-0.92041653,-2.195577,5.2145715,2.5809495,-2.6288335
1570715214,3.5098996,12.861651,-9.911995,-2.974309,-1.3390783,-1.7683929,0.2633622,4.271256,-6.4499793
1570715214,5.410896,7.0102224,-6.5984197,-3.3386407,-0.40161693,-0.14381509,2.0733786,-0.6368576,-3.5817258
1570715214,5.085284,-0.090979666,-6.919243,-2.3979833,-0.07244019,-0.40587813,2.0350714,-8.829816,-5.0613422
1570715214,5.391742,-2.6862943,-7.1059904,-1.0386645,-0.32278496,-0.9236124,2.5330653,-11.353305,-5.415684
1570715214,4.879383,-6.9719152,-3.964798,0.30360964,0.37072334,-0.760622,2.4995465,-15.978902,-3.098097
1570715215,0.4357447,-5.3247046,-2.5905263,1.6661245,1.4626527,-0.22903883,-1.9632454,-14.69561,-0.9816227
1570715215,-0.39264908,-1.5466543,-3.0885203,2.2573643,1.7385646,0.50495076,-3.0597897,-11.765107,-0.63206923
1570715215,-0.7422025,9.380483,-2.9879637,2.9540684,1.6160555,1.3784943,-4.050989,-2.15957,0.7757214
1570715215,1.6759412,37.713467,-12.713211,3.457954,1.7406952,2.422485,-2.834735,24.914062,-10.204087
1570715215,10.141838,22.816742,-1.7190368,1.8237884,1.0344033,3.2076092,5.434838,17.290924,0.9816227
1570715215,11.444284,9.9790325,-1.5753847,2.404375,2.8709753,1.1004517,5.2624555,4.673482,1.8339585
1570715215,16.82645,8.930372,-16.342821,2.3393922,-1.5446806,1.6373614,10.793061,-1.661576,-9.184157
1570715215,11.209652,15.404294,-2.5809495,1.1292148,1.8376372,1.2069814,6.4164605,9.011775,-0.023942016
1570715215,1.0726024,10.012551,1.5610195,1.6192514,1.1334759,0.60402334,-3.7780502,6.315904,6.3111157
1570715215,-2.657564,4.1515455,-2.1021092,0.54649734,0.40800872,-0.60189277,-8.418014,-1.3215994,2.3942018
1570715215,-6.253655,2.183512,0.11971009,-0.68072474,-0.41866168,-1.6618632,-12.152967,-4.285621,4.855441
1570715215,-6.861782,-0.6368576,-0.6560113,-1.4786321,-0.5827174,-1.904751,-12.607866,-7.177817,3.845088
1570715215,0.34476504,-3.4284968,-3.169923,-1.7801112,-0.6785942,-0.4889713,-6.2632318,-10.730812,1.5658079
1570715215,3.7828386,-1.4891934,1.091756,-0.14274979,-0.67326766,-0.30147904,-1.5035586,-9.409213,3.2225955
1570715215,9.32781,12.837709,0.94810385,-1.8664002,-2.6600463,0.028763017,4.486734,4.074931,17.506403
1570715215,29.3577,49.914318,-20.72421,1.4328244,-1.7907641,1.2357445,18.468872,27.854143,-16.247053
1570715215,-8.51857,1.6280571,-0.2681506,0.6551576,-0.25354066,-1.2581156,-13.498509,-5.0278234,6.3542113
1570715215,4.2042184,14.733917,-7.129933,-2.26056,-1.9356445,-0.2748466,-0.38307226,7.417237,-2.4756045
1570715215,19.230228,23.72175,-11.358093,-0.81495214,-2.0229988,0.61041516,14.772224,16.19438,-6.919243
1570715215,8.418014,9.356541,-6.670246,-2.7143767,-0.64343935,-1.6160555,4.19943,1.4556746,-2.6671407
1570715215,2.0159178,12.708423,-10.67814,-3.0360963,-1.2261568,-1.4978075,-1.6424223,4.295198,-7.2113357
1570715215,6.7612257,8.724471,-9.399636,-3.1127977,-0.7766015,-0.46660006,1.7381904,1.0199299,-6.4547677
1570715215,8.7292595,1.7142484,-7.3789296,-2.7165072,-0.15766394,-0.4431635,5.449203,-7.302315,-5.3678
1570715215,4.0653543,0.17717093,-7.0006456,-1.4786321,-0.22051647,-0.84904164,0.9864111,-9.016563,-5.5258174
1570715215,1.6903064,-5.056554,-4.8698063,-0.47725302,0.1054644,-0.7510343,-0.78529817,-12.785037,-4.5202527
1570715215,1.3742718,-7.101202,-0.6895301,1.5510724,0.986465,-0.42611876,-1.6567876,-16.40507,0.7661445
1570715215,0.48841715,-4.4005427,-1.7669208,2.3180861,1.2911398,0.19921052,-2.2361844,-14.398729,0.7422025
1570715215,-0.25378537,5.2528787,-5.717354,2.6014552,1.4839586,1.3678412,-3.3901896,-3.6870706,-3.1890767
1570715215,0.56982,16.25184,-10.960655,2.669634,1.5745089,1.9835829,-3.3423057,4.31914,-3.466804
1570715215,10.443508,35.587414,-6.1626754,2.4949255,1.57877,2.9306319,5.7269306,31.536425,-7.4363904
1570715215,6.8761473,12.08593,1.4939818,3.0456839,2.3084984,0.33663383,2.896984,6.5265937,3.8738184
1570715215,10.510546,-3.5673606,-5.094861,2.8890853,-0.26525894,1.2868787,3.5194764,-13.153744,3.1124623
1570715215,11.789049,13.493721,-11.33894,1.442412,1.5627906,0.9385266,7.589619,6.8522053,-9.069236
1570715216,6.114791,16.060305,-2.15957,0.965159,1.2250915,0.6572882,0.7086837,9.212888,0.8475474
1570715216,2.2697031,5.506664,1.8483237,1.2442669,0.8810006,-0.009587673,-2.873042,2.384625,7.5082164
1570715216,0.58897364,2.2649148,-3.0597897,-0.37178862,0.6285252,-0.95557135,-4.9176903,-2.633622,2.0829554
1570715216,-3.6104562,1.2018893,-2.1787236,-1.1079088,-0.54330146,-1.9026203,-9.586384,-5.1523223,1.733402
1570715216,-5.770026,-5.1140146,-2.1883004,-1.2165691,-0.75209963,-1.0908641,-11.664551,-11.171345,2.207454
1570715216,0.62249243,-4.2042184,0.6895301,-0.9321348,-0.39309457,0.011718267,-5.3582234,-11.884817,4.0078936
1570715216,4.912902,7.699753,6.066907,-0.50814664,-2.5109048,-0.0085223755,-0.60812724,-2.954445,16.036364
1570715216,23.400927,34.57706,-3.4620156,0.21625528,-0.67220235,2.6089122,28.696901,47.05085,-5.070919
1570715216,0.6991069,7.086837,0.7278373,-0.31745848,1.0759499,-1.4775668,-4.6782703,-3.3662477,2.6240451
1570715216,-2.2888567,17.942148,-6.3925185,-2.0187378,-1.4445426,-1.6117942,-3.9839516,11.60709,-2.4612393
1570715216,10.366894,17.099388,-8.949526,-1.1760879,-1.2964664,-0.29082605,1.8531121,11.209652,-4.309563
1570715216,13.881581,11.769896,-5.717354,-2.5354066,-1.4179102,-1.4200408,9.902418,4.5394063,-1.9919758
1570715216,4.19943,11.133038,-10.864887,-2.2307317,-1.2272221,-1.7705235,1.2641385,2.9783869,-6.847417
1570715216,4.9799395,6.0285997,-6.9958572,-2.7708373,-0.4452941,-0.23223473,1.9871874,-2.27928,-4.285621
1570715216,4.6399627,1.3024458,-5.329493,-2.2914536,-0.0031958907,-0.5241261,1.6041151,-7.120356,-3.074155
1570715216,5.865794,-0.63206923,-5.1140146,-1.1846102,0.067113705,-0.936396,3.1651347,-9.878476,-3.2848446
1570715216,5.6120086,-4.10845,-4.4963107,0.088419646,0.204537,-1.0482522,3.193865,-13.455414,-2.7868507
1570715216,0.047884032,-6.2871737,-3.6966474,0.74783844,0.9310695,-0.7627526,-2.1308396,-15.672444,-1.8866309
1570715216,-1.8722657,-4.453215,-1.292869,1.6661245,1.4136491,0.06178722,-4.3478703,-14.4609785,0.50757074
1570715216,0.30166942,6.3206925,-2.8491,2.7378132,1.2815522,1.8578779,-2.3511062,-4.429273,-0.46926352
1570715216,2.858677,24.286781,-18.7466,3.7445188,1.0855376,2.216883,-0.36870706,15.677233,-15.32768
1570715216,9.533711,31.555578,-1.7621324,1.334817,0.54330146,3.7445188,5.2959743,23.654713,2.2122424
1570715216,7.6375036,13.397953,1.2593501,2.694136,2.6909401,0.986465,2.7724855,6.0142345,5.5018754
1570715216,12.770672,3.6727054,-12.277467,2.2594948,-1.8312454,1.9622769,7.52737,-3.145981,-7.565677
1570715216,14.058752,13.359646,-5.60722,1.0674275,1.5755742,1.324164,8.451532,7.038953,-0.62249243
1570715216,3.7349546,15.1696615,0.095768064,1.162239,1.0035098,0.8341275,-2.2457612,9.174581,5.0421886
1570715216,0.31603462,5.2959743,0.2825158,0.6157416,0.8607599,-0.28869548,-5.827487,-0.49320555,5.2624555
1570715216,-2.3798366,1.1061212,-2.0350714,-1.1867408,0.24501829,-1.2314832,-9.107543,-4.8985367,2.767697
1570715216,-5.3342814,-1.8100165,-1.292869,-1.6490797,-0.7084225,-1.8003519,-11.066,-8.346188,3.241749
1570715216,-0.7230489,-0.8283938,-1.0486604,-1.5350928,-0.6551576,-1.4179102,-6.019023,-7.848193,3.289633
1570715216,3.2513258,0.8619126,1.6328455,-1.1569124,-0.8021686,-0.7414467,-1.1683705,-6.4787097,5.779603
1570715216,7.565677,10.400413,6.8905125,-1.3593189,-2.0826554,-0.29082605,1.6376339,-0.4213795,10.0269165
1570715216,18.684351,32.834084,-11.243171,0.62213343,-0.22264706,1.980387,18.545486,28.471848,-12.41633
1570715217,-5.2720323,-0.2777274,-3.2848446,0.5187996,-0.800038,-0.3451562,-11.027693,-7.2065473,2.384625
1570715217,10.879252,21.53345,-8.317456,-2.163618,-1.5947496,-0.5827174,6.397307,14.001291,-3.9073372
1570715217,10.998962,21.1408,-6.9862804,-1.6916915,-1.4232367,-0.5827174,6.1195793,13.891158,-0.095768064
1570715217,8.274361,12.660539,-5.861006,-2.331935,0.119313255,-1.0141627,4.7548847,5.2863975,-2.719813
1570715217,0.78050977,14.259866,-9.294291,-3.3663383,-1.4647833,-1.9249916,-2.5091233,5.66947,-6.421249
1570715217,6.2967505,6.459556,-8.599973,-3.006268,-1.1941979,-1.036534,2.1068976,-1.2066777,-5.693412
1570715217,6.421249,1.0821792,-7.8529816,-2.4437912,-0.36113566,-0.3462215,3.5577838,-7.4507556,-6.244078
1570715217,5.803545,-3.5529952,-7.177817,-1.1025823,-0.26738954,-0.12996623,3.2273839,-11.9853735,-5.765238
1570715217,4.510676,-7.240066,-6.459556,0.6785942,0.1384886,-0.26952013,2.1164744,-15.974113,-5.2289367
1570715217,4.333505,-6.631939,-3.53863,2.1646833,1.0908641,-0.419727,2.030283,-16.275784,-2.4612393
1570715217,0.81881696,-1.6903064,-1.9871874,2.722899,1.718324,-0.12570503,-1.4317327,-12.038046,0.5793968
1570715217,-0.6799533,5.659893,-4.9895163,3.010529,1.99104,1.1835449,-3.2944214,-4.098873,-1.9440918
1570715217,1.8435353,34.150894,-18.286913,3.530394,2.0666761,2.5023825,-1.7477672,18.933348,-12.617443
1570715217,9.916783,24.765623,-2.0973208,1.765197,1.1771531,3.2598085,5.104438,20.700268,-0.6895301
1570715217,7.551312,10.443508,0.10534488,2.615304,2.6952012,0.29402196,2.5091233,6.1530986,3.763685
1570715217,15.868769,12.761095,-13.723564,2.607847,-0.7979074,1.2389404,9.457097,2.0111294,-7.445967
1570715217,11.693281,14.475344,-4.2281604,0.6210681,0.8096257,1.0216198,7.302315,8.221688,-0.93852705
1570715217,5.899313,14.374787,0.40701428,1.1153659,1.0823417,0.5358444,-0.076614454,8.250419,5.195418
1570715217,-0.16280572,2.408567,-1.3359646,-0.27271602,0.7680791,-0.4239882,-6.0764837,-3.347094,3.9073372
1570715217,-2.657564,0.076614454,-2.3127987,-1.298597,0.16618632,-1.1377372,-8.734048,-6.1626754,2.1787236
1570715217,-5.6886234,-1.9057846,-1.6089035,-1.324164,-0.43251055,-1.6576021,-11.444284,-8.595184,2.6527755
1570715217,-4.501099,-4.7644615,-2.944868,-1.6299043,-0.29295665,-1.0322727,-9.902418,-11.865664,1.115698
1570715217,2.825158,-3.3758245,1.6519991,-1.0482522,-0.057526033,-0.22690825,-3.7301662,-10.927136,4.295198
1570715217,28.213272,38.010345,-25.40248,1.736434,-2.8784323,1.5457458,14.973337,16.352398,-20.369867
1570715217,-2.2984335,6.4978633,-0.91937345,0.09055024,-1.0003139,-0.16725162,-7.651869,-0.4309563,3.4859576
1570715217,2.5905263,10.94629,1.1300632,-1.2133732,0.0031958907,-1.2698339,-2.4947581,3.739743,5.415684
1570715217,-1.5514427,16.381128,-5.449203,-2.6824176,-1.2144386,-0.70629185,-6.215348,8.714894,-1.4891934
1570715217,14.518439,11.544841,-7.6949644,-1.8536167,-0.409074,-1.2996622,10.199299,3.5051112,-4.0892963
1570715217,5.659893,7.240066,-9.284714,-2.554582,-1.7332381,-1.9686687,1.7286136,-1.1109096,-5.971139
1570715217,3.1124623,9.299079,-8.106767,-2.4203546,-0.78192794,-1.6139249,-0.21068975,0.51714754,-5.2768207
1570715217,4.8602295,5.023035,-5.497087,-2.7101154,-0.2119941,-0.62639457,1.8100165,-4.0414124,-3.3375173
1570715217,4.5058875,0.6607997,-5.142745,-1.6810386,0.092680834,-0.8767394,1.6567876,-8.595184,-3.596091
1570715217,6.2728086,-3.193865,-5.985504,-0.43037996,-0.1747087,-0.8085604,3.667917,-12.559982,-4.7022123
1570715217,5.3438582,-7.6614456,-5.530606,0.6029581,0.2087982,-0.721206,2.9592333,-17.075447,-4.175488
1570715218,0.29209262,-8.322245,-2.1739352,1.8855755,1.6416225,-0.43357584,-1.4317327,-17.927782,-1.9393034
1570715218,0.6607997,-1.1731589,-2.8395233,2.974309,2.1700099,0.5198649,-1.7477672,-11.96622,0.18674773
1570715218,-2.6144683,18.47366,-13.958196,3.5357206,1.2730298,1.3401436,-5.5737014,9.624691,-10.931925
1570715218,3.5913026,46.255978,-8.303091,2.7101154,2.1614876,4.4849,-1.9488802,43.555317,-13.618219
1570715218,9.404425,17.640478,0.48841715,2.3330002,1.5979455,2.4746847,5.0996494,12.559982,4.8841715
1570715218,12.220005,-1.5179238,0.80445176,2.7996004,1.4264326,0.5880439,6.4547677,-3.6727054,7.5225816
1570715218,13.910312,15.8783455,-14.499286,1.6480143,0.21732058,1.442412,10.429143,8.365341,-12.100295
1570715218,5.6359506,14.863204,-3.1172507,0.46979594,1.237875,1.3529271,0.090979666,8.451532,0.93373865
1570715218,1.8818425,4.8362875,2.542642,1.460522,1.0471869,0.25247538,-3.9600096,1.0247183,7.2209125
1570715218,1.1061212,1.9249382,-0.10534488,-0.37072334,0.60189277,-1.0397298,-3.9264908,-4.19943,5.3678
1570715218,-6.8282633,1.8195933,-1.0821792,-1.8493555,-0.18536167,-1.8163313,-11.951855,-4.1515455,3.4284968
1570715218,-6.3829417,-1.541866,-2.432509,-1.7918295,-0.6796594,-1.9239262,-13.599066,-8.269572,1.7477672
1570715218,1.1252748,-1.2114661,-1.0342951,-1.3593189,-1.2027203,-1.0035098,-4.759673,-8.6334915,3.0262709
1570715218,5.837064,4.10845,6.0525417,-1.3145764,-1.5872924,0.22158176,0.5602432,-5.535394,8.322245
1570715218,19.776106,28.361713,-17.563864,0.8692823,-1.951624,1.0599705,9.643845,9.983821,-13.283031
1570715218,-4.9320555,6.7324953,-1.5370775,0.18642697,-0.3504827,-0.9374613,-10.534488,2.4947581,2.3798366
1570715218,2.9831753,9.203311,-7.536947,-1.9665382,-2.1391163,-0.3781804,-1.067814,-0.5554548,-1.3694834
1570715218,6.8330517,20.341137,-4.1180267,-1.6235125,-1.9974318,-0.28869548,0.18674773,11.257536,0.6655881
1570715218,11.535264,15.404294,-8.39886,-2.8209064,-1.510591,-1.0109668,7.9487495,9.509769,-4.0318356
1570715218,5.2385135,12.172121,-10.850522,-2.9636562,-1.4871545,-1.1675655,1.9919758,3.122039,-7.795521
1570715218,6.3925185,6.042965,-6.114791,-3.1894991,-0.8362581,-0.10652969,3.1507695,-1.4556746,-4.343082
1570715218,7.589619,1.7525556,-9.246407,-2.5268843,-0.6274599,-0.243953,4.462792,-7.3645644,-7.455544
1570715218,6.631939,-2.480393,-5.521029,-1.036534,-0.17151281,-0.8820659,4.223372,-10.989386,-4.6495395
1570715218,4.7979803,-6.4164605,-4.6782703,0.28336897,0.25993246,-1.1036476,2.1404164,-15.777789,-3.4763808
1570715218,3.040636,-5.932832,-3.7349546,1.7406952,1.2634422,-0.7659485,0.62728083,-15.318103,-2.2409728
1570715218,-0.81881696,-2.695871,-3.347094,2.5109048,1.7588053,0.3163932,-3.2704794,-11.980585,-1.364695
1570715218,-1.7381904,5.7269306,-3.6870706,2.948742,1.7662623,1.1856755,-4.5441947,-3.2944214,-1.0582372
1570715218,-1.3551182,14.69561,-11.032481,3.1277118,1.2581156,1.8823797,-4.759673,6.0860605,-7.795521
1570715218,10.539276,40.490738,-9.835381,3.3514242,2.1817281,3.6209443,6.2488666,32.59945,-5.884948
1570715218,9.911995,20.221428,1.8674773,2.6323488,2.2754743,0.85436815,4.0222588,9.639056,6.4499793
1570715218,9.437943,-8.135497,-9.097966,2.4640317,-1.6085984,1.7055404,5.4539914,-9.380483,-4.4484267
1570715218,11.506534,15.461755,-11.118672,0.8341275,1.5894231,1.1835449,5.8322754,9.232041,-6.0956373
1570715218,4.223372,17.080235,0.10534488,0.9715508,1.5073951,0.6274599,-1.8579005,11.066,4.903325
1570715219,1.1492168,4.247314,3.2321723,1.0812764,0.6594188,-0.18110047,-4.098873,-0.47405192,9.050082
1570715219,-2.1212628,0.7661445,-3.2513258,-1.2762257,-0.26738954,-1.2474627,-8.221688,-5.2959743,1.4508862
1570715219,-3.4141316,-1.3263878,-2.2601264,-1.9026203,-0.66368,-1.8983592,-9.064447,-6.6367273,1.6950948
1570715219,-3.8402996,-3.6152446,-3.4811692,-1.5468111,-0.6114804,-0.54649734,-9.131485,-10.6398325,0.8475474
1570715219,-0.41180268,-0.8523358,1.0630256,-0.7648832,-0.060721926,0.22903883,-6.9479733,-8.159439,4.1659107
1570715219,7.565677,8.916007,12.08593,-0.9992485,-3.0275738,0.089484945,2.4468741,1.733402,16.376339
1570715219,34.90746,52.796936,-21.040245,0.81495214,-1.7460216,0.6572882,22.979548,31.751904,-17.190369
1570715219,-3.9600096,0.9911995,-5.8466406,0.82453984,0.7808626,-0.9832691,-8.949526,-6.1004257,-1.2689269
1570715219,-0.37349546,8.959103,-4.6495395,-1.5127217,-2.1572263,-0.243953,-5.5641246,0.009576807,1.1013328
1570715219,10.0987425,23.27164,-5.674258,-1.6533408,-1.7098016,0.2844343,1.0486604,14.580688,1.5514427
1570715219,13.148955,11.027693,-9.442732,-2.4693582,-0.6658106,-1.678908,11.348516,6.5840545,-7.489063
1570715219,3.4763808,9.888053,-8.99741,-2.4342034,-1.0322727,-1.5830313,0.4261679,0.8714894,-5.080496
1570715219,5.755661,11.123461,-6.8282633,-2.8858893,-0.57739097,-1.1675655,1.283292,3.1172507,-4.4005427
1570715219,6.579266,3.1842883,-6.823475,-2.6664383,-0.47725302,-1.054644,3.9456444,-4.735731,-4.4819455
1570715219,5.2002063,0.30166942,-5.377377,-1.646949,-0.25780186,-0.9726161,2.7820623,-8.279149,-3.7588966
1570715219,2.8443117,-5.9902925,-4.7884035,-0.7936462,-0.092680834,-0.8767394,0.6368576,-14.298173,-3.4524388
1570715219,1.5993267,-7.6710224,-1.8195933,1.0514481,0.7755362,-0.39522517,-0.7469909,-17.640478,-0.7757214
1570715219,1.0726024,-2.3558946,-1.3551182,2.1508346,1.0770152,0.4516859,-1.0199299,-12.531252,0.8714894
1570715219,-0.6751649,2.9161377,-3.7301662,2.3926568,1.2634422,1.277291,-2.8491,-7.0245876,-0.9816227
1570715219,-2.2457612,8.920795,-2.1260512,2.1550958,1.0897988,1.9399058,-3.916914,-1.0247183,0.9864111
1570715219,7.1634517,45.441948,-17.635689,3.5634181,2.2381887,3.2992246,1.1252748,32.09188,-15.8065195
1570715219,13.876793,21.787235,1.9201498,2.744205,1.0663623,1.6554714,8.614338,17.362751,6.8761473
1570715219,12.852075,-5.3438582,0.18674773,2.4800112,0.45914298,1.7172587,7.7428484,-7.2831616,7.4842744
1570715219,12.641385,10.333375,-15.610195,1.4594568,-0.091615535,1.1963284,7.9391727,2.1883004,-12.272678
1570715219,6.8282633,16.836027,-4.2425256,0.25141007,2.2871926,1.043991,1.6089035,9.437943,-0.866701
1570715219,0.8331822,4.414908,4.8362875,1.298597,0.86289054,0.21945117,-4.7405195,2.006341,10.0029745
1570715219,2.0925324,1.9440918,-1.9871874,-0.16618632,0.4570124,-0.9449184,-4.1611223,-3.9504328,2.7246015
1570715219,-0.56982,0.6368576,-4.223372,-1.5777048,-0.16831692,-1.8173965,-6.5601125,-5.6790466,0.29209262
1570715219,0.62249243,-3.3806129,-2.2984335,-1.6054025,-0.42292288,-1.2613115,-4.7261543,-9.442732,1.8435353
1570715219,-0.9864111,-2.1260512,-1.910573,-0.7467731,-0.13635801,-0.3792457,-6.3781533,-9.26556,2.0973208
1570715219,-4.1180267,1.910573,2.7246015,-0.7329243,-1.0194892,0.24501829,-9.461885,-5.2959743,6.670246
1570715219,-0.45010993,7.8529816,2.1164744,-1.5244399,-2.5556474,0.1033338,-7.019799,-0.6799533,8.595184
1570715219,19.603724,22.692244,-5.142745,0.24927948,-0.6594188,1.628839,14.475344,15.643714,-0.6368576
1570715220,0.14844051,4.644751,-2.207454,-0.03835069,0.98753023,-0.9417225,-4.879383,-2.5139117,2.2122424
1570715220,-0.545878,13.833697,-3.4045548,-1.7950253,-1.4136491,0.0692443,-5.3725886,6.4643445,0.90021986
1570715220,11.81778,20.925323,-8.446744,-1.0567746,-1.5382888,-0.29721785,7.129933,13.364434,-4.3143516
1570715220,10.697293,8.51857,-7.9726915,-2.2946496,-1.2645074,-1.912208,6.469133,0.5410896,-4.132392
1570715220,4.7165775,10.323798,-8.48984,-2.648328,-0.64770055,-1.5244399,1.0295067,1.8818425,-5.118803
1570715220,8.00621,9.662998,-6.1626754,-3.0488799,0.054330144,-0.8948494,4.6351743,0.8331822,-3.5290532
1570715220,6.0477533,1.9488802,-7.153875,-2.2648213,0.32917675,-0.8405193,2.8682537,-7.1347213,-5.2720323
1570715220,5.0613422,-0.05267244,-6.3589997,-1.1824796,-0.019175345,-1.2549198,2.183512,-9.313444,-4.9224787
1570715220,3.2561142,-5.7987566,-4.9943047,-0.26525894,0.35793978,-0.86289054,0.6799533,-15.179238,-3.763685
1570715220,1.6998832,-8.049306,-3.442862,1.6139249,0.98007315,-0.29402196,-0.7565677,-17.434576,-2.030283
1570715220,-0.29688102,-4.453215,-1.0103531,2.3745468,1.5084604,0.05113425,-2.6910827,-14.690822,0.6512229
1570715220,0.45968673,4.8027687,-4.807557,2.8890853,1.1835449,1.0375992,-2.408567,-6.114791,-1.9488802
1570715220,2.1930888,22.270864,-15.868769,3.845722,0.84478045,1.4466733,-1.8818425,7.881712,-9.92636
1570715220,9.380483,28.423962,-4.0557775,2.2935843,0.98433435,3.3375752,5.0134583,24.061728,-2.8921957
1570715220,7.800309,14.992491,0.7086837,2.830494,2.5620391,1.0130974,3.8355112,9.155427,5.4539914
1570715220,10.0269165,5.305551,-7.201759,1.8429637,0.019175345,1.7108669,5.3342814,-0.7134721,1.4796166
1570715220,7.4746976,13.40753,-11.33894,1.4647833,0.11824796,1.9260569,2.5378537,6.4499793,-9.212888
1570715220,12.74673,17.171215,2.566584,1.1079088,1.4988728,1.2826176,7.019799,11.056423,5.932832
1570715220,4.309563,6.6367273,0.59855044,0.839454,0.5614115,0.25993246,-0.51235914,3.1555579,7.896077
1570715220,0.0047884034,1.1923125,-4.213795,-0.6945736,0.742512,-0.9044371,-5.463568,-2.9783869,0.8523358
1570715220,-2.0829554,0.2633622,-1.8722657,-1.6565367,-0.020240642,-1.8078089,-7.8146744,-5.511452,2.0111294
1570715220,-4.414908,-4.783615,-1.292869,-1.5990107,-0.3494174,-1.287944,-10.228029,-10.79785,3.2752678
1570715220,-0.62728083,-1.316811,0.08619126,-1.3422742,-0.25993246,-0.5358444,-6.655881,-9.313444,3.4332852
1570715220,2.3080103,2.7246015,3.6774938,-0.95450604,-1.9569504,-0.16831692,-3.86903,-5.674258,7.536947
1570715220,17.434576,21.806389,-18.981232,-0.56993383,-2.8826935,-0.08202787,6.5026517,7.7572136,-3.107674
1570715220,-4.8841715,4.405331,-3.0262709,-0.08309316,0.43996763,1.0652969,-2.135628,4.146757,0.18674773
1570715220,-3.9983168,2.1691468,0.39264908,0.09907261,-0.3771151,-0.9150901,-10.649409,-6.7372837,4.912902
1570715220,4.060566,17.894264,-4.381389,-2.216883,-1.9175345,-0.3057402,-2.3319526,8.461109,-2.480393
1570715220,22.73055,26.18299,-11.405977,-0.73931605,-1.4296285,-0.44209823,18.272547,18.583794,-7.091625
1570715220,6.0525417,9.308656,-5.3725886,-2.073068,-0.5614115,-2.2722783,2.0494366,1.2449849,-1.4796166
1570715220,1.8722657,12.310986,-9.753978,-3.4334521,-0.5198649,-1.3358823,-2.0973208,4.55856,-7.0006456
1570715220,5.2624555,5.9184666,-6.4068837,-3.160736,-0.60189277,-0.29402196,2.078167,-3.0262709,-3.9552212
1570715220,6.5840545,0.31603462,-8.599973,-2.024064,-0.4452941,-0.56780326,3.5290532,-8.820239,-6.7803793
1570715220,7.216124,-1.9871874,-6.823475,-1.14839,-0.11185618,-0.92148185,4.1706996,-11.271901,-5.391742
1570715221,4.2185836,-6.9144545,-4.630386,-0.08735435,0.54117084,-0.83306223,1.6424223,-16.294937,-3.3901896
1570715221,0.7565677,-5.3103395,-1.3455414,1.7577399,1.3017929,-0.61041516,-1.6567876,-14.700398,0.11971009
1570715221,-0.46926352,-1.6328455,-3.6152446,2.3702857,1.4211061,0.33556855,-2.920926,-10.922348,-1.6519991
1570715221,-1.3503298,5.363012,-4.654328,3.1916296,1.8248537,1.3081846,-4.1659107,-3.6535518,-2.030283
1570715221,6.8665705,34.246662,-14.144943,4.4582677,2.6504588,1.7449564,3.4859576,25.713726,-10.67814
1570715221,8.700529,30.875626,-2.8538885,1.9878441,1.2613115,3.1831071,4.156334,27.418398,-0.6560113
1570715221,6.5601125,11.678916,-0.0047884034,2.7505968,3.0605981,1.1345413,1.8004397,6.646304,4.5777135
1570715221,11.81778,10.572795,-16.218323,1.8972938,-1.9718646,2.1359203,6.459556,3.7828386,-11.583148
1570715221,9.883265,16.567875,-5.837064,0.39522517,0.7648832,1.5244399,4.156334,10.232818,-1.0103531
1570715221,7.493851,15.322891,2.858677,1.5958148,0.4506206,0.72333664,2.6479871,10.28549,5.971139
1570715221,2.4995465,4.223372,-1.8770541,0.20347172,0.53904027,-0.5187996,-3.5338416,-1.6232687,3.169923
1570715221,0.20111294,0.59376204,-4.1371803,-1.2048508,0.03728539,-1.3199029,-5.861006,-5.5737014,1.067814
1570715221,-1.1923125,-1.4556746,-2.6719291,-1.5574641,-0.60189277,-1.5372235,-6.7612257,-8.0924015,1.9153614
1570715221,-2.8538885,-1.6903064,-1.532289,-1.3092499,0.3877681,-1.0099015,-8.202535,-9.385271,2.791639
1570715221,-0.20111294,2.4181437,-0.58418524,-0.75209963,-0.07989727,-0.7254672,-5.521029,-4.807557,2.6001031
1570715221,3.0693667,7.1586633,3.3183637,-1.0908641,-1.6022066,-0.058591332,-2.3702598,-1.8483237,6.6846113
1570715221,16.141708,21.11207,-10.28549,0.12996623,-2.7942739,1.7055404,7.441179,11.03727,-5.329493
1570715221,2.3942018,8.303091,-2.9161377,-0.5901745,-0.30147904,0.1395539,-1.1779473,1.3359646,2.3127987
1570715221,4.223372,14.346057,-5.4539914,-0.8021686,-1.4551957,-1.2282873,-0.4357447,4.8219223,0.01436521
1570715221,4.55856,19.230228,-3.715801,-2.0506966,-1.0184239,-1.2432015,-1.13964,11.209652,1.0390835
1570715221,11.51611,11.295844,-8.42759,-1.9782565,-0.070309594,-0.78725445,7.2783732,3.5338416,-5.2959743
1570715221,4.879383,12.828133,-8.748413,-2.5396678,-1.6043372,-1.8355067,2.72939,4.0653543,-4.960786
1570715221,5.5737014,9.648633,-8.0924015,-2.7868168,-1.392343,-1.3358823,2.1691468,2.087744,-5.741296
1570715221,5.3103395,1.1348516,-6.655881,-2.7921433,-0.5315832,-0.26632422,2.8060043,-6.8043213,-4.548983
1570715221,5.5880666,-0.81402856,-6.5744777,-1.7129974,-0.12357444,-0.61787224,2.504335,-10.0748005,-5.0421886
1570715221,5.6646814,-5.0038815,-5.6120086,-0.46766534,-0.19494934,-0.6935083,3.6152446,-13.249513,-5.0900726
1570715221,2.3558946,-6.847417,-2.96881,0.9694202,0.46979594,-0.43144527,0.9528923,-16.22311,-1.934515
1570715221,-1.3359646,-5.363012,-1.982399,2.087982,1.0706234,0.3526133,-3.5769374,-15.318103,0.033518825
1570715221,0.31603462,4.5633483,-2.0925324,3.081904,1.2858135,1.4765016,-2.135628,-7.1347213,-0.9624691
1570715221,1.7381904,25.22531,-14.762648,4.093936,1.1324106,1.6192514,-1.292869,16.409859,-11.707646
1570715221,7.4124484,25.780764,-1.9776106,1.5052645,0.43783703,3.522937,2.681506,21.365856,0.3878607
1570715221,7.690176,14.580688,0.7134721,2.7218337,2.7644455,1.406192,3.016694,6.9240313,4.6830587
1570715221,14.920665,3.8546648,-11.683704,2.486403,-1.3806248,1.7066057,9.222465,-5.1666875,-4.1276035
1570715222,12.880805,13.757083,-8.159439,1.2495933,1.0652969,1.639492,7.479486,7.120356,-3.3614593
1570715222,3.7972038,15.006856,-0.33997664,0.9406572,1.062101,1.1686307,-0.46447513,9.232041,3.3375173
1570715222,0.04309563,5.8705826,-0.14844051,0.986465,0.692443,0.2791078,-6.0716953,-0.110133275,4.6399627
1570715222,-1.6136919,1.7477672,-1.3694834,-0.44635943,0.2737813,-0.99392205,-7.7189064,-4.3143516,3.3327289
1570715222,-4.146757,1.1061212,-1.2401965,-1.3422742,-0.54117084,-2.083721,-9.883265,-5.3965306,3.3327289
1570715222,-2.777274,-4.3287168,-1.4939818,-1.9676034,-0.5933704,-1.2559851,-8.063671,-11.353305,2.8443117
1570715222,1.5466543,-2.1021092,-2.5570073,-0.986465,-0.070309594,-0.07350549,-3.6152446,-9.394848,1.4796166
1570715222,4.7070007,1.9536686,5.7269306,-0.2098635,-0.81601745,0.12463974,-1.388637,-6.8665705,7.503428
1570715222,23.616405,37.986404,-17.578228,1.209112,-2.1700099,1.0642316,18.727446,30.703243,-13.187263
1570715222,-1.3551182,4.6782703,-4.1371803,1.3390783,0.5550197,-1.9324486,-6.277597,-2.4420857,0.46926352
1570715222,5.60722,7.326257,-6.7564373,-0.9023065,-1.1015171,-0.3451562,1.3215994,-0.4309563,-1.115698
1570715222,0.61770403,16.036364,-0.24899697,-2.1284633,-0.61467636,0.5933704,-4.936844,6.679823,5.2959743
1570715222,12.684481,20.130447,-9.835381,-1.4040613,-0.5880439,-1.7098016,8.384495,15.83525,-6.1004257
1570715222,5.631162,8.063671,-9.811439,-2.209426,-1.3550577,-1.8099395,1.9632454,-0.19153613,-5.995081
1570715222,7.1347213,11.540052,-6.114791,-3.0978835,-0.24075711,-0.99285674,3.6966474,2.528277,-4.309563
1570715222,5.535394,5.209783,-7.929596,-3.0403574,-0.26419365,-0.7968421,2.954445,-1.6472107,-4.4915223
1570715222,4.5537715,0.6560113,-7.551312,-1.7673277,-0.21625528,-1.1164312,1.685518,-8.523358,-6.1626754
1570715222,3.8163576,-3.5290532,-6.7133417,-1.0237503,-0.31745848,-1.1217576,1.4221559,-11.506534,-5.3007627
1570715222,2.6479871,-7.6231384,-2.0638018,0.3504827,0.76168734,-0.4570124,0.545878,-17.204733,-1.5562311
1570715222,0.6655881,-4.237737,-1.3503298,1.8482902,1.1079088,0.2823037,-1.4700398,-14.523228,0.61770403
1570715222,0.05746084,2.1883004,-4.5441947,2.7431395,1.1611737,1.1313454,-2.3654714,-8.2169,-1.9919758
1570715222,1.067814,9.787497,-6.4020953,2.8049269,1.3209682,1.6277738,-2.456451,-1.115698,-0.92416185
1570715222,5.315128,38.786068,-8.887277,2.9945498,2.0666761,2.784686,1.6711528,27.978642,-7.1155677
1570715222,6.8043213,20.580557,-0.7134721,1.9036856,1.1143006,2.543929,2.4660277,15.7825775,1.5801731
1570715222,9.016563,4.232949,-0.9959879,2.3575022,1.5638559,1.0482522,2.7820623,1.5131354,4.247314
1570715222,15.763424,10.366894,-14.628572,2.2296665,-0.6168069,1.266638,10.477027,1.4652514,-10.266336
1570715222,11.386824,14.753071,-3.2082303,0.7052266,1.4232367,1.1643696,7.038953,8.255207,0.5650316
1570715222,3.98874,11.678916,2.078167,1.2858135,0.88845766,0.42824936,-1.6519991,7.991845,6.71813
1570715222,0.78529817,4.3239284,-2.96881,0.025567126,0.6029581,-0.5614115,-5.2720323,-1.0726024,2.7246015
1570715222,-1.6376339,0.7565677,-3.1651347,-0.91295946,0.1374233,-1.4711751,-7.192182,-5.377377,1.3359646
1570715222,-2.858677,-1.6950948,-0.35434186,-0.81282157,-0.116117366,-2.034717,-8.030152,-7.345411,3.5290532
1570715222,-2.4468741,-2.566584,-2.944868,-1.3390783,-0.08309316,-0.66900647,-7.9726915,-10.58716,1.8291701
1570715222,-0.20590134,0.48362875,-0.11971009,-0.33237264,-0.68498594,0.036220096,-6.066907,-7.0724716,3.098097
1570715223,5.3821654,12.952631,9.313444,-1.080211,-2.7090502,-0.23969181,-1.5658079,1.1204864,15.26543
1570715223,18.05707,20.944477,-5.4444146,0.29721785,0.057526033,2.5396678,24.540567,32.819717,-7.73806
1570715223,-3.0119057,0.7278373,-7.8769236,0.4889713,-0.3494174,-0.22903883,-8.082825,-6.244078,-3.2082303
1570715223,4.2664676,16.22311,-4.003105,-1.140933,-1.9420363,-1.062101,-0.5746084,9.107543,0.6943185
1570715223,7.216124,18.6221,-5.4539914,-1.7598705,-1.2900746,-0.22690825,2.7006595,11.171345,-0.94331545
1570715223,11.291056,11.765107,-5.861006,-1.822723,0.034089502,-1.0301422,6.981492,4.050989,-1.5993267
1570715223,0.9528923,14.623784,-10.433931,-2.6110427,-1.4722403,-1.9239262,-2.0925324,6.191406,-6.397307
1570715223,5.530606,9.605537,-7.6375036,-2.8720405,-1.2133732,-1.2186997,2.2984335,0.93373865,-4.381389
1570715223,7.311892,4.027047,-6.7851677,-2.9721785,-0.40055165,-0.40694344,4.3047748,-4.9559975,-4.247314
1570715223,6.325481,0.6799533,-8.250419,-1.8962286,0.0,-0.7851238,3.490746,-8.513782,-6.3542113
1570715223,7.441179,-1.9680338,-6.6415157,-1.0663623,0.14594568,-0.7989727,4.8362875,-11.300632,-5.133168
1570715223,3.371036,-5.746084,-3.241749,0.43890235,0.6647453,-0.74038136,0.9672575,-15.150508,-1.8435353
1570715223,0.15322891,-4.237737,-2.4995465,1.7215198,1.4626527,-0.6295905,-2.0925324,-13.627796,-0.80445176
1570715223,-0.21068975,-2.183512,-3.7924154,2.3159556,1.8301802,0.6594188,-2.5713725,-11.453861,-1.6472107
1570715223,-1.0199299,7.2783732,-2.15957,2.995615,1.9654728,1.6799732,-3.8786068,-1.685518,0.58897364
1570715223,3.4045548,41.424477,-16.19438,3.8233507,2.2776048,2.5748227,-0.1388637,32.98252,-12.670115
1570715223,6.7085533,19.04348,1.412579,1.9462975,0.9790079,2.363894,2.255338,11.224017,5.315128
1570715223,8.408437,8.978256,2.0829554,3.268331,2.1945117,0.21412468,2.4181437,4.280833,5.8945246
1570715223,14.686033,11.061212,-14.18325,2.335131,-0.54117084,1.5084604,8.724471,-0.38307226,-5.8466406
1570715223,11.449073,16.424223,-5.66947,0.6711371,1.3902125,1.416845,6.564901,9.859323,-1.958457
1570715223,6.4643445,13.484144,0.79008657,1.4892851,0.7084225,0.84904164,1.7046716,9.050082,5.3247046
1570715223,1.7429788,4.4819455,-2.0925324,-0.17790459,1.0333381,-0.39522517,-4.4963107,-1.7717092,2.8634653
1570715223,-1.1540052,0.866701,-3.3806129,-1.4562609,0.37072334,-1.0642316,-6.6271505,-5.1235914,1.541866
1570715223,-1.1252748,-0.30645782,-3.8355112,-1.9058162,-0.117182665,-1.697018,-6.9719152,-6.215348,0.39743748
1570715223,-3.1603463,-2.825158,-1.1204864,-1.5191134,-0.043677174,-1.241071,-8.820239,-9.959879,2.6623523
1570715223,-0.6799533,0.7661445,0.12449849,-1.2922052,-0.37391922,-0.3494174,-6.291962,-7.053318,3.2944214
1570715223,3.6296098,4.247314,4.189853,-0.506016,-1.9388404,0.57099915,-2.3558946,-4.912902,7.2304893
1570715223,23.496695,33.35123,-12.411542,0.6594188,-1.0194892,2.0709372,16.294937,21.499931,-10.390836
1570715223,-0.8571242,3.5098996,-6.196194,0.46660006,-0.33876443,-0.32598087,-6.5122285,-4.074931,-0.15801731
1570715223,3.41892,15.332468,-2.585738,-1.1494554,-1.3689066,-1.0344033,-1.2449849,5.746084,3.0071173
1570715223,4.271256,18.976442,-5.463568,-1.7854377,-1.6096637,-0.5443667,-1.3263878,12.287044,-0.79487497
1570715223,14.15452,12.512098,-9.179369,-1.7982212,-0.24714889,-0.721206,9.849746,5.985504,-6.9527617
1570715223,3.122039,11.358093,-10.390836,-2.5172966,-1.485024,-1.8301802,0.6607997,2.4516625,-6.2105594
1570715224,5.0900726,10.577583,-9.006987,-2.7431395,-1.1771531,-1.4285632,0.17717093,2.8682537,-5.2959743
1570715224,5.0900726,10.577583,-9.006987,-2.7431395,-1.1771531,-1.4285632,0.17717093,2.8682537,-5.2959743
1570715224,7.359776,7.2687964,-6.411672,-2.9348931,-0.6455699,-0.6967042,4.5154643,-0.6655881,-4.9655743
1570715224,5.434838,0.93373865,-6.2967505,-2.2296665,-0.015979454,-0.78192794,2.3942018,-7.9343843,-4.343082
1570715224,6.4164605,-0.15801731,-6.066907,-1.2794216,-0.15233746,-1.0780805,3.1555579,-9.050082,-4.0222588
1570715224,5.5880666,-6.517017,-3.2752678,0.060721926,0.18110047,-0.6711371,3.3662477,-14.298173,-2.9352913
1570715224,-0.10534488,-7.1826053,-3.2321723,1.4541303,0.8341275,-0.3835069,-1.4652514,-16.989256,-2.3175871
1570715224,-0.56982,-2.6910827,-2.3894134,2.5300803,1.4669139,0.5187996,-3.6487634,-13.086706,-0.18195933
1570715224,1.3551182,13.153744,-7.7189064,3.701907,1.1174965,1.521244,-1.6903064,0.08619126,-2.432509
1570715224,3.0310593,33.068714,-11.453861,2.5599086,1.3135111,3.368469,0.05746084,27.724855,-12.042834
1570715224,6.196194,19.278112,-3.8642416,2.1721404,1.5574641,2.2978456,2.255338,12.990938,-0.7661445
1570715224,11.453861,9.399636,-1.8579005,3.3674035,2.2307317,0.44209823,4.6495395,5.161899,2.0350714
1570715224,17.918205,11.066,-9.950302,2.686679,0.40587813,1.1174965,13.690045,2.8060043,-7.264008
1570715224,9.193734,11.247959,-3.0885203,1.474371,1.062101,1.0333381,5.8226986,4.7884035,1.958457
1570715224,-0.29688102,10.342952,-1.7669208,1.5297664,1.32736,0.29082605,-5.4444146,5.5258174,2.6671407
1570715224,-0.30166942,4.0318356,-0.7374141,0.64343935,1.0130974,-0.6455699,-6.291962,-1.9153614,4.247314
1570715224,-5.33907,2.0207062,0.08619126,-1.0525134,0.6295905,-1.6160555,-11.233594,-4.1946416,4.8506527
1570715224,-7.273585,-1.4508862,-1.7190368,-1.5862272,-0.50282013,-1.8365719,-12.794614,-8.192958,2.7724855
1570715224,0.0047884034,-1.1731589,-2.7341783,-1.7204546,-0.8309316,-0.7797974,-5.161899,-8.341399,1.5131354
1570715224,5.5401826,-0.25857377,3.7684734,-0.43570644,-1.0194892,-0.16405573,0.5650316,-7.608773,7.9343843
1570715224,14.384364,13.072341,-10.625467,-0.05219955,-3.4739332,0.29508725,9.672575,5.6790466,-6.2249246
1570715224,-1.4939818,11.626244,-1.2880806,0.88952297,0.25780186,1.2613115,-6.3111157,4.548983,3.4955344
1570715224,1.8339585,8.724471,-0.37828386,-0.5571503,0.33237264,-0.85543346,-2.858677,1.6184803,4.4819455
1570715224,2.5474305,20.417751,-4.3239284,-2.0858514,-2.5141008,-0.64450467,-1.7908629,12.952631,0.32561144
1570715224,14.719552,15.691598,-8.844181,-1.6490797,-0.4911019,-0.025567126,10.58716,8.010999,-4.3478703
1570715224,5.45878,9.442732,-9.088389,-2.4810765,-1.266638,-1.7992865,1.6998832,1.3311762,-5.0517654
1570715224,0.9576807,12.497733,-9.131485,-2.9444807,-1.0418605,-1.7055404,-2.1739352,3.8833952,-5.6407394
1570715224,5.731719,9.370906,-7.1586633,-3.3567507,-1.0322727,-0.56993383,2.0350714,1.8722657,-3.5003228
1570715224,6.7085533,0.7134721,-5.717354,-2.478946,-0.43570644,-0.47405714,4.0557775,-8.523358,-3.7780502
1570715224,6.459556,-2.8203697,-7.1395097,-1.4828933,-0.74890375,-0.59656626,4.084508,-11.18571,-4.88896
1570715224,4.525041,-8.508993,-5.085284,-0.19175345,-0.023436533,-0.5646074,2.528277,-17.343597,-4.501099
1570715224,2.336741,-6.1004257,-0.29688102,1.5393541,1.2453321,-0.3100014,0.38307226,-16.448166,0.2777274
1570715224,1.3790601,1.0965444,-2.2697031,2.3543062,1.4083226,0.46446946,-0.5410896,-9.662998,0.3878607
1570715224,-0.33039984,10.232818,-7.350199,3.1458218,1.5159175,1.1579778,-3.3566709,-1.6903064,-1.2641385
1570715225,3.6822822,35.26659,-12.660539,2.9263706,1.4381509,2.874171,0.51714754,26.896461,-11.003751
1570715225,5.6646814,18.32522,-2.9496565,1.8695961,1.3071194,2.2861273,2.111686,12.636597,0.16280572
1570715225,7.177817,8.935161,-3.6296098,2.3404574,2.407571,0.74038136,1.8195933,3.6583402,0.7038953
1570715225,16.323668,13.168109,-12.23437,2.9391541,-0.13316211,1.3199029,10.726024,3.4141316,-9.141062
1570715225,14.451402,14.049175,-0.7038953,1.1025823,1.1164312,1.2261568,10.793061,8.269572,4.122815
1570715225,2.791639,9.854534,-0.9720459,1.4360203,1.0674275,0.6455699,-1.7669208,4.4484267,4.295198
1570715225,-2.2840683,4.88896,-3.3375173,0.2119941,1.0610358,-0.22477765,-7.666234,-0.272939,1.2641385
1570715225,-5.2385135,2.0015526,0.1436521,-1.0493175,0.22264706,-1.1856755,-10.821792,-4.4340615,4.759673
1570715225,-5.4061074,-0.7757214,0.04309563,-1.6299043,-0.4474247,-1.7002139,-11.281479,-6.6271505,4.572925
1570715225,-1.8100165,-2.0254946,-2.327164,-1.7896988,-1.0003139,-0.82880104,-8.178593,-10.175357,2.3989902
1570715225,3.9121256,-1.0151415,-1.9632454,-0.9193513,-0.9523755,0.08628905,-1.8100165,-8.494628,1.2737153
1570715225,12.028469,7.3549876,13.28782,-0.5976316,-2.0261948,0.63491696,5.329493,-4.223372,13.776237
1570715225,33.643322,52.088253,-18.938135,1.6011413,-0.81175625,2.2935843,28.706478,44.920013,-14.4130945
1570715225,-7.2544312,0.9768343,-3.6296098,1.3784943,0.19707993,-1.6895609,-15.409082,-5.521029,0.37349546
1570715225,3.6583402,15.610195,-7.445967,-1.8163313,-2.9423501,-0.7691444,-1.1061212,8.441956,-2.743755
1570715225,12.435484,21.270088,-5.315128,-1.2155038,-1.2357445,0.5859133,7.920019,13.876793,-0.7086837
1570715225,13.230358,13.52724,-6.1530986,-2.0283253,0.4868407,-1.9963665,6.751649,3.6296098,-0.81881696
1570715225,0.5793968,13.187263,-9.744401,-2.5673656,-1.3252294,-2.1156797,-3.0071173,4.903325,-5.9041014
1570715225,6.2488666,10.515334,-6.9288197,-3.247025,-0.868217,-0.98007315,3.1747115,1.7525556,-3.763685
1570715225,6.244078,1.982399,-7.9583263,-3.0723164,-0.4559471,-0.3163932,3.3375173,-7.0820484,-5.6120086
1570715225,5.971139,-0.80924016,-6.167464,-1.7524135,-0.4495553,-0.70735717,3.2321723,-10.060435,-4.414908
1570715225,4.1036615,-4.501099,-7.0724716,-0.64450467,-0.24075711,-0.8469111,1.6136919,-13.8720045,-5.60722
1570715225,3.7253778,-4.572925,-1.7812861,0.5550197,0.67220235,-0.6253293,1.4317327,-13.9917145,-0.30166942
1570715225,1.8674773,-3.1028855,-1.2880806,1.3444047,1.140933,0.088419646,-0.3878607,-12.492945,0.39743748
1570715225,-0.34476504,0.31603462,-3.5913026,2.234993,1.3103153,0.96409374,-3.3806129,-8.920795,-1.4508862
1570715225,-2.0829554,6.0046577,-1.8914193,2.482142,1.356123,1.5244399,-4.5394063,-4.6399627,-0.59376204
1570715225,5.5401826,39.58573,-12.837709,4.275037,2.8656487,2.2541683,0.7038953,23.467964,-10.180145
1570715225,8.446744,17.894264,0.7326257,1.9100775,1.1015171,2.195577,3.86903,10.108319,4.5537715
1570715225,6.83784,-1.7860745,1.2401965,2.2701478,1.9399058,1.054644,1.7477672,-9.126697,5.2863975
1570715225,12.196063,13.01488,-19.838356,2.0219336,-0.64343935,1.797156,6.9048777,6.229713,-15.126566
1570715225,12.727576,16.864758,-3.9217024,0.6114804,1.747087,1.3614495,6.5218053,9.744401,-1.5610195
1570715225,7.5321584,13.393165,3.9121256,1.8142006,0.79471153,0.3813763,2.3463178,9.9790325,8.192958
1570715225,2.0350714,5.3582234,-2.4756045,0.11079088,0.9704855,-0.60934985,-4.2425256,-0.8714894,3.2609026
1570715226,-0.2681506,1.1348516,-4.735731,-1.0716888,0.02769772,-1.334817,-5.7365074,-4.8602295,-0.0047884034
1570715226,-1.091756,-0.46447513,-2.0733786,-1.1153659,0.10972559,-1.8450943,-6.2105594,-6.435614,1.3455414
1570715226,-2.7629087,-4.1132383,-0.19153613,-1.0887334,-0.14061919,-0.92574304,-8.2169,-11.348516,4.3622355
1570715226,-2.7246015,-0.05267244,-1.5849615,-0.9395919,-0.409074,0.29082605,-8.422802,-7.038953,2.1643584
1570715226,4.4675803,4.7070007,6.9767036,-0.36326626,-1.9995624,0.2737813,-2.3080103,-5.7269306,8.456321
1570715226,31.69923,41.77882,-8.169016,0.5401055,-0.91295946,1.9313834,27.087997,34.170048,-10.19451
1570715226,-0.94331545,1.9488802,-5.5162406,0.13209683,0.5475626,-0.3781804,-6.0525417,-6.813898,-2.2649148
1570715226,3.1364043,21.44247,-5.1571107,-1.1675655,-1.4733057,-1.7982212,-2.6240451,11.233594,1.7190368
1570715226,5.4539914,16.730682,-6.2967505,-1.7950253,-1.3007276,-0.7670138,-1.7238252,10.19451,-0.019153614
1570715226,10.084377,9.959879,-8.192958,-1.9281875,-0.2066676,-0.9289389,5.674258,2.078167,-4.357447
1570715226,1.2306197,13.594277,-9.11712,-2.486403,-1.4285632,-2.1369855,-2.0159178,4.1802764,-6.1530986
1570715226,7.053318,10.965444,-7.3789296,-2.8581917,-1.1973938,-1.1366718,2.6431987,3.1842883,-4.9703627
1570715226,7.043741,2.767697,-7.062895,-2.856061,-0.49003658,-0.33663383,3.6535518,-5.741296,-4.4580035
1570715226,6.612785,1.532289,-6.50744,-1.8877062,-0.33130735,-0.67752886,3.2082303,-8.030152,-5.3247046
1570715226,5.8945246,-3.6822822,-5.2720323,-0.64663523,-0.15553336,-0.98113847,3.3327289,-11.765107,-4.793192
1570715226,5.0900726,-6.411672,-3.7014358,0.8852618,0.46660006,-1.0344033,3.2704794,-16.01242,-2.3894134
1570715226,-0.45968673,-5.8466406,-1.8914193,1.6149901,1.636296,-0.52519137,-1.70946,-15.557523,-0.9720459
1570715226,-1.6089035,-1.2593501,-3.3758245,2.8251674,1.6757121,0.7627526,-3.9264908,-12.105083,-1.3311762
1570715226,-1.412579,11.496957,-5.171476,3.7477145,1.248528,1.3603842,-4.0462008,2.4420857,-2.4660277
1570715226,4.261679,43.033382,-13.148955,3.724278,1.9633423,3.0435534,0.9864111,34.5196,-9.5385
1570715226,9.821015,19.31163,-1.283292,1.862139,1.1515859,2.866714,5.5162406,11.473015,2.743755
1570715226,9.222465,0.9911995,1.2354081,2.4874682,1.4264326,1.1206924,4.3287168,-6.3542113,5.506664
1570715226,15.940595,15.155296,-15.562311,1.9335139,0.15659864,1.7353687,10.807426,8.408437,-10.630256
1570715226,9.950302,15.86398,-1.8339585,0.79151565,1.0567746,1.0834069,4.3239284,9.471462,3.0358477
1570715226,3.4141316,8.307879,1.0773908,1.3124459,0.88313115,0.2844343,-2.4372973,2.2266076,6.0716953
1570715226,-0.21547815,3.845088,-2.695871,-0.14914156,0.800038,-0.409074,-6.114791,-0.92895025,3.083732
1570715226,-2.3894134,-0.033518825,-3.289633,-1.2208303,-0.12357444,-1.6149901,-8.154651,-6.421249,1.412579
1570715226,-3.964798,-3.3806129,-0.47884035,-1.4051267,-0.9023065,-1.9175345,-9.289502,-10.290278,3.9935284
1570715226,-0.047884032,-1.3982137,-2.3080103,-1.3199029,-0.14807628,-0.4836448,-5.0757074,-8.671799,1.9297266
1570715226,3.8642416,0.82360536,3.241749,-0.4548818,-0.8309316,0.6231987,-1.163582,-6.5218053,7.3549876
1570715226,16.357185,17.717093,-8.844181,0.43677175,-3.1660626,1.1036476,5.7748146,4.831499,3.8881836
1570715226,-6.2345014,5.104438,-0.6847417,0.16512102,-0.24608359,-0.5976316,-11.310209,-1.8291701,4.0318356
1570715226,6.1387334,12.837709,-5.506664,-1.1068435,-1.0067056,-0.82880104,1.283292,5.722142,-0.80924016
1570715226,2.944868,15.691598,-4.1419687,-2.3926568,-1.2922052,-0.034089502,0.076614454,9.390059,-1.6136919
1570715227,11.439496,14.561535,-8.963891,-1.6320349,-0.2759119,-0.79471153,7.067683,6.861782,-4.735731
1570715227,3.3901896,8.825027,-9.423578,-2.5822797,-1.6586673,-1.9068816,0.92895025,0.82360536,-3.5434184
1570715227,5.2624555,10.817003,-8.772355,-2.787882,-1.1814142,-1.3614495,0.48841715,2.7150247,-5.9567738
1570715227,7.536947,7.97748,-6.8665705,-3.2353067,-0.5986969,-0.5827174,3.6774938,-2.7629087,-5.094861
1570715227,6.349423,0.842759,-8.571242,-2.1028962,-0.122509144,-0.886327,3.466804,-8.169016,-6.3302693
1570715227,5.57849,0.56982,-7.690176,-1.5180482,-0.33450323,-1.1515859,2.954445,-8.513782,-6.373365
1570715227,4.232949,-7.6231384,-4.098873,-0.14488038,0.3494174,-0.92041653,2.087744,-16.122555,-3.5242648
1570715227,1.9919758,-5.6982,-1.1252748,1.5478765,1.2176344,-0.60402334,0.44532153,-15.682021,0.10055647
1570715227,0.33039984,-2.6001031,-4.10845,2.3393922,1.4274979,0.36007038,-1.6807296,-12.65575,-1.6759412
1570715227,-0.50757074,5.741296,-4.2664676,2.791078,1.8802491,1.4029961,-2.27928,-4.4963107,-3.0597897
1570715227,0.63206923,28.807035,-11.238382,3.9661005,2.8390164,1.0290768,-2.0829554,13.508086,-10.668563
1570715227,7.249643,26.877308,-2.528277,2.4373994,1.0823417,3.35462,2.705448,21.35149,-0.45010993
1570715227,8.341399,13.000515,0.9816227,3.0201168,2.4342034,1.2059162,3.9552212,7.728483,4.5872903
1570715227,9.988609,2.2122424,-11.918336,2.0251296,-2.5449944,1.8269843,4.050989,-8.173804,-2.8491
1570715227,11.33894,17.525557,-11.089942,0.98966086,1.4967422,1.2623769,5.770026,9.490616,-8.24563
1570715227,8.441956,17.57344,4.606444,1.2186997,1.57877,0.9832691,4.232949,12.885593,7.8625584
1570715227,1.6519991,3.86903,-0.5315128,0.63065577,0.692443,0.07670138,-3.3183637,-1.8004397,5.2768207
1570715227,-0.6607997,-0.20590134,-3.9839516,-1.1036476,-0.017044751,-0.7925809,-5.9184666,-5.961562,1.13964
1570715227,-1.7142484,0.4165911,-3.0693667,-1.5340276,-0.07989727,-1.5148523,-6.9000893,-5.6215854,1.2258313
1570715227,-5.032612,-3.1268275,-0.92416185,-1.1675655,-0.0085223755,-1.2037855,-9.672575,-9.787497,3.7205894
1570715227,-1.1204864,1.0103531,-0.9528923,-1.1558472,-0.47725302,-0.4516859,-6.579266,-6.2632318,2.5330653
1570715227,3.040636,2.815581,6.5696893,-1.1633042,-1.5638559,0.43677175,-2.7246015,-5.4300494,8.743625
1570715227,25.507826,35.529953,-22.045809,0.7382508,-3.200152,1.8940979,14.542381,18.47366,-13.972561
1570715227,-2.4468741,1.8004397,-0.5315128,0.3419603,-0.96302843,0.094811425,-7.297527,-5.2624555,4.232949
1570715227,7.0485296,8.719683,-3.9121256,-0.59656626,-0.9097636,-0.12144385,2.360683,1.6472107,1.0055647
1570715227,8.1163435,20.551826,-4.596867,-2.073068,-1.0258809,-0.2098635,3.7014358,13.192051,0.15322891
1570715227,11.295844,14.939818,-9.02614,-1.9462975,0.16192514,-1.3039235,7.0581064,7.2209125,-4.697424
1570715227,3.2369606,10.477027,-6.5840545,-2.6355445,-0.8618252,-1.8323107,-0.5267244,2.2888567,-2.7150247
1570715227,6.5218053,8.930372,-6.4978633,-3.272592,-0.91295946,-0.8277357,3.8546648,1.3982137,-3.9695864
1570715227,5.559336,7.3549876,-6.95755,-3.293898,-0.8660864,-0.74357724,2.681506,-1.6663644,-4.4101195
1570715227,3.892972,0.80924016,-7.517793,-2.3702857,-0.5113425,-0.6967042,1.2354081,-8.451532,-5.7029886
1570715227,6.631939,-1.4317327,-6.3829417,-1.2368097,-0.74570787,-0.82027864,4.237737,-10.836157,-4.9895163
1570715227,5.080496,-5.161899,-4.060566,-0.18749227,-0.13316211,-0.67220235,2.906561,-14.642938,-2.815581
1570715228,1.2593501,-4.3622355,-1.8818425,0.8980453,0.6785942,-0.2737813,-0.78529817,-13.852851,-0.5315128
1570715228,-0.30166942,-2.8299465,-2.705448,1.9164692,0.70203066,0.742512,-2.4708161,-12.23437,-0.9864111
1570715228,-0.30166942,2.5953147,-3.394978,2.8368857,1.0024444,1.6597326,-2.873042,-6.564901,-1.0342951
1570715228,0.78529817,16.481684,-14.42746,3.8755503,2.0613496,1.0589051,-2.303222,7.7189064,-11.286267
1570715228,10.01734,39.40377,-8.628703,3.4952393,2.0421743,4.010843,5.056554,33.26025,-10.817003
1570715228,9.854534,19.091364,-2.9783869,2.5215578,0.8469111,1.5979455,5.803545,13.321339,2.231396
1570715228,9.308656,0.33518824,-1.9297266,2.3521757,1.0834069,0.8362581,4.271256,-2.0015526,4.343082
1570715228,11.305421,15.562311,-15.514427,2.4523137,0.22690825,1.306054,6.3302693,7.1873937,-12.607866
1570715228,14.848839,17.76019,0.9911995,0.7691444,2.1593568,1.1015171,9.964667,12.401965,3.7684734
1570715228,5.7125654,6.2584434,0.6991069,1.0407951,0.87460876,0.31958908,1.4939818,2.72939,7.4507556
1570715228,0.48841715,1.4700398,-5.439626,-0.5827174,0.6551576,-0.70203066,-5.046977,-3.3662477,-0.2681506
1570715228,-2.006341,0.11492168,-4.711789,-0.98859555,0.13422741,-1.8493555,-8.504205,-6.540959,0.16280572
1570715228,-3.2800562,-3.3087866,1.2354081,-1.3124459,0.7286631,-1.9505587,-8.293514,-9.222465,4.582502
1570715228,-3.9552212,-1.8722657,-1.9680338,-1.6117942,-0.113986775,-0.40481284,-9.002198,-10.079589,2.7341783
1570715228,-3.7684734,1.6519991,3.3183637,-0.6658106,-1.1814142,0.32704616,-9.500193,-6.090849,4.4196963
1570715228,25.091234,35.051113,-15.011644,0.56247675,-2.525819,1.2751604,10.716447,20.049046,-5.865794
1570715228,4.7309427,0.33997664,-5.2289367,0.20347172,-1.7374994,0.27165073,1.6903064,-5.1523223,1.5993267
1570715228,4.3478703,12.129025,-1.7477672,-0.9704855,-0.7371855,-0.60615396,0.56982,2.4947581,2.6623523
1570715228,2.566584,17.865534,-3.5577838,-2.1646833,-0.092680834,-0.8596946,-1.4987702,13.206416,-0.1388637
1570715228,11.741165,13.120225,-10.342952,-1.6085984,-0.15233746,-0.98539966,6.1243677,6.3111157,-5.5641246
1570715228,4.367024,9.040505,-6.3589997,-2.2339277,-1.1036476,-1.804613,1.7238252,1.0103531,-1.7812861
1570715228,3.8163576,11.84651,-8.2169,-2.43953,-1.3412088,-1.571313,-0.79487497,3.1986535,-4.999093
1570715228,6.339846,6.5984197,-6.483498,-2.8177104,-0.63811284,-0.7840586,3.7924154,-0.7326257,-4.697424
1570715228,3.8355112,0.9816227,-6.2584434,-2.2371235,-0.15233746,-0.6903124,0.48362875,-7.833828,-4.098873
1570715228,5.865794,-2.2505496,-7.714118,-1.0759499,-0.58378273,-0.7552955,2.6623523,-10.601525,-5.6982
1570715228,6.1866174,-8.916007,-4.4101195,0.28763017,-0.034089502,-0.5603462,3.6391866,-17.472883,-3.98874
1570715228,1.3455414,-8.772355,-4.0892963,1.4733057,0.7084225,-0.47299185,-1.1779473,-18.109741,-2.4756045
1570715228,-0.8762778,-3.4237084,-2.8538885,2.5961287,1.5020686,0.30360964,-3.4284968,-12.650962,-0.7374141
1570715228,0.23942018,11.477803,-3.3662477,3.375926,1.2186997,1.6309696,-2.743755,2.5809495,-0.50757074
1570715228,2.6384103,39.07816,-14.068329,3.6731439,1.736434,3.483521,-1.0534488,30.789434,-10.342952
1570715228,10.208876,20.058622,-4.209007,1.8695961,0.51240784,3.5676794,5.439626,12.540829,-0.090979666
1570715228,10.486604,3.514688,1.0247183,3.3311834,2.0389783,0.36433154,5.118803,-3.4141316,5.4204726
1570715228,19.713858,9.040505,-13.168109,3.5719407,-0.98007315,1.1249535,12.679692,-3.5769374,-5.363012
1570715229,9.739613,17.223886,-7.062895,0.47831833,1.2922052,1.1888714,3.821146,11.444284,-1.7908629
1570715229,3.4380736,10.668563,-0.31124622,1.54255,1.6671897,0.22690825,-2.8107927,5.171476,4.8698063
1570715229,0.7469909,1.7046716,-1.5466543,0.4239882,1.2048508,-0.88313115,-6.0046577,-3.6104562,4.232949
1570715229,-2.255338,0.39264908,-3.241749,-0.9353307,0.19494934,-2.1721404,-8.42759,-5.45878,1.6328455
1570715229,-1.6184803,-1.1300632,-0.641646,-1.3838208,0.40374753,-2.0901127,-7.4028716,-7.5800424,3.9456444
1570715229,0.24899697,1.6807296,-2.1452048,-1.4583915,0.39842105,-0.84478045,-5.3247046,-5.2049947,2.054225
1570715229,0.37349546,1.4269443,1.364695,-0.4175964,-0.47725302,-0.19068815,-5.109226,-5.6215854,5.410896
1570715229,-0.56982,12.512098,5.81791,-1.7833071,-2.86991,-0.46020827,-5.7843914,5.305551,9.945514
1570715229,24.214956,35.462917,-10.500969,1.0258809,-0.6583535,2.1945117,19.709068,35.036747,-12.449849
1570715229,1.1061212,0.22505496,-7.608773,0.07883197,-0.5827174,0.0063917814,-4.2281604,-6.5122285,-3.1890767
1570715229,3.514688,15.739482,-4.486734,-1.6032718,-2.992419,-0.52519137,-2.8107927,4.960786,2.7868507
1570715229,11.142614,18.02355,-6.694188,-1.7822418,-0.66368,-0.54223615,6.4547677,10.496181,-2.4995465
1570715229,10.0748005,8.590396,-7.8865004,-1.8312454,0.23116943,-1.4157796,7.3789296,1.4748282,-5.932832
1570715229,2.303222,10.070012,-7.5321584,-3.0488799,-1.3209682,-1.6171207,-0.9672575,1.508347,-4.5681367
1570715229,4.7309427,9.466674,-7.07726,-2.8251674,-1.374233,-1.0525134,-0.31124622,1.5897499,-3.6487634
1570715229,6.6079965,2.4037786,-7.9583263,-2.6856136,-0.41013932,-0.47512242,3.6487634,-5.449203,-5.884948
1570715229,6.8330517,-0.6799533,-7.4603324,-1.5936842,-0.243953,-0.66900647,3.6248214,-9.404425,-6.009446
1570715229,4.663905,-4.453215,-5.521029,-0.43037996,-0.12890093,-0.6402435,2.2984335,-12.708423,-4.4915223
1570715229,2.3127987,-6.3925185,-2.858677,1.0184239,0.5571503,-0.5688686,0.076614454,-16.093824,-2.0350714
1570715229,-0.40701428,-4.122815,-0.8331822,1.8461596,1.5223093,-0.35900506,-2.8299465,-13.771448,0.842759
1570715229,-0.5267244,1.5562311,-2.5617957,2.4885337,1.5723783,0.7797974,-3.1842883,-9.045294,-0.4405331
1570715229,-0.40701428,22.337902,-13.417107,3.8670278,1.2048508,1.0567746,-3.9791632,7.015011,-7.4363904
1570715229,8.178593,32.130188,-2.3558946,1.384886,0.6359823,3.648642,3.1268275,30.32017,-3.1268275
1570715229,7.192182,13.785813,0.8475474,2.5631044,2.342588,0.94278777,2.9783869,7.3789296,4.0222588
1570715229,14.068329,1.4939818,-6.325481,2.589737,-0.92254716,1.707671,7.929596,-7.0724716,1.5753847
1570715229,13.52724,12.732365,-10.860099,0.7297284,1.2240262,1.6309696,9.346964,6.0046577,-8.197746
1570715229,7.1730285,14.901511,0.11971009,0.9768773,1.3976696,1.0834069,2.944868,7.872135,3.0262709
1570715229,0.48841715,5.104438,0.5746084,0.9055024,0.74464256,0.26632422,-4.697424,0.17238252,5.985504
1570715229,-0.8475474,1.8195933,-3.2800562,-0.25141007,0.20240642,-0.71481425,-6.9000893,-4.4244847,1.2401965
1570715229,-3.2321723,0.1340753,-2.6001031,-0.8437152,-0.74464256,-2.0475006,-9.361329,-6.133945,1.6711528
1570715229,-2.2936451,-4.405331,-1.4891934,-1.0919293,-0.39415985,-1.5595948,-7.565677,-11.420342,2.8778305
1570715229,-1.1204864,-1.316811,-3.3518825,-0.7286631,-0.22584295,0.1747087,-6.2967505,-8.552089,0.7613561
1570715229,2.2601264,2.9017725,9.423578,-0.0085223755,-0.9395919,0.36220095,-2.9352913,-4.2904096,13.594277
1570715229,30.162153,46.174576,-17.774553,1.0770152,-1.7119322,0.8341275,25.187002,39.0207,-13.268666
1570715230,1.0199299,1.1971009,-3.4141316,0.47512242,-0.33876443,-0.55075854,-3.9695864,-5.7843914,1.3215994
1570715230,4.8267107,14.245501,-2.873042,-1.5244399,-0.87993526,-0.31745848,0.17238252,4.31914,3.083732
1570715230,3.572149,19.148825,-4.333505,-1.7268463,-0.47938362,-0.7350549,-1.13964,11.645397,-0.12928689
1570715230,10.927136,10.759542,-10.658986,-1.639492,-0.06604841,-1.0695581,7.1826053,5.779603,-8.513782
1570715230,3.2465374,9.907207,-8.762778,-2.6504588,-1.1878061,-1.736434,-0.6703765,1.6089035,-5.3007627
1570715230,6.0764837,11.439496,-6.5744777,-2.589737,-0.818148,-1.503134,0.6512229,3.1986535,-3.3375173
1570715230,7.067683,3.8402996,-6.727707,-2.6025205,-0.13209683,-0.62639457,4.8267107,-3.394978,-4.261679
1570715230,6.694188,0.35434186,-7.0341644,-1.5649211,0.054330144,-0.8341275,3.3997664,-8.537724,-5.48751
1570715230,5.6886234,-1.7142484,-5.559336,-0.7883197,-0.08202787,-0.83306223,3.4811692,-10.295067,-4.189853
1570715230,2.566584,-7.067683,-2.7006595,0.39522517,0.4911019,-0.77766675,0.22984336,-16.021997,-1.6950948
1570715230,-0.5793968,-5.6120086,-0.9672575,1.6054025,1.266638,-0.6935083,-2.4899697,-15.332468,0.35434186
1570715230,-0.7422025,-1.1827357,-3.7014358,2.5961287,1.3465353,0.6253293,-3.4141316,-11.717223,-1.1444284
1570715230,-1.2210429,14.049175,-10.251971,3.5996385,1.072754,1.3603842,-3.1507695,0.81881696,-3.916914
1570715230,4.8602295,38.57538,-7.6614456,2.4736195,1.3422742,3.601769,0.94810385,35.070267,-9.136273
1570715230,8.259995,17.472883,-0.22984336,2.2541683,1.5223093,2.1540303,4.4244847,11.678916,2.801216
1570715230,11.702858,2.695871,0.37828386,2.6067817,1.2677033,0.80323386,5.746084,-1.6041151,5.6359506
1570715230,13.589489,12.612655,-14.781801,1.7279116,-0.42931467,1.6586673,9.260772,4.271256,-11.401189
1570715230,10.649409,15.260642,-1.7956513,0.57099915,1.5627906,1.5308317,5.4444146,8.293514,1.3024458
1570715230,3.9073372,10.19451,2.6384103,1.5734435,0.93426543,0.6572882,-1.0630256,6.847417,8.183381
1570715230,1.3215994,2.657564,-2.753332,0.120378554,0.60828453,-0.5614115,-4.841076,-2.0590134,3.083732
1570715230,-3.6870706,1.1683705,-2.0733786,-0.9662243,-0.10120321,-1.4860892,-8.734048,-4.9943047,2.4037786
1570715230,-7.8050976,-1.4508862,-2.3080103,-1.3156418,-0.7265325,-1.4956769,-13.330915,-7.240066,3.2800562
1570715230,0.08619126,-2.408567,-0.60812724,-1.5350928,-0.25993246,-0.527322,-5.985504,-9.466674,3.2225955
1570715230,3.7828386,0.770933,4.19943,-0.760622,-1.7481523,-0.25460598,-2.27928,-7.8050976,7.565677
1570715230,21.246145,28.328194,-23.66429,-0.05539544,-3.124516,0.3781804,9.394848,11.147403,-11.03727
1570715230,-2.1021092,1.3551182,-1.7717092,0.5134731,-0.18216577,0.91615534,-4.6686935,-2.96881,4.5298295
1570715230,2.8491,8.207323,-1.4077905,-1.0354686,-0.9907262,-0.5997622,-2.2744915,-0.80445176,5.659893
1570715230,4.232949,21.1408,-1.9728222,-2.1657486,-0.742512,-0.21838588,0.62249243,14.221559,1.364695
1570715230,14.106636,14.101848,-11.587936,-1.0961906,-0.16299044,-0.36646214,9.682152,6.6415157,-7.005434
1570715230,3.691859,10.0987425,-7.8290396,-2.4512482,-1.0897988,-1.6032718,1.1683705,1.4269443,-3.4237084
1570715230,2.327164,12.35887,-7.881712,-2.554582,-1.2400056,-1.2570504,-2.4372973,5.0661306,-4.0222588
1570715230,7.493851,7.819463,-7.0245876,-2.8539305,-0.96835494,-0.3398297,4.1802764,-0.8571242,-3.8738184
1570715230,6.14831,1.6807296,-8.1881695,-2.536472,-0.5219955,-0.47938362,2.9975405,-7.2687964,-5.7125654
1570715231,7.28795,0.4405331,-6.8330517,-1.4796975,-0.20134112,-0.74996907,4.5681367,-8.12592,-5.1571107
1570715231,5.5880666,-6.181829,-3.6248214,-0.5869786,0.22051647,-0.9065677,2.8634653,-15.452178,-1.958457
1570715231,1.3742718,-6.8665705,-1.9632454,1.2037855,0.936396,-1.0589051,-1.0965444,-16.189592,-0.19153613
1570715231,-0.7230489,-4.8745947,-2.9161377,1.7620012,1.4072572,-0.09587672,-3.0885203,-14.149732,-0.79966336
1570715231,-0.9816227,0.6464345,-4.6351743,2.6067817,1.4871545,0.98007315,-3.3327289,-10.362105,-2.1068976
1570715231,-0.30166942,12.89517,-9.969456,2.921044,0.9949873,1.6554714,-3.5194764,4.2185836,-6.7085533
1570715231,9.136273,40.39976,-8.5473,2.7420743,2.0134113,3.3855135,5.118803,32.340878,-4.6495395
1570715231,9.682152,14.638149,1.3790601,2.7239642,1.374233,1.0056403,4.175488,7.1730285,5.674258
1570715231,11.865664,-2.183512,-4.3861775,2.4629664,-0.26312834,1.2314832,6.823475,-9.184157,0.272939
1570715231,12.713211,13.445837,-19.876663,1.2016549,0.5017549,1.395539,5.793968,7.019799,-11.760319
1570715231,8.690952,17.827227,-1.1300632,0.6359823,1.5340276,1.1100394,3.0310593,11.540052,3.8355112
1570715231,6.042965,7.129933,3.916914,0.8479764,0.95024484,0.28976077,0.062249243,1.115698,8.844181
1570715231,2.6048915,3.5290532,-3.074155,-0.29934844,0.31106672,-0.63385165,-3.323152,-2.030283,3.2130187
1570715231,-2.2601264,0.7613561,-3.8881836,-1.3135111,-0.25993246,-1.8536167,-7.9870567,-5.7029886,0.7517793
1570715231,-5.118803,-2.1404164,-0.110133275,-1.2240262,-0.4570124,-1.9175345,-9.782708,-8.087613,4.012682
1570715231,-2.0973208,-2.4372973,-1.0534488,-1.7247157,0.53371376,-0.5262567,-7.7189064,-10.275913,3.1507695
1570715231,2.1691468,1.6519991,5.45878,-0.56247675,-1.636296,-0.044742472,-2.8395233,-5.793968,9.399636
1570715231,18.411411,24.26284,-15.547946,0.2748466,-2.540733,0.92574304,6.8665705,10.184934,-5.9184666
1570715231,-1.9009962,3.5865142,-1.5993267,0.35367858,-0.5315832,-0.09055024,-5.4683566,-0.24899697,2.2697031
1570715231,6.71813,9.069236,-1.7669208,-0.63811284,-0.92680836,-0.4548818,0.49320555,-0.30645782,4.8985367
1570715231,4.687847,16.998833,-4.7548847,-1.8642696,-0.91615534,-0.26952013,2.9400797,11.286267,-2.5330653
1570715231,12.100295,16.07467,-9.169792,-0.99711794,-0.067113705,-1.022685,6.4978633,10.352529,-4.237737
1570715231,4.6591167,10.28549,-7.881712,-2.2019687,-1.0429257,-1.7598705,1.7764976,1.8243817,-3.2800562
1570715231,4.9559975,12.5743475,-8.101978,-2.4480524,-1.0375992,-1.5936842,0.7326257,4.486734,-5.209783
1570715231,6.5505357,8.255207,-6.2871737,-2.8006656,-0.624264,-0.7339896,4.0462008,0.62728083,-2.8299465
1570715231,4.644751,1.4556746,-6.703765,-2.1700099,-0.039415985,-0.6615494,1.8818425,-7.2592196,-4.3526587
1570715231,5.0661306,0.545878,-5.81791,-1.3262947,-0.23543063,-0.95876724,1.8722657,-8.599973,-4.0892963
1570715231,5.683835,-3.9743748,-5.2528787,-0.49003658,0.11079088,-0.86289054,3.3518825,-13.096283,-4.5681367
1570715231,3.5865142,-6.253655,-2.9017725,0.760622,0.6668759,-0.72014076,1.9919758,-15.840038,-1.757344
1570715231,-0.6368576,-4.6782703,-2.504335,1.9143386,1.374233,-0.035154797,-2.3989902,-14.652514,-0.47405192
1570715231,0.48841715,1.685518,-5.2002063,2.9423501,1.6544062,1.2218956,-2.0590134,-9.193734,-2.753332
1570715231,0.7422025,20.33156,-15.184027,3.996994,1.7193892,1.5255052,-2.585738,5.3678,-9.423578
1570715231,7.2783732,36.40623,-3.8402996,2.124202,1.4136491,4.064108,2.006341,32.905907,-3.0597897
1570715232,8.66701,15.485697,-0.41180268,2.83369,2.7612495,1.2133732,4.6495395,10.295067,3.3806129
1570715232,10.419566,-2.1691468,-7.489063,2.5620391,-1.9739952,1.8930327,4.3478703,-12.382812,1.0773908
1570715232,10.43872,14.001291,-11.247959,1.1537166,0.9960526,1.4871545,5.9184666,6.823475,-7.73806
1570715232,6.8761473,17.84159,0.91458505,1.2101773,1.3497312,1.180349,1.8531121,11.808203,3.8163576
1570715232,4.0940847,5.4300494,1.7046716,1.3678412,0.6072193,0.36965802,-1.934515,-0.4165911,6.7564373
1570715232,1.7812861,1.5179238,-2.480393,-0.50068957,0.42505348,-0.5976316,-4.295198,-4.3478703,2.4995465
1570715232,-1.9440918,1.1492168,-1.9776106,-1.5979455,-0.089484945,-1.4488038,-7.824251,-5.094861,2.7724855
1570715232,-4.4819455,-1.3215994,-1.292869,-1.4722403,-0.009587673,-1.6746467,-10.0269165,-8.058883,3.169923
1570715232,-2.9017725,-0.79008657,-1.6232687,-1.1739572,-0.29508725,-1.4754362,-8.101978,-7.953538,2.5905263
1570715232,1.1348516,1.4652514,5.281609,-1.2240262,-1.0397298,-0.35687447,-3.7828386,-5.9759274,9.3421755
1570715232,15.433024,19.124884,-16.76899,-0.03835069,-3.8702238,1.2890093,10.721235,11.60709,-12.579136
1570715232,-2.0733786,8.465898,-1.4987702,0.487906,-0.089484945,0.28549957,-7.029376,1.3694834,3.107674
1570715232,3.169923,5.717354,-2.4420857,-0.53690964,-1.2623769,-0.2823037,-1.5897499,-1.4413095,2.2649148
1570715232,7.493851,18.071434,-3.098097,-1.9931706,-1.180349,0.351548,2.96881,10.6877165,1.5035586
1570715232,13.311762,19.962854,-10.371682,-1.2868787,-0.9033718,-0.56780326,8.892065,12.421119,-5.923255
1570715232,5.93762,8.844181,-7.2687964,-2.5013173,-0.9768773,-1.316707,3.2465374,1.7860745,-2.767697
1570715232,2.1547816,11.980585,-8.250419,-3.0797734,-1.162239,-0.91295946,-1.4891934,3.5482068,-4.8123455
1570715232,6.612785,9.548077,-6.9479733,-3.0797734,-1.054644,-0.61361104,2.657564,1.7764976,-4.2281604
1570715232,5.33907,1.9153614,-7.9343843,-2.4991865,-0.5923051,-0.31958908,2.1499932,-6.3781533,-5.8322754
1570715232,6.727707,0.17717093,-6.50744,-1.392343,-0.30147904,-0.5347791,3.3135753,-8.485051,-4.8698063
1570715232,5.899313,-6.4978633,-3.9600096,-0.05646074,0.4538165,-0.49216717,2.384625,-15.734694,-2.4756045
1570715232,3.4284968,-6.5218053,-3.2369606,1.3262947,0.8852618,-0.61361104,1.283292,-16.079458,-1.757344
1570715232,0.44532153,-3.964798,-1.661576,1.959081,1.8280495,-0.35474387,-1.9393034,-13.699622,0.19632454
1570715232,-1.3790601,1.0295067,-4.0174704,2.4650972,1.7577399,0.7084225,-4.0701427,-9.32781,-1.4413095
1570715232,-1.0247183,11.022904,-7.5800424,3.0882957,1.4956769,1.639492,-5.195418,-0.63206923,-1.13964
1570715232,9.753978,39.710228,-12.914324,3.2353067,2.087982,3.3887095,4.1276035,33.159695,-13.64695
1570715232,8.930372,15.289372,-1.6136919,2.2264707,1.0333381,0.7265325,4.7022123,10.16578,3.8786068
1570715232,14.882358,-0.4165911,-5.291186,2.8177104,0.5262567,1.0642316,7.872135,-6.081272,1.13964
1570715232,14.54717,14.4130945,-12.5025215,1.5436152,0.83732337,1.2442669,10.697293,7.824251,-10.376471
1570715232,1.733402,6.3302693,1.7860745,1.0812764,1.2133732,0.029828314,-3.1316159,2.1787236,7.0724716
1570715232,1.733402,6.3302693,1.7860745,1.0812764,1.2133732,0.029828314,-3.1316159,2.1787236,7.0724716
1570715232,-1.0199299,1.8052281,-2.5761611,-0.21732058,0.5177343,-1.0035098,-6.4308257,-3.193865,1.685518
1570715232,-3.3901896,1.8100165,-2.2936451,-1.0333381,-0.41866168,-1.8706614,-9.251195,-4.644751,2.1021092
1570715232,-3.6631286,-2.078167,0.062249243,-1.7641318,0.15553336,-1.6437532,-9.495404,-8.202535,4.5058875
1570715233,-0.61291564,-1.8195933,-1.7812861,-1.485024,-0.46020827,-0.56993383,-6.5840545,-9.562442,2.2697031
1570715233,1.5849615,-0.15801731,3.6870706,-0.7222713,-1.1792837,0.019175345,-4.0174704,-8.231265,5.3821654
1570715233,18.420988,22.017078,-14.216769,0.64450467,-2.5705614,1.015228,7.714118,7.005434,-5.9041014
1570715233,2.1068976,5.770026,-4.630386,0.5891092,-0.9768773,-0.7222713,-2.5187001,2.6144683,0.60812724
1570715233,8.848969,12.109872,-2.5234885,-0.9736814,-0.6274599,-0.6956389,4.654328,2.384625,3.4284968
1570715233,2.4133554,20.527885,-5.4444146,-2.0229988,-1.0386645,-0.60828453,-2.0015526,12.876017,-1.1875241
1570715233,9.825804,14.54717,-8.8777,-1.3476006,-0.40055165,-1.3944737,5.6551046,8.7053175,-4.9799395
1570715233,4.189853,9.14585,-9.045294,-2.4842725,-1.707671,-1.5350928,1.1779473,0.30645782,-5.315128
1570715233,4.477157,10.036493,-7.1251445,-2.533276,-1.2794216,-0.9907262,1.3024458,1.2976574,-3.98874
1570715233,5.45878,6.2345014,-6.7708025,-2.8070574,-0.68179005,-0.38883337,2.5187001,-2.7820623,-4.271256
1570715233,5.329493,0.9624691,-6.919243,-1.7758499,-0.1384886,-0.68072474,2.552219,-8.250419,-5.0278234
1570715233,6.315904,-2.3080103,-5.9567738,-0.60402334,-0.16405573,-0.8735435,3.7780502,-11.640609,-4.3526587
1570715233,5.1666875,-6.8905125,-3.7493198,0.5944357,0.26632422,-0.8522375,2.873042,-16.280571,-2.111686
1570715233,0.61291564,-6.3685765,-2.8443117,1.4690444,1.104713,-0.6647453,-1.4891934,-15.753847,-0.94810385
1570715233,-0.9576807,-2.8060043,-3.193865,2.2808008,1.298597,0.2428877,-2.944868,-13.460202,-0.7757214
1570715233,0.2873042,10.357317,-2.8395233,2.7452703,1.3049887,1.6160555,-2.3223755,1.3934253,0.16280572
1570715233,5.1379566,45.173798,-15.088259,3.3311834,2.630218,2.945546,1.8243817,36.74142,-11.324574
1570715233,9.68694,23.1232,-0.6943185,1.6245779,1.2687687,3.1735196,5.6646814,19.847933,1.8962077
