time,ax,ay,az,gx,gy,gz,la_x,la_y,la_z,fox,foy,foz
1570715191,-2.4031067,3.233673,-0.210495,0.8645477,-11.354721,-2.1171112,-10.015966,-4.105741,2.078443
1570715191,-0.09867859,4.338608,-8.095795,0.883728,-8.558395,-2.0872803,-6.917564,-2.4897237,-2.7417698
1570715191,4.6250763,3.7017365,-12.496338,0.38198853,-0.2440033,-2.0563812,-0.26244736,-3.3837514,-7.5206532
1570715191,1.8178711,4.102768,-10.979614,-0.8324127,2.771759,-2.0404053,-2.018094,-3.223093,-6.755618
1570715191,-0.17050171,7.296631,-5.4095,-4.1251526,-3.6965332,-0.80895996,-3.8744242,-0.052672386,-1.1865625
1570715191,2.0501099,6.162979,-2.5532227,-4.595993,-4.457123,0.38093567,-1.2760055,-2.2840967,1.725786
1570715191,3.3717194,8.955826,-2.253952,-3.827942,-4.5434113,0.7260895,-0.12952662,-0.57337475,0.7009196
1570715191,5.0332947,8.614639,-2.1102905,-1.1019287,-3.7359467,0.526886,2.0364745,-0.44874096,0.27861714
1570715191,2.7516174,7.799423,-4.875595,1.6922607,-3.951126,1.0520477,0.09046459,-1.4626427,-1.381578
1570715192,4.2982635,10.665283,-7.791733,2.8661804,-2.8368683,2.1652527,0.83558345,1.9979095,-3.4752767
1570715192,15.428909,7.7838593,-11.239395,2.574295,-2.7803955,1.5676422,10.427519,0.18981361,-5.958665
1570715192,4.722046,10.395935,-15.431641,0.9092865,-1.1121979,-1.972229,1.9147635,1.5467725,-10.069185
1570715192,5.7994385,13.620926,-9.590988,0.20088196,1.4827881,-1.7389374,3.6457784,5.353117,-4.3803124
1570715192,4.5700073,15.527908,-4.218399,-0.32002258,1.5626831,-1.0688934,2.5907001,7.1264515,0.18619633
1570715192,3.682953,15.445297,-2.4347076,0.57266235,-1.0259094,0.4065094,1.8896662,7.261343,3.5204582
1570715192,-0.14178467,20.4001,-7.598999,-0.7908783,-3.70932,0.77934265,0.16575086,9.167892,-1.3990974
1570715192,4.5149384,14.108139,-16.585648,-3.34964,1.9238129,1.342865,2.897181,8.889291,-12.255209
1570715192,4.0732117,8.06398,-4.6122437,-4.4884033,3.5504608,-0.13464355,1.5559824,-1.1507816,-1.065445
1570715192,-0.15374756,8.882797,-1.7224426,-3.5477753,1.2004852,-1.3895264,-1.1096299,-1.6316433,2.050529
1570715192,-2.3408508,10.583878,-3.9705963,-3.2154083,1.9344635,-0.07499695,-4.774336,0.8575449,-2.5666971
1570715192,-1.9625702,8.526062,-1.759552,-3.1546936,2.7174225,0.21688843,-4.6134977,-1.1759357,-1.3145642
1570715192,-3.0938263,9.991318,4.3576355,-2.0106049,1.6809235,0.7314148,-5.8129606,-0.31319618,4.493567
1570715192,1.4599457,6.60112,0.3425598,-1.1807556,0.558136,1.6773682,-1.4139187,-2.9835901,-0.3918596
1570715192,0.71414185,1.9695435,-2.5711823,-1.3203125,0.5219116,1.5644531,-2.750966,-7.45418,-3.1499867
1570715192,4.5676117,2.8865204,-1.5117493,-2.3184662,2.4884033,0.70158386,0.32107663,-6.0299683,-4.045709
1570715192,5.4163666,8.393188,6.881134,-1.8305664,1.196228,0.81663513,1.0223563,-0.29219532,4.454872
1570715192,-1.361618,4.6498413,5.316513,0.22113037,1.7736053,0.5886688,-4.552584,-3.7225761,3.551528
1570715192,10.731491,9.422684,2.5200958,0.43951416,2.0281982,-0.9911194,7.115535,1.1473417,-1.3723478
1570715192,-1.8057556,8.998917,1.1110992,0.66534424,1.38797,-0.44250488,-4.3490186,0.81869984,-2.5053298
1570715192,0.77879333,8.33931,1.5157166,1.0104828,0.84043884,-1.2755432,-2.3928325,-0.7109966,-1.4071038
1570715192,0.46395874,10.404312,1.1529999,1.2618866,1.4412384,-2.7477417,-1.9057615,-1.0164537,-1.794204
1570715192,1.9220276,21.743256,5.00766,1.1361847,0.8670654,-1.6121674,0.611321,9.999419,2.416988
1570715192,0.43762207,14.170395,4.540802,-0.48406982,-0.588089,0.45231628,-1.3371673,5.0959816,2.3986945
1570715192,0.4807129,9.827301,4.4115143,-1.4960785,0.3046112,0.12313843,-1.0595872,-0.4324112,1.5141842
1570715192,3.8314056,8.327347,5.356018,-0.45957947,0.3312378,-0.37113953,2.7253213,-2.2507477,3.3526905
1570715192,0.84942627,16.869858,0.24919128,0.710083,-0.52949524,-0.4350586,-0.07780111,6.178198,-0.96911097
1570715192,0.7476654,13.812454,1.3720703,0.7058258,-0.94389343,0.55137634,-0.7333592,4.4329367,-0.77788115
1570715192,-1.3484497,6.762726,-1.5356903,-0.080337524,-0.46025085,0.06668091,-2.1560664,-2.0626612,-3.0607195
1570715192,0.62435913,5.8996277,-0.66300964,-0.11869812,0.4878235,-0.490448,-0.51140356,-3.9014816,-2.727267
1570715192,-0.063964844,9.997299,0.30784607,-1.2606506,-1.960144,0.0017089844,-1.1157205,-0.88504696,-4.3802958
1570715192,-2.1145935,12.42981,1.3565063,0.9582977,-2.2051544,1.1777496,-3.6833568,2.6491365,-1.3768315
1570715192,3.1167297,8.959412,2.2339783,2.0182343,-0.7425537,1.7189026,0.28515375,-0.016202927,-0.28543878
1570715193,1.4276276,-0.46417236,-1.680542,2.0214233,-2.3841248,-0.21134949,-0.6025126,-10.814699,-2.8958056
1570715193,2.6247253,8.550003,-5.2682495,1.9564514,-2.3010406,0.5737457,0.08310151,-2.3902416,-5.872983
1570715193,9.272217,12.255035,-4.681671,1.6922607,-1.1984863,-1.1317444,6.708946,2.9175882,-4.203307
1570715193,-2.8184967,1.9228516,-2.7184296,1.5921173,-0.117248535,-0.72055054,-10.49673,-4.7672577,-0.97777426
1570715193,-0.84806824,1.5337982,-6.783783,0.8411102,-1.6064758,-2.48143,-1.82019,-8.580022,-4.7054586
1570715193,-0.3536682,6.52092,-0.3361969,1.4014435,3.2926636,-1.9935303,-1.8834429,-3.8070784,0.16128922
1570715193,6.797821,18.649948,-6.2007904,2.7032013,4.157669,-2.4398804,1.0161592,0.0791378,-4.744629
1570715193,-17.388412,21.256027,-3.720398,0.35961914,1.5051575,-3.9685364,-14.782034,14.000136,-1.712924
1570715193,-2.8280792,5.797867,5.2901764,-0.17727661,-2.0325928,1.0094452,-1.2953339,-4.2989035,7.380468
1570715193,-1.372406,11.639725,-2.0827637,1.3460541,-0.6860962,-0.24543762,0.58299744,1.94596,0.59126115
1570715193,-1.7806091,12.277771,2.4865723,0.68878174,0.5038147,-0.4361267,0.07974076,2.6013975,5.112388
1570715193,-0.625412,14.15004,0.43354797,0.3713379,-0.972641,-0.026000977,1.3308871,4.4965324,3.441208
1570715193,-0.13101196,13.932175,-0.02973938,-0.06222534,-1.415802,0.34684753,1.8760264,4.4186773,2.9429827
1570715193,1.8214722,17.01709,-0.102752686,-1.0539856,-0.6935425,0.3085022,3.8899572,6.898427,2.353824
1570715193,0.34544373,11.530777,1.714447,-2.4313812,0.20979309,-0.12826538,2.416434,1.6984863,3.6735244
1570715193,-4.843994,10.445007,0.9854126,-3.6074371,0.042541504,-0.39031982,-2.518327,0.4946947,2.0250258
1570715193,-4.729065,14.0147705,-0.8712921,-2.7189941,-0.4357605,0.04005432,-2.707267,3.7091446,-0.6584157
1570715193,-3.9329987,16.83873,-1.8457336,-2.001007,-0.80433655,0.20730591,-1.8785284,6.7943707,-2.6256347
1570715193,2.0321503,13.239044,-2.7375793,-1.6388245,-0.8725128,0.5087738,4.055605,3.1304474,-3.9241033
1570715193,0.007858276,11.712738,-4.044815,-1.7432251,-0.15985107,0.93273926,1.7760892,1.6073275,-5.583419
1570715193,-0.83969116,10.577896,-0.7300415,-2.8319244,2.8772125,0.76123047,0.5973923,0.6604948,-3.409723
1570715193,-1.2730408,8.462616,0.31263733,-2.4494934,1.89505,0.58013916,0.048736453,-1.3955088,-2.8182516
1570715193,-5.143265,9.252701,-1.4770355,-2.3376312,2.246582,0.5077057,-3.5235736,-0.40042686,-5.107692
1570715193,-3.429016,8.018494,-1.328598,-2.2438965,2.245514,0.48320007,-1.8669951,-1.2954407,-5.346269
1570715193,-2.6197815,7.2355804,0.8561249,-1.7197876,2.295578,0.20516968,-0.7510251,-1.8397675,-3.7103128
1570715193,-3.0662994,6.094742,2.53685,-0.675827,1.3368378,0.33087158,-0.96154094,-2.8547306,-2.1238675
1570715193,-2.3468323,4.4164124,3.9254913,0.2509613,0.7626648,0.47894287,-0.18183589,-4.481262,-1.0049086
1570715193,-1.7530823,4.481064,5.814514,1.221405,-0.06930542,0.62701416,0.20915341,-4.753497,1.7303042
1570715193,-1.3831787,7.6461945,6.4262238,1.5420532,0.40367126,0.34152222,0.5161928,-1.7120762,2.3187213
1570715193,-2.6544952,8.711609,7.8088837,0.7622833,-0.6456146,0.13485718,-0.8193197,-0.571311,4.217201
1570715193,-3.2195282,6.08757,6.700363,0.015533447,-1.4999542,0.06455994,-1.50611,-3.1996937,3.0335312
1570715193,-3.6864014,9.524445,-3.7706757,1.2949219,-1.6512146,0.38946533,-2.302965,-0.36397266,-7.688245
1570715193,-3.1153717,16.879425,-0.53611755,1.1074219,-2.9551086,-0.10908508,-1.6548691,7.860051,-3.114554
1570715194,-0.24353027,8.405151,-1.115509,1.6816101,-2.4320679,-0.220932,0.55179745,-1.0112276,-3.9460166
1570715194,-2.9980621,11.518814,-1.5081635,2.0693665,-3.3694916,-1.1221466,-1.9685328,1.2777443,-3.7898543
1570715194,0.46035767,21.04654,-5.0779114,3.0483398,-1.0738525,-1.559967,0.8633864,10.098574,-7.6674137
1570715194,3.5572662,22.861343,-3.6150513,3.4829712,0.44947815,-1.0529022,5.0541706,12.692083,-4.311546
1570715194,1.7197113,22.129913,3.996109,2.8416748,1.7672119,-0.26887512,4.271946,12.28575,3.7115824
1570715194,-5.353958,15.005966,7.486862,2.1236877,0.89582825,0.05709839,-3.430087,5.111705,8.959959
1570715194,-4.073059,9.94104,9.664383,1.3332672,0.27371216,-0.05795288,-2.6757674,-0.07504368,11.366923
1570715194,1.8777313,6.329376,6.032379,0.8123474,-0.44641113,-0.9602356,3.537692,-3.633976,9.193263
1570715194,5.774292,3.7628021,1.2942505,-0.13040161,-0.8618622,-0.281662,7.6425743,-6.2299967,4.0684752
1570715194,5.7683105,3.9507446,0.3282013,-1.2361603,0.30566406,-0.0717926,8.026096,-6.1111364,1.9775169
1570715194,-1.416687,3.3067017,5.442215,-2.0883636,-0.09274292,0.52900696,1.2708311,-6.242481,6.689026
1570715194,-3.1884003,1.0238342,2.7355652,-2.5655975,-0.016036987,0.44059753,-1.4010805,-8.965422,3.5532835
1570715194,-4.0479126,12.427414,-4.549988,-3.79599,1.5978394,0.1359253,-2.269858,1.8335829,-4.883965
1570715194,-7.9720154,34.914948,2.7690887,-4.0473785,0.32803345,0.31596375,-5.2896914,25.477348,-0.9241502
1570715194,-7.830765,20.141525,1.3146057,-1.9999542,-2.9050446,0.3915863,-6.3343596,10.741803,-0.46879768
1570715194,-0.056777954,21.34462,2.6098633,-2.4409637,-0.4080658,0.6941223,0.629321,11.471622,-1.6139045
1570715194,3.9965973,18.986328,-0.26556396,-2.190628,1.48172,0.49812317,5.7625804,9.620788,-4.3358746
1570715194,-1.5423889,12.549515,-3.3349304,-1.789032,3.485489,0.7409973,0.81286514,3.8129683,-7.637432
1570715194,-5.9357452,5.9977875,-1.151413,-1.1892853,3.9286346,0.9061127,-4.385806,-3.0252743,-6.044725
1570715194,-4.1748047,-2.0539246,1.9502716,0.44802856,2.196518,0.37135315,-2.5964813,-10.611515,-2.9405684
1570715194,-1.4909058,-5.6799316,0.9111786,2.1577759,-0.11618042,0.06881714,-0.009895802,-14.8934,-2.5090957
1570715194,-0.6110382,-3.8735046,-2.190506,3.1964111,-1.4371033,-0.38285828,1.290842,-14.147047,-5.6103487
1570715194,-0.93426514,3.3785248,3.8955536,3.2816315,-3.6038513,0.20516968,1.0450156,-7.5478983,0.6730354
1570715194,3.3621368,11.921036,5.9318237,0.40968323,-2.0325928,0.6717529,3.6710372,1.2943077,2.6618733
1570715194,3.4327698,11.079483,9.98761,-0.18687439,-1.6597443,0.91996765,6.26007,0.6370115,9.830528
1570715194,-8.16954,27.309769,-12.848297,-2.525116,-1.8983612,0.47361755,-5.9811654,17.852146,-15.192543
1570715194,-2.1959991,4.856949,-1.7068787,-0.16769409,0.053207397,-0.04623413,-4.226921,-1.9061689,-3.4889421
1570715194,0.80513,5.703293,-8.769775,3.2166595,-1.2315063,-1.1168213,2.0064044,-6.953821,-10.924157
1570715194,-6.837158,30.421036,-14.766052,1.5761414,-2.9721527,-2.590088,-3.3880684,14.188938,-19.02843
1570715194,0.12876892,21.306305,4.3349,3.2028046,4.589096,0.02407837,0.08145499,13.966164,2.46174
1570715194,0.83865356,19.086884,5.5822754,2.8917542,2.0686798,0.19558716,4.313483,7.901149,4.5246177
1570715194,-7.9097595,12.560287,10.831558,2.8214417,-0.35586548,0.2808075,-5.8007746,2.9024105,11.823875
1570715194,-2.6090088,7.8125916,6.7841644,1.1830597,-1.3092651,-0.9442444,-2.3743067,-2.158412,9.080998
1570715194,5.4031982,5.521332,5.5403748,0.7558899,0.13842773,-1.5003204,6.1090407,-4.29169,7.236491
1570715195,9.162094,4.1710052,2.1334229,-0.25823975,-0.7436218,-0.5873871,11.98671,-5.31859,3.9930801
1570715195,1.7616119,2.6171722,4.0368195,-1.0667725,-0.15452576,0.0070343018,4.3607697,-7.303602,5.5476904
1570715195,-0.9522095,1.2464905,-0.463089,-2.1203156,0.92459106,-0.20709229,1.05756,-8.852027,1.513391
1570715195,-2.258255,3.1917725,-0.119522095,-2.9256592,1.9184723,-0.46594238,0.3995993,-7.78302,-0.29060596
1570715195,-5.0953827,16.240173,-0.20570374,-3.2963715,1.60849,0.40544128,-2.4835231,3.9436827,-0.809286
1570715195,-6.3990173,34.176346,-0.80545044,-3.333664,-0.48049927,1.0499268,-3.505741,25.178158,-2.5637376
1570715195,-7.7242126,21.610367,5.809723,-1.917923,-3.9564514,0.8571167,-5.399101,10.74457,3.5395706
1570715195,-1.6800537,23.914795,-2.6896973,-2.0659943,0.24281311,0.9721527,-1.1504885,14.077115,-7.1666565
1570715195,3.686554,17.624023,1.422348,-2.1948853,1.147232,0.6046448,4.7191358,8.485855,0.17625904
1570715195,-1.3364868,13.377914,-2.159378,-1.726181,3.362976,0.49917603,0.66662943,4.0968027,-6.253754
1570715195,-6.56662,6.8118134,-3.320572,-1.392746,3.8263702,0.6195526,-4.502856,-1.9187536,-8.215887
1570715195,-6.0315094,-0.7227478,0.635849,-0.040924072,2.0132904,0.26802063,-4.391714,-9.443319,-3.7568035
1570715195,-3.4230347,-4.3260193,1.1733551,1.8925323,0.12989807,-0.033447266,-2.2830215,-13.640905,-2.5079913
1570715195,-1.9182739,-4.190735,-1.9450989,3.305069,-1.2251129,-0.49363708,0.06823599,-14.299323,-4.840602
1570715195,0.041381836,2.660263,-0.36013794,3.7823029,-1.5201874,0.18919373,1.270329,-7.8709726,-3.654347
1570715195,5.810211,10.587463,6.7458496,2.0608368,-5.545822,1.104248,7.4259343,-0.9936981,6.334495
1570715195,3.4962158,16.271301,22.274643,-1.1626434,0.21937561,1.0307465,4.3669586,4.4589157,17.553234
1570715195,-3.7917328,13.059479,-34.448776,-2.0691833,-5.22731,1.7359467,-2.412872,6.4419947,-32.168167
1570715195,-8.10849,7.3457184,-2.6789246,-0.0015106201,1.8247375,-0.21881104,-11.470671,3.3283138,-4.1512613
1570715195,-3.77977,6.657379,-3.360077,2.9024048,0.7626648,-1.1668854,-3.0317125,-4.433564,-5.4063606
1570715195,-8.185104,25.016129,-5.7458954,2.717041,-3.2075806,-2.0425415,-5.9748454,9.375152,-7.8124676
1570715195,1.4204407,21.24646,-3.981369,2.2408752,2.9283447,-0.59484863,-0.28314865,14.367902,-6.3451614
1570715195,2.5672607,22.358566,9.049072,3.4701843,4.0053253,0.07627869,4.273467,11.837868,9.294635
1570715195,-7.337555,14.422974,11.205048,2.9737701,-2.9732208,0.32447815,-5.75072,4.148226,13.484745
1570715195,-1.2060089,7.880829,2.6828918,0.79530334,-1.2016754,-0.98579407,-0.043428063,-2.258976,5.147362
1570715195,3.868515,5.69133,5.4326324,0.5609436,0.5805054,-1.5674286,5.441517,-4.2880154,7.302779
1570715195,8.765854,5.2867126,4.054779,-0.469162,-0.80007935,-0.7695465,10.861704,-4.6778717,6.285515
1570715195,3.323822,2.7344818,3.6609192,-1.5397491,-0.71698,0.04324341,5.8256655,-7.1634216,5.5697336
1570715195,-0.21240234,1.5673065,0.04447937,-2.363205,0.6795807,0.12208557,2.0061483,-8.490835,1.293865
1570715195,-0.8564453,5.0377045,-1.5368805,-3.271881,1.7288666,-0.06008911,1.4420075,-5.4172907,-1.1393754
1570715195,-5.029541,20.445587,-2.8860168,-4.066559,2.4511108,0.75590515,-2.7905424,9.52651,-3.2944932
1570715195,-9.734146,23.08281,2.5931091,-3.1046295,0.22151184,0.35749817,-7.614923,13.920033,0.65255857
1570715195,-6.290085,20.324692,1.9766083,-2.0926208,-3.372696,0.61743164,-5.293453,10.164309,1.9077387
1570715196,3.0413055,22.508194,5.648117,-2.3184662,0.079833984,0.6046448,4.0194387,12.664966,2.2132583
1570715196,0.2053833,18.212997,-1.6901093,-2.3344421,1.2111511,0.5673523,1.6878136,8.426204,-5.3551626
1570715196,-3.7282867,12.000046,-4.5835114,-2.0414886,3.9414215,0.8880005,-1.33572,4.1373625,-8.543272
1570715196,-6.009964,3.1822052,-0.1590271,-1.4992676,3.9105225,0.69944763,-4.2286263,-5.911356,-5.163785
1570715196,-5.9884186,-3.957306,3.493332,0.8325958,1.610611,0.12846375,-4.000639,-13.152289,-1.0092759
1570715196,-1.9745331,-6.2557373,-1.3992157,2.6552582,-0.52949524,-0.45210266,0.09297013,-15.787342,-5.1489105
1570715196,-3.0040436,-1.3392487,-1.5081635,3.6352997,-1.6480255,-0.6619568,-0.78103733,-11.37862,-4.597988
1570715196,-0.018478394,5.8289948,5.0016785,3.2635193,-3.8030548,0.32554626,1.3903189,-4.986741,2.1067872
1570715196,3.897232,11.883926,7.683182,0.18278503,-2.6195526,0.5226135,5.38554,1.8192444,5.511896
1570715196,4.750778,5.936737,2.8852081,0.56414795,-1.0429535,0.73246765,6.8564587,-3.1690044,4.0233192
1570715196,-5.771744,36.213806,9.700302,-1.6537323,-2.1380463,0.75164795,-5.1910896,19.766186,8.729352
1570715196,-2.503662,8.099899,-7.087845,-0.29019165,-0.4954071,0.32022095,-4.4446297,1.8708858,-8.892913
1570715196,2.4966278,2.5154114,-7.2805786,1.9479218,-0.34733582,-0.72161865,3.7457507,-8.410657,-9.712308
1570715196,-8.4592285,27.340897,-15.80513,1.2075653,-1.751358,-1.526947,-5.9709086,14.614695,-19.509745
1570715196,0.18502808,18.39975,1.7707062,4.0507507,5.6746063,-0.38711548,1.4616274,8.43323,0.80291855
1570715196,1.5269775,19.678253,14.334274,3.0174408,0.8670654,0.4373932,3.424799,9.208328,15.106047
1570715196,-7.8618774,14.539093,6.6417084,3.0174408,-1.9292603,0.43206787,-5.471895,5.2678185,9.022177
1570715196,-3.961731,9.185669,7.0690765,0.81980896,0.6135254,-0.96235657,-2.5558434,-1.0624399,8.941663
1570715196,4.6023254,6.592743,6.952957,0.84643555,-0.7159271,-1.4427948,6.3750887,-3.449932,9.687566
1570715196,9.117798,2.7356873,1.5037537,-0.78448486,0.093673706,-0.48298645,11.886596,-6.501687,2.739919
1570715196,1.2456665,2.5190125,4.368408,-1.8795776,0.039352417,0.16682434,4.486183,-7.226762,6.274234
1570715196,-3.072281,1.1267853,1.4702301,-2.444168,0.22471619,0.1327362,-0.73449445,-8.890085,2.7302365
1570715196,-2.3647919,4.2117157,-1.2998657,-2.891571,1.1280518,-0.21881104,-0.016014576,-6.2453737,-0.8870142
1570715196,-3.9653168,21.974289,-1.6769409,-3.7555084,1.0918274,0.53326416,-1.6351025,9.290206,-1.5112405
1570715196,-5.728653,22.29152,1.9538574,-3.093979,-0.3228302,0.27334595,-4.1406174,14.535351,-0.16814327
1570715196,-6.7150574,21.7229,7.7406464,-2.3067474,-2.421402,0.35324097,-4.791856,11.616344,5.606004
1570715196,2.7288666,23.848953,2.8983765,-2.2417603,0.50061035,0.9156952,3.8660593,14.237781,-1.0466218
1570715196,3.0054016,17.964005,-3.8987732,-2.0585327,2.343521,0.6206207,4.9779415,8.289918,-6.5833
1570715196,-3.2015686,10.570709,-4.237549,-2.093689,4.2088013,0.85816956,-0.8619927,2.058137,-8.182314
1570715196,-6.140457,3.4850616,-1.0939636,-1.5227051,4.3281097,0.5077057,-3.957149,-5.710581,-6.0947313
1570715196,-6.206299,-3.258194,2.2196198,0.74417114,1.9248657,0.21688843,-3.7518702,-11.916385,-2.606289
1570715196,-3.144104,-7.755707,-0.054870605,2.638214,-0.58488464,-0.013214111,-0.6875465,-17.190111,-3.6371155
1570715196,-2.8041382,-0.5539551,-2.0600128,3.688568,-1.3891602,-0.20283508,-0.6091914,-11.439005,-5.291892
1570715197,0.47592163,6.051651,7.9070435,3.0089264,-5.164459,0.69944763,2.6120212,-4.8582706,5.4423323
1570715197,1.2983398,12.745834,6.245468,-0.4233551,-1.5361786,0.37986755,2.3092124,2.238307,2.3019214
1570715197,7.9194946,8.128616,1.0009613,0.885849,-0.67544556,1.1703033,9.881327,-0.95172596,7.211813
1570715197,-4.918213,28.584686,-1.1274719,-1.8156586,-3.7828217,0.07627869,-2.2683406,17.610022,-1.2064111
1570715197,-6.4265594,10.634155,-6.479721,0.41714478,0.81700134,0.33087158,-6.6719136,2.0606003,-8.785123
1570715197,0.23171997,1.9360199,-5.7937775,2.3410034,-1.355072,-1.0422516,2.2874832,-10.333808,-7.485112
1570715197,-11.638733,31.7594,-15.519028,1.8456573,-2.4874573,-1.3320007,-10.327928,20.500872,-17.383013
1570715197,1.8466034,21.139908,1.4726257,4.1732635,5.969681,-0.2166748,2.972938,11.225471,0.9230236
1570715197,-1.8859558,22.471085,13.247314,2.2920074,0.45587158,0.5300751,1.7809219,12.526678,14.00708
1570715197,-7.6128845,13.2127075,8.225464,2.7575226,-2.342575,0.5034485,-5.7436914,3.8442268,11.069641
1570715197,-2.649704,7.920334,7.313278,0.7580261,0.06492615,-1.2606354,-2.036859,-2.180583,8.990208
1570715197,6.2196198,3.2779694,2.5428314,1.0275269,-0.75852966,-1.5035095,7.6721787,-6.7481556,5.6649823
1570715197,8.558746,4.648651,1.8521118,-0.375412,0.6795807,-0.45529175,11.2101755,-5.5405636,3.0781806
1570715197,1.2324982,2.7009735,3.750702,-1.4694519,0.3834381,0.05496216,4.403596,-6.6858473,6.5520587
1570715197,-2.321701,1.1962128,0.94351196,-2.3898315,0.91819763,-0.089904785,0.22273183,-8.864127,3.0405028
1570715197,-2.4533844,3.8406067,-0.25837708,-3.0375214,1.5009003,-0.46914673,-0.011522055,-6.8694696,0.5904649
1570715197,-3.8228607,17.346298,0.32699585,-3.685196,1.1717224,0.23500061,-1.4699588,6.517004,0.11987019
1570715197,-5.373108,28.632568,-0.96347046,-3.5317993,-0.27915955,0.8198242,-2.0654452,21.96349,-2.6877217
1570715197,-8.510712,21.193787,7.12294,-1.9903564,-4.391083,0.8198242,-5.9716945,10.650993,4.6284165
1570715197,-3.5104218,20.86937,-3.4522552,-1.9807739,0.780777,1.1319427,-4.435273,10.555457,-14.395306
1570715197,9.121384,20.444397,2.370453,-2.0681305,1.5818481,1.2246246,9.559332,11.509625,0.4839728
1570715197,-1.361618,14.000397,-1.9606628,-2.0585327,4.2801666,0.5535126,1.4106517,4.6841526,-6.2542562
1570715197,-8.1623535,5.383667,-5.3700104,-1.7773132,4.7595367,0.6376648,-6.5010285,-3.1335669,-9.905195
1570715197,-7.1986847,-2.293335,1.5923309,-0.19432068,2.9688263,0.29678345,-5.8792334,-11.088925,-2.9666696
1570715197,-2.926239,-5.143631,2.1430054,2.0597687,0.6188507,-0.16661072,-1.3386056,-14.729109,-1.8241763
1570715197,-2.1517181,-2.499237,0.4694519,3.6150665,-1.0440216,-0.44784546,-0.25911283,-12.845971,-2.4787972
1570715197,1.5293732,1.9934845,3.8309174,3.7546082,-3.246994,0.20410156,3.0539753,-8.4077015,1.4932277
1570715197,2.3769226,11.254257,0.7914734,1.266159,-2.8954468,0.84007263,3.9252284,-0.09680176,-0.8175067
1570715197,2.3529816,13.289322,16.071274,-1.0156403,-1.1281738,1.0552521,3.4753697,2.0803757,12.798748
1570715197,-1.5304108,17.829926,-29.555038,-2.4239197,-3.219284,0.32022095,-1.9823226,7.4296513,-32.689278
1570715197,-9.736542,8.541626,5.4003143,0.37878418,4.631714,0.1401825,-12.681908,2.763301,1.5154214
1570715197,0.42085266,4.5744324,-6.744278,3.1346283,-2.7974396,-0.55648804,1.6717975,-6.0657454,-8.475029
1570715197,-3.5319672,12.282562,-5.5962524,3.3562012,-5.4265137,-1.6632996,-1.4653192,0.22366619,-6.893738
1570715198,-3.5319672,12.282562,-5.5962524,3.3562012,-5.4265137,-1.6632996,-1.4653192,0.22366619,-6.893738
1570715198,-3.5319672,12.282562,-5.5962524,3.3562012,-5.4265137,-1.6632996,-1.4653192,0.22366619,-6.893738
1570715198,-3.5319672,12.282562,-5.5962524,3.3562012,-5.4265137,-1.6632996,-1.4653192,0.22366619,-6.893738
1570715198,-3.5319672,12.282562,-5.5962524,3.3562012,-5.4265137,-1.6632996,-1.4653192,0.22366619,-6.893738
1570715198,-3.5319672,12.282562,-5.5962524,3.3562012,-5.4265137,-1.6632996,-1.4653192,0.22366619,-6.893738
1570715198,-3.5319672,12.282562,-5.5962524,3.3562012,-5.4265137,-1.6632996,-1.4653192,0.22366619,-6.893738
1570715198,-3.5319672,12.282562,-5.5962524,3.3562012,-5.4265137,-1.6632996,-1.4653192,0.22366619,-6.893738
1570715198,-3.5319672,12.282562,-5.5962524,3.3562012,-5.4265137,-1.6632996,-1.4653192,0.22366619,-6.893738
1570715198,-3.5319672,12.282562,-5.5962524,3.3562012,-5.4265137,-1.6632996,-1.4653192,0.22366619,-6.893738
1570715198,-3.5319672,12.282562,-5.5962524,3.3562012,-5.4265137,-1.6632996,-1.4653192,0.22366619,-6.893738
1570715198,-3.0770721,14.115326,0.17616272,-3.4146118,0.8340454,0.24884033,-0.93072057,3.1866121,0.21293616
1570715209,-3.0770721,14.115326,0.17616272,-3.4146118,0.8340454,0.24884033,-0.93072057,3.1866121,0.21293616
1570715209,-3.0770721,14.115326,0.17616272,-3.4146118,0.8340454,0.24884033,-0.93072057,3.1866121,0.21293616
1570715209,-3.0770721,14.115326,0.17616272,-3.4146118,0.8340454,0.24884033,-0.93072057,3.1866121,0.21293616
1570715209,-3.0770721,14.115326,0.17616272,-3.4146118,0.8340454,0.24884033,-0.93072057,3.1866121,0.21293616
1570715209,-3.0770721,14.115326,0.17616272,-3.4146118,0.8340454,0.24884033,-0.93072057,3.1866121,0.21293616
1570715209,-3.0770721,14.115326,0.17616272,-3.4146118,0.8340454,0.24884033,-0.93072057,3.1866121,0.21293616
1570715209,-3.0770721,14.115326,0.17616272,-3.4146118,0.8340454,0.24884033,-0.93072057,3.1866121,0.21293616
1570715209,-3.0770721,14.115326,0.17616272,-3.4146118,0.8340454,0.24884033,-0.93072057,3.1866121,0.21293616
1570715209,-3.0770721,14.115326,0.17616272,-3.4146118,0.8340454,0.24884033,-0.93072057,3.1866121,0.21293616
1570715209,-3.0770721,14.115326,0.17616272,-3.4146118,0.8340454,0.24884033,-0.93072057,3.1866121,0.21293616
1570715209,-3.0770721,14.115326,0.17616272,-3.4146118,0.8340454,0.24884033,-0.93072057,3.1866121,0.21293616
1570715209,-3.0770721,14.115326,0.17616272,-3.4146118,0.8340454,0.24884033,-0.93072057,3.1866121,0.21293616
1570715209,-3.0770721,14.115326,0.17616272,-3.4146118,0.8340454,0.24884033,-0.93072057,3.1866121,0.21293616
1570715209,-3.0770721,14.115326,0.17616272,-3.4146118,0.8340454,0.24884033,-0.93072057,3.1866121,0.21293616
1570715209,-3.0770721,14.115326,0.17616272,-3.4146118,0.8340454,0.24884033,-0.93072057,3.1866121,0.21293616
1570715209,-3.0770721,14.115326,0.17616272,-3.4146118,0.8340454,0.24884033,-0.93072057,3.1866121,0.21293616
1570715209,-3.0770721,14.115326,0.17616272,-3.4146118,0.8340454,0.24884033,-0.93072057,3.1866121,0.21293616
1570715209,-3.0770721,14.115326,0.17616272,-3.4146118,0.8340454,0.24884033,-0.93072057,3.1866121,0.21293616
1570715209,-3.0770721,14.115326,0.17616272,-3.4146118,0.8340454,0.24884033,-0.93072057,3.1866121,0.21293616
1570715209,-3.0770721,14.115326,0.17616272,-3.4146118,0.8340454,0.24884033,-0.93072057,3.1866121,0.21293616
1570715209,-3.0770721,14.115326,0.17616272,-3.4146118,0.8340454,0.24884033,-0.93072057,3.1866121,0.21293616
1570715209,-3.0770721,14.115326,0.17616272,-3.4146118,0.8340454,0.24884033,-0.93072057,3.1866121,0.21293616
1570715209,-3.0770721,14.115326,0.17616272,-3.4146118,0.8340454,0.24884033,-0.93072057,3.1866121,0.21293616
1570715209,-3.0770721,14.115326,0.17616272,-3.4146118,0.8340454,0.24884033,-0.93072057,3.1866121,0.21293616
1570715209,-3.0770721,14.115326,0.17616272,-3.4146118,0.8340454,0.24884033,-0.93072057,3.1866121,0.21293616
1570715209,-3.0770721,14.115326,0.17616272,-3.4146118,0.8340454,0.24884033,-0.93072057,3.1866121,0.21293616
1570715209,-3.0770721,14.115326,0.17616272,-3.4146118,0.8340454,0.24884033,-0.93072057,3.1866121,0.21293616
1570715209,-3.0770721,14.115326,0.17616272,-3.4146118,0.8340454,0.24884033,-0.93072057,3.1866121,0.21293616
1570715209,-3.0770721,14.115326,0.17616272,-3.4146118,0.8340454,0.24884033,-0.93072057,3.1866121,0.21293616
1570715209,-3.0770721,14.115326,0.17616272,-3.4146118,0.8340454,0.24884033,-0.93072057,3.1866121,0.21293616
1570715209,-3.0770721,14.115326,0.17616272,-3.4146118,0.8340454,0.24884033,-0.93072057,3.1866121,0.21293616
1570715209,-3.0770721,14.115326,0.17616272,-3.4146118,0.8340454,0.24884033,-0.93072057,3.1866121,0.21293616
1570715209,-3.0770721,14.115326,0.17616272,-3.4146118,0.8340454,0.24884033,-0.93072057,3.1866121,0.21293616
1570715209,-3.0770721,14.115326,0.17616272,-3.4146118,0.8340454,0.24884033,-0.93072057,3.1866121,0.21293616
1570715209,-3.0770721,14.115326,0.17616272,-3.4146118,0.8340454,0.24884033,-0.93072057,3.1866121,0.21293616
1570715209,-3.0770721,14.115326,0.17616272,-3.4146118,0.8340454,0.24884033,-0.93072057,3.1866121,0.21293616
1570715209,-3.0770721,14.115326,0.17616272,-3.4146118,0.8340454,0.24884033,-0.93072057,3.1866121,0.21293616
1570715209,-3.0770721,14.115326,0.17616272,-3.4146118,0.8340454,0.24884033,-0.93072057,3.1866121,0.21293616
1570715209,-3.0770721,14.115326,0.17616272,-3.4146118,0.8340454,0.24884033,-0.93072057,3.1866121,0.21293616
1570715209,-3.0770721,14.115326,0.17616272,-3.4146118,0.8340454,0.24884033,-0.93072057,3.1866121,0.21293616
1570715209,-3.0770721,14.115326,0.17616272,-3.4146118,0.8340454,0.24884033,-0.93072057,3.1866121,0.21293616
1570715209,-3.0770721,14.115326,0.17616272,-3.4146118,0.8340454,0.24884033,-0.93072057,3.1866121,0.21293616
1570715209,-3.0770721,14.115326,0.17616272,-3.4146118,0.8340454,0.24884033,-0.93072057,3.1866121,0.21293616
1570715209,-3.0770721,14.115326,0.17616272,-3.4146118,0.8340454,0.24884033,-0.93072057,3.1866121,0.21293616
1570715209,-3.0770721,14.115326,0.17616272,-3.4146118,0.8340454,0.24884033,-0.93072057,3.1866121,0.21293616
1570715209,-3.0770721,14.115326,0.17616272,-3.4146118,0.8340454,0.24884033,-0.93072057,3.1866121,0.21293616
1570715209,-3.0770721,14.115326,0.17616272,-3.4146118,0.8340454,0.24884033,-0.93072057,3.1866121,0.21293616
1570715209,-3.0770721,14.115326,0.17616272,-3.4146118,0.8340454,0.24884033,-0.93072057,3.1866121,0.21293616
1570715209,-3.0770721,14.115326,0.17616272,-3.4146118,0.8340454,0.24884033,-0.93072057,3.1866121,0.21293616
1570715209,-3.0770721,14.115326,0.17616272,-3.4146118,0.8340454,0.24884033,-0.93072057,3.1866121,0.21293616
1570715209,-3.0770721,14.115326,0.17616272,-3.4146118,0.8340454,0.24884033,-0.93072057,3.1866121,0.21293616
1570715209,-3.0770721,14.115326,0.17616272,-3.4146118,0.8340454,0.24884033,-0.93072057,3.1866121,0.21293616
1570715209,-3.0770721,14.115326,0.17616272,-3.4146118,0.8340454,0.24884033,-0.93072057,3.1866121,0.21293616
1570715209,-3.0770721,14.115326,0.17616272,-3.4146118,0.8340454,0.24884033,-0.93072057,3.1866121,0.21293616
1570715209,-3.0770721,14.115326,0.17616272,-3.4146118,0.8340454,0.24884033,-0.93072057,3.1866121,0.21293616
1570715209,-3.0770721,14.115326,0.17616272,-3.4146118,0.8340454,0.24884033,-0.93072057,3.1866121,0.21293616
1570715209,-3.0770721,14.115326,0.17616272,-3.4146118,0.8340454,0.24884033,-0.93072057,3.1866121,0.21293616
1570715209,-3.0770721,14.115326,0.17616272,-3.4146118,0.8340454,0.24884033,-0.93072057,3.1866121,0.21293616
1570715209,-3.0770721,14.115326,0.17616272,-3.4146118,0.8340454,0.24884033,-0.93072057,3.1866121,0.21293616
1570715209,-3.0770721,14.115326,0.17616272,-3.4146118,0.8340454,0.24884033,-0.93072057,3.1866121,0.21293616
1570715209,-3.0770721,14.115326,0.17616272,-3.4146118,0.8340454,0.24884033,-0.93072057,3.1866121,0.21293616
1570715209,-3.0770721,14.115326,0.17616272,-3.4146118,0.8340454,0.24884033,-0.93072057,3.1866121,0.21293616
1570715209,-3.0770721,14.115326,0.17616272,-3.4146118,0.8340454,0.24884033,-0.93072057,3.1866121,0.21293616
1570715209,-3.0770721,14.115326,0.17616272,-3.4146118,0.8340454,0.24884033,-0.93072057,3.1866121,0.21293616
1570715209,-3.0770721,14.115326,0.17616272,-3.4146118,0.8340454,0.24884033,-0.93072057,3.1866121,0.21293616
1570715209,-3.0770721,14.115326,0.17616272,-3.4146118,0.8340454,0.24884033,-0.93072057,3.1866121,0.21293616
1570715209,-3.0770721,14.115326,0.17616272,-3.4146118,0.8340454,0.24884033,-0.93072057,3.1866121,0.21293616
1570715209,-3.0770721,14.115326,0.17616272,-3.4146118,0.8340454,0.24884033,-0.93072057,3.1866121,0.21293616
1570715209,-3.0770721,14.115326,0.17616272,-3.4146118,0.8340454,0.24884033,-0.93072057,3.1866121,0.21293616
1570715209,-3.0770721,14.115326,0.17616272,-3.4146118,0.8340454,0.24884033,-0.93072057,3.1866121,0.21293616
1570715209,-3.0770721,14.115326,0.17616272,-3.4146118,0.8340454,0.24884033,-0.93072057,3.1866121,0.21293616
1570715209,-3.0770721,14.115326,0.17616272,-3.4146118,0.8340454,0.24884033,-0.93072057,3.1866121,0.21293616
1570715209,-3.0770721,14.115326,0.17616272,-3.4146118,0.8340454,0.24884033,-0.93072057,3.1866121,0.21293616
1570715209,-3.0770721,14.115326,0.17616272,-3.4146118,0.8340454,0.24884033,-0.93072057,3.1866121,0.21293616
1570715209,-3.0770721,14.115326,0.17616272,-3.4146118,0.8340454,0.24884033,-0.93072057,3.1866121,0.21293616
1570715209,-3.0770721,14.115326,0.17616272,-3.4146118,0.8340454,0.24884033,-0.93072057,3.1866121,0.21293616
1570715209,-3.0770721,14.115326,0.17616272,-3.4146118,0.8340454,0.24884033,-0.93072057,3.1866121,0.21293616
1570715209,-3.0770721,14.115326,0.17616272,-3.4146118,0.8340454,0.24884033,-0.93072057,3.1866121,0.21293616
1570715209,-3.0770721,14.115326,0.17616272,-3.4146118,0.8340454,0.24884033,-0.93072057,3.1866121,0.21293616
1570715209,-3.0770721,14.115326,0.17616272,-3.4146118,0.8340454,0.24884033,-0.93072057,3.1866121,0.21293616
1570715209,-3.0770721,14.115326,0.17616272,-3.4146118,0.8340454,0.24884033,-0.93072057,3.1866121,0.21293616
1570715209,-3.0770721,14.115326,0.17616272,-3.4146118,0.8340454,0.24884033,-0.93072057,3.1866121,0.21293616
1570715209,-3.0770721,14.115326,0.17616272,-3.4146118,0.8340454,0.24884033,-0.93072057,3.1866121,0.21293616
1570715209,-3.0770721,14.115326,0.17616272,-3.4146118,0.8340454,0.24884033,-0.93072057,3.1866121,0.21293616
1570715209,-3.0770721,14.115326,0.17616272,-3.4146118,0.8340454,0.24884033,-0.93072057,3.1866121,0.21293616
1570715209,-3.0770721,14.115326,0.17616272,-3.4146118,0.8340454,0.24884033,-0.93072057,3.1866121,0.21293616
1570715209,-3.0770721,14.115326,0.17616272,-3.4146118,0.8340454,0.24884033,-0.93072057,3.1866121,0.21293616
1570715209,-3.0770721,14.115326,0.17616272,-3.4146118,0.8340454,0.24884033,-0.93072057,3.1866121,0.21293616
1570715209,-3.0770721,14.115326,0.17616272,-3.4146118,0.8340454,0.24884033,-0.93072057,3.1866121,0.21293616
1570715209,-3.0770721,14.115326,0.17616272,-3.4146118,0.8340454,0.24884033,-0.93072057,3.1866121,0.21293616
1570715209,-3.0770721,14.115326,0.17616272,-3.4146118,0.8340454,0.24884033,-0.93072057,3.1866121,0.21293616
1570715209,-3.0770721,14.115326,0.17616272,-3.4146118,0.8340454,0.24884033,-0.93072057,3.1866121,0.21293616
1570715209,-3.0770721,14.115326,0.17616272,-3.4146118,0.8340454,0.24884033,-0.93072057,3.1866121,0.21293616
1570715209,-3.0770721,14.115326,0.17616272,-3.4146118,0.8340454,0.24884033,-0.93072057,3.1866121,0.21293616
1570715209,-3.0770721,14.115326,0.17616272,-3.4146118,0.8340454,0.24884033,-0.93072057,3.1866121,0.21293616
1570715209,-3.0770721,14.115326,0.17616272,-3.4146118,0.8340454,0.24884033,-0.93072057,3.1866121,0.21293616
1570715209,-3.0770721,14.115326,0.17616272,-3.4146118,0.8340454,0.24884033,-0.93072057,3.1866121,0.21293616
1570715209,-3.0770721,14.115326,0.17616272,-3.4146118,0.8340454,0.24884033,-0.93072057,3.1866121,0.21293616
1570715209,-3.0770721,14.115326,0.17616272,-3.4146118,0.8340454,0.24884033,-0.93072057,3.1866121,0.21293616
1570715209,-3.0770721,14.115326,0.17616272,-3.4146118,0.8340454,0.24884033,-0.93072057,3.1866121,0.21293616
1570715209,-3.0770721,14.115326,0.17616272,-3.4146118,0.8340454,0.24884033,-0.93072057,3.1866121,0.21293616
1570715209,-3.0770721,14.115326,0.17616272,-3.4146118,0.8340454,0.24884033,-0.93072057,3.1866121,0.21293616
1570715209,-3.0770721,14.115326,0.17616272,-3.4146118,0.8340454,0.24884033,-0.93072057,3.1866121,0.21293616
1570715209,-3.0770721,14.115326,0.17616272,-3.4146118,0.8340454,0.24884033,-0.93072057,3.1866121,0.21293616
1570715209,-3.0770721,14.115326,0.17616272,-3.4146118,0.8340454,0.24884033,-0.93072057,3.1866121,0.21293616
1570715209,-3.0770721,14.115326,0.17616272,-3.4146118,0.8340454,0.24884033,-0.93072057,3.1866121,0.21293616
1570715209,-3.0770721,14.115326,0.17616272,-3.4146118,0.8340454,0.24884033,-0.93072057,3.1866121,0.21293616
1570715209,-3.0770721,14.115326,0.17616272,-3.4146118,0.8340454,0.24884033,-0.93072057,3.1866121,0.21293616
1570715209,-3.0770721,14.115326,0.17616272,-3.4146118,0.8340454,0.24884033,-0.93072057,3.1866121,0.21293616
1570715209,-3.0770721,14.115326,0.17616272,-3.4146118,0.8340454,0.24884033,-0.93072057,3.1866121,0.21293616
1570715209,-3.0770721,14.115326,0.17616272,-3.4146118,0.8340454,0.24884033,-0.93072057,3.1866121,0.21293616
1570715209,-3.0770721,14.115326,0.17616272,-3.4146118,0.8340454,0.24884033,-0.93072057,3.1866121,0.21293616
1570715209,-3.0770721,14.115326,0.17616272,-3.4146118,0.8340454,0.24884033,-0.93072057,3.1866121,0.21293616
1570715209,-3.0770721,14.115326,0.17616272,-3.4146118,0.8340454,0.24884033,-0.93072057,3.1866121,0.21293616
1570715209,-3.0770721,14.115326,0.17616272,-3.4146118,0.8340454,0.24884033,-0.93072057,3.1866121,0.21293616
1570715209,-3.0770721,14.115326,0.17616272,-3.4146118,0.8340454,0.24884033,-0.93072057,3.1866121,0.21293616
1570715209,-3.0770721,14.115326,0.17616272,-3.4146118,0.8340454,0.24884033,-0.93072057,3.1866121,0.21293616
1570715209,-3.0770721,14.115326,0.17616272,-3.4146118,0.8340454,0.24884033,-0.93072057,3.1866121,0.21293616
1570715209,-3.0770721,14.115326,0.17616272,-3.4146118,0.8340454,0.24884033,-0.93072057,3.1866121,0.21293616
1570715209,-3.0770721,14.115326,0.17616272,-3.4146118,0.8340454,0.24884033,-0.93072057,3.1866121,0.21293616
1570715209,-3.0770721,14.115326,0.17616272,-3.4146118,0.8340454,0.24884033,-0.93072057,3.1866121,0.21293616
1570715209,-3.0770721,14.115326,0.17616272,-3.4146118,0.8340454,0.24884033,-0.93072057,3.1866121,0.21293616
1570715209,-3.0770721,14.115326,0.17616272,-3.4146118,0.8340454,0.24884033,-0.93072057,3.1866121,0.21293616
1570715209,-3.0770721,14.115326,0.17616272,-3.4146118,0.8340454,0.24884033,-0.93072057,3.1866121,0.21293616
1570715209,-3.0770721,14.115326,0.17616272,-3.4146118,0.8340454,0.24884033,-0.93072057,3.1866121,0.21293616
1570715209,-3.0770721,14.115326,0.17616272,-3.4146118,0.8340454,0.24884033,-0.93072057,3.1866121,0.21293616
1570715209,-3.0770721,14.115326,0.17616272,-3.4146118,0.8340454,0.24884033,-0.93072057,3.1866121,0.21293616
1570715209,-3.0770721,14.115326,0.17616272,-3.4146118,0.8340454,0.24884033,-0.93072057,3.1866121,0.21293616
1570715209,-3.0770721,14.115326,0.17616272,-3.4146118,0.8340454,0.24884033,-0.93072057,3.1866121,0.21293616
1570715209,-3.0770721,14.115326,0.17616272,-3.4146118,0.8340454,0.24884033,-0.93072057,3.1866121,0.21293616
1570715209,-3.0770721,14.115326,0.17616272,-3.4146118,0.8340454,0.24884033,-0.93072057,3.1866121,0.21293616
1570715209,-3.0770721,14.115326,0.17616272,-3.4146118,0.8340454,0.24884033,-0.93072057,3.1866121,0.21293616
1570715209,-3.0770721,14.115326,0.17616272,-3.4146118,0.8340454,0.24884033,-0.93072057,3.1866121,0.21293616
1570715209,-3.0770721,14.115326,0.17616272,-3.4146118,0.8340454,0.24884033,-0.93072057,3.1866121,0.21293616
1570715209,-3.0770721,14.115326,0.17616272,-3.4146118,0.8340454,0.24884033,-0.93072057,3.1866121,0.21293616
1570715209,-3.0770721,14.115326,0.17616272,-3.4146118,0.8340454,0.24884033,-0.93072057,3.1866121,0.21293616
1570715209,-3.0770721,14.115326,0.17616272,-3.4146118,0.8340454,0.24884033,-0.93072057,3.1866121,0.21293616
1570715209,-3.0770721,14.115326,0.17616272,-3.4146118,0.8340454,0.24884033,-0.93072057,3.1866121,0.21293616
1570715209,-3.0770721,14.115326,0.17616272,-3.4146118,0.8340454,0.24884033,-0.93072057,3.1866121,0.21293616
1570715209,-3.0770721,14.115326,0.17616272,-3.4146118,0.8340454,0.24884033,-0.93072057,3.1866121,0.21293616
1570715209,-3.0770721,14.115326,0.17616272,-3.4146118,0.8340454,0.24884033,-0.93072057,3.1866121,0.21293616
1570715209,-3.0770721,14.115326,0.17616272,-3.4146118,0.8340454,0.24884033,-0.93072057,3.1866121,0.21293616
1570715209,-3.0770721,14.115326,0.17616272,-3.4146118,0.8340454,0.24884033,-0.93072057,3.1866121,0.21293616
1570715209,-3.0770721,14.115326,0.17616272,-3.4146118,0.8340454,0.24884033,-0.93072057,3.1866121,0.21293616
1570715209,-3.0770721,14.115326,0.17616272,-3.4146118,0.8340454,0.24884033,-0.93072057,3.1866121,0.21293616
1570715209,-3.0770721,14.115326,0.17616272,-3.4146118,0.8340454,0.24884033,-0.93072057,3.1866121,0.21293616
1570715209,-3.0770721,14.115326,0.17616272,-3.4146118,0.8340454,0.24884033,-0.93072057,3.1866121,0.21293616
1570715209,-3.0770721,14.115326,0.17616272,-3.4146118,0.8340454,0.24884033,-0.93072057,3.1866121,0.21293616
1570715209,-3.0770721,14.115326,0.17616272,-3.4146118,0.8340454,0.24884033,-0.93072057,3.1866121,0.21293616
1570715209,-3.0770721,14.115326,0.17616272,-3.4146118,0.8340454,0.24884033,-0.93072057,3.1866121,0.21293616
1570715209,-3.0770721,14.115326,0.17616272,-3.4146118,0.8340454,0.24884033,-0.93072057,3.1866121,0.21293616
1570715209,-3.0770721,14.115326,0.17616272,-3.4146118,0.8340454,0.24884033,-0.93072057,3.1866121,0.21293616
1570715209,-3.0770721,14.115326,0.17616272,-3.4146118,0.8340454,0.24884033,-0.93072057,3.1866121,0.21293616
1570715209,-3.0770721,14.115326,0.17616272,-3.4146118,0.8340454,0.24884033,-0.93072057,3.1866121,0.21293616
1570715209,-3.0770721,14.115326,0.17616272,-3.4146118,0.8340454,0.24884033,-0.93072057,3.1866121,0.21293616
1570715209,-3.0770721,14.115326,0.17616272,-3.4146118,0.8340454,0.24884033,-0.93072057,3.1866121,0.21293616
1570715209,-3.0770721,14.115326,0.17616272,-3.4146118,0.8340454,0.24884033,-0.93072057,3.1866121,0.21293616
1570715209,-3.0770721,14.115326,0.17616272,-3.4146118,0.8340454,0.24884033,-0.93072057,3.1866121,0.21293616
1570715209,-3.0770721,14.115326,0.17616272,-3.4146118,0.8340454,0.24884033,-0.93072057,3.1866121,0.21293616
1570715209,-3.0770721,14.115326,0.17616272,-3.4146118,0.8340454,0.24884033,-0.93072057,3.1866121,0.21293616
1570715209,-3.0770721,14.115326,0.17616272,-3.4146118,0.8340454,0.24884033,-0.93072057,3.1866121,0.21293616
1570715209,-3.0770721,14.115326,0.17616272,-3.4146118,0.8340454,0.24884033,-0.93072057,3.1866121,0.21293616
1570715209,-3.0770721,14.115326,0.17616272,-3.4146118,0.8340454,0.24884033,-0.93072057,3.1866121,0.21293616
1570715209,-3.0770721,14.115326,0.17616272,-3.4146118,0.8340454,0.24884033,-0.93072057,3.1866121,0.21293616
1570715209,-3.0770721,14.115326,0.17616272,-3.4146118,0.8340454,0.24884033,-0.93072057,3.1866121,0.21293616
1570715209,-3.0770721,14.115326,0.17616272,-3.4146118,0.8340454,0.24884033,-0.93072057,3.1866121,0.21293616
1570715209,-3.0770721,14.115326,0.17616272,-3.4146118,0.8340454,0.24884033,-0.93072057,3.1866121,0.21293616
1570715209,-3.0770721,14.115326,0.17616272,-3.4146118,0.8340454,0.24884033,-0.93072057,3.1866121,0.21293616
1570715209,-3.0770721,14.115326,0.17616272,-3.4146118,0.8340454,0.24884033,-0.93072057,3.1866121,0.21293616
1570715209,-3.0770721,14.115326,0.17616272,-3.4146118,0.8340454,0.24884033,-0.93072057,3.1866121,0.21293616
1570715209,-3.0770721,14.115326,0.17616272,-3.4146118,0.8340454,0.24884033,-0.93072057,3.1866121,0.21293616
1570715209,-3.0770721,14.115326,0.17616272,-3.4146118,0.8340454,0.24884033,-0.93072057,3.1866121,0.21293616
1570715209,-3.0770721,14.115326,0.17616272,-3.4146118,0.8340454,0.24884033,-0.93072057,3.1866121,0.21293616
1570715209,-3.0770721,14.115326,0.17616272,-3.4146118,0.8340454,0.24884033,-0.93072057,3.1866121,0.21293616
1570715209,-3.0770721,14.115326,0.17616272,-3.4146118,0.8340454,0.24884033,-0.93072057,3.1866121,0.21293616
1570715209,-3.0770721,14.115326,0.17616272,-3.4146118,0.8340454,0.24884033,-0.93072057,3.1866121,0.21293616
1570715209,-3.0770721,14.115326,0.17616272,-3.4146118,0.8340454,0.24884033,-0.93072057,3.1866121,0.21293616
1570715209,-3.0770721,14.115326,0.17616272,-3.4146118,0.8340454,0.24884033,-0.93072057,3.1866121,0.21293616
1570715209,-3.0770721,14.115326,0.17616272,-3.4146118,0.8340454,0.24884033,-0.93072057,3.1866121,0.21293616
1570715209,-3.0770721,14.115326,0.17616272,-3.4146118,0.8340454,0.24884033,-0.93072057,3.1866121,0.21293616
1570715209,-3.0770721,14.115326,0.17616272,-3.4146118,0.8340454,0.24884033,-0.93072057,3.1866121,0.21293616
1570715209,-3.0770721,14.115326,0.17616272,-3.4146118,0.8340454,0.24884033,-0.93072057,3.1866121,0.21293616
1570715209,-3.0770721,14.115326,0.17616272,-3.4146118,0.8340454,0.24884033,-0.93072057,3.1866121,0.21293616
1570715209,-3.0770721,14.115326,0.17616272,-3.4146118,0.8340454,0.24884033,-0.93072057,3.1866121,0.21293616
1570715209,-3.0770721,14.115326,0.17616272,-3.4146118,0.8340454,0.24884033,-0.93072057,3.1866121,0.21293616
1570715209,-3.0770721,14.115326,0.17616272,-3.4146118,0.8340454,0.24884033,-0.93072057,3.1866121,0.21293616
1570715209,-3.0770721,14.115326,0.17616272,-3.4146118,0.8340454,0.24884033,-0.93072057,3.1866121,0.21293616
1570715209,-3.0770721,14.115326,0.17616272,-3.4146118,0.8340454,0.24884033,-0.93072057,3.1866121,0.21293616
1570715209,-3.0770721,14.115326,0.17616272,-3.4146118,0.8340454,0.24884033,-0.93072057,3.1866121,0.21293616
1570715209,-3.0770721,14.115326,0.17616272,-3.4146118,0.8340454,0.24884033,-0.93072057,3.1866121,0.21293616
1570715209,-3.0770721,14.115326,0.17616272,-3.4146118,0.8340454,0.24884033,-0.93072057,3.1866121,0.21293616
1570715209,-3.0770721,14.115326,0.17616272,-3.4146118,0.8340454,0.24884033,-0.93072057,3.1866121,0.21293616
1570715209,-3.0770721,14.115326,0.17616272,-3.4146118,0.8340454,0.24884033,-0.93072057,3.1866121,0.21293616
1570715209,-3.0770721,14.115326,0.17616272,-3.4146118,0.8340454,0.24884033,-0.93072057,3.1866121,0.21293616
1570715209,-3.0770721,14.115326,0.17616272,-3.4146118,0.8340454,0.24884033,-0.93072057,3.1866121,0.21293616
1570715209,-3.0770721,14.115326,0.17616272,-3.4146118,0.8340454,0.24884033,-0.93072057,3.1866121,0.21293616
1570715209,-3.0770721,14.115326,0.17616272,-3.4146118,0.8340454,0.24884033,-0.93072057,3.1866121,0.21293616
1570715209,-3.0770721,14.115326,0.17616272,-3.4146118,0.8340454,0.24884033,-0.93072057,3.1866121,0.21293616
1570715209,-3.0770721,14.115326,0.17616272,-3.4146118,0.8340454,0.24884033,-0.93072057,3.1866121,0.21293616
1570715209,-3.0770721,14.115326,0.17616272,-3.4146118,0.8340454,0.24884033,-0.93072057,3.1866121,0.21293616
1570715209,-3.0770721,14.115326,0.17616272,-3.4146118,0.8340454,0.24884033,-0.93072057,3.1866121,0.21293616
1570715209,-3.0770721,14.115326,0.17616272,-3.4146118,0.8340454,0.24884033,-0.93072057,3.1866121,0.21293616
1570715209,-3.0770721,14.115326,0.17616272,-3.4146118,0.8340454,0.24884033,-0.93072057,3.1866121,0.21293616
1570715209,-3.0770721,14.115326,0.17616272,-3.4146118,0.8340454,0.24884033,-0.93072057,3.1866121,0.21293616
1570715209,-3.0770721,14.115326,0.17616272,-3.4146118,0.8340454,0.24884033,-0.93072057,3.1866121,0.21293616
1570715209,-3.0770721,14.115326,0.17616272,-3.4146118,0.8340454,0.24884033,-0.93072057,3.1866121,0.21293616
1570715209,-3.0770721,14.115326,0.17616272,-3.4146118,0.8340454,0.24884033,-0.93072057,3.1866121,0.21293616
1570715209,-3.0770721,14.115326,0.17616272,-3.4146118,0.8340454,0.24884033,-0.93072057,3.1866121,0.21293616
1570715209,-3.0770721,14.115326,0.17616272,-3.4146118,0.8340454,0.24884033,-0.93072057,3.1866121,0.21293616
1570715209,-3.0770721,14.115326,0.17616272,-3.4146118,0.8340454,0.24884033,-0.93072057,3.1866121,0.21293616
1570715209,-3.0770721,14.115326,0.17616272,-3.4146118,0.8340454,0.24884033,-0.93072057,3.1866121,0.21293616
1570715209,-3.0770721,14.115326,0.17616272,-3.4146118,0.8340454,0.24884033,-0.93072057,3.1866121,0.21293616
1570715209,-3.0770721,14.115326,0.17616272,-3.4146118,0.8340454,0.24884033,-0.93072057,3.1866121,0.21293616
1570715209,-3.0770721,14.115326,0.17616272,-3.4146118,0.8340454,0.24884033,-0.93072057,3.1866121,0.21293616
1570715209,-3.0770721,14.115326,0.17616272,-3.4146118,0.8340454,0.24884033,-0.93072057,3.1866121,0.21293616
1570715209,-3.0770721,14.115326,0.17616272,-3.4146118,0.8340454,0.24884033,-0.93072057,3.1866121,0.21293616
1570715209,-3.0770721,14.115326,0.17616272,-3.4146118,0.8340454,0.24884033,-0.93072057,3.1866121,0.21293616
1570715209,-3.0770721,14.115326,0.17616272,-3.4146118,0.8340454,0.24884033,-0.93072057,3.1866121,0.21293616
1570715209,-3.0770721,14.115326,0.17616272,-3.4146118,0.8340454,0.24884033,-0.93072057,3.1866121,0.21293616
1570715209,-3.0770721,14.115326,0.17616272,-3.4146118,0.8340454,0.24884033,-0.93072057,3.1866121,0.21293616
1570715209,-3.0770721,14.115326,0.17616272,-3.4146118,0.8340454,0.24884033,-0.93072057,3.1866121,0.21293616
1570715209,-3.0770721,14.115326,0.17616272,-3.4146118,0.8340454,0.24884033,-0.93072057,3.1866121,0.21293616
1570715209,-3.0770721,14.115326,0.17616272,-3.4146118,0.8340454,0.24884033,-0.93072057,3.1866121,0.21293616
1570715209,-3.0770721,14.115326,0.17616272,-3.4146118,0.8340454,0.24884033,-0.93072057,3.1866121,0.21293616
1570715209,-3.0770721,14.115326,0.17616272,-3.4146118,0.8340454,0.24884033,-0.93072057,3.1866121,0.21293616
1570715209,-3.0770721,14.115326,0.17616272,-3.4146118,0.8340454,0.24884033,-0.93072057,3.1866121,0.21293616
1570715209,-3.0770721,14.115326,0.17616272,-3.4146118,0.8340454,0.24884033,-0.93072057,3.1866121,0.21293616
1570715209,-3.0770721,14.115326,0.17616272,-3.4146118,0.8340454,0.24884033,-0.93072057,3.1866121,0.21293616
1570715209,-3.0770721,14.115326,0.17616272,-3.4146118,0.8340454,0.24884033,-0.93072057,3.1866121,0.21293616
1570715209,-3.0770721,14.115326,0.17616272,-3.4146118,0.8340454,0.24884033,-0.93072057,3.1866121,0.21293616
1570715209,-3.0770721,14.115326,0.17616272,-3.4146118,0.8340454,0.24884033,-0.93072057,3.1866121,0.21293616
1570715209,-3.0770721,14.115326,0.17616272,-3.4146118,0.8340454,0.24884033,-0.93072057,3.1866121,0.21293616
1570715209,-3.0770721,14.115326,0.17616272,-3.4146118,0.8340454,0.24884033,-0.93072057,3.1866121,0.21293616
1570715209,-3.0770721,14.115326,0.17616272,-3.4146118,0.8340454,0.24884033,-0.93072057,3.1866121,0.21293616
1570715209,-3.0770721,14.115326,0.17616272,-3.4146118,0.8340454,0.24884033,-0.93072057,3.1866121,0.21293616
1570715209,-3.0770721,14.115326,0.17616272,-3.4146118,0.8340454,0.24884033,-0.93072057,3.1866121,0.21293616
1570715209,-3.0770721,14.115326,0.17616272,-3.4146118,0.8340454,0.24884033,-0.93072057,3.1866121,0.21293616
1570715209,-3.0770721,14.115326,0.17616272,-3.4146118,0.8340454,0.24884033,-0.93072057,3.1866121,0.21293616
1570715209,-3.0770721,14.115326,0.17616272,-3.4146118,0.8340454,0.24884033,-0.93072057,3.1866121,0.21293616
1570715209,-3.0770721,14.115326,0.17616272,-3.4146118,0.8340454,0.24884033,-0.93072057,3.1866121,0.21293616
1570715209,-3.0770721,14.115326,0.17616272,-3.4146118,0.8340454,0.24884033,-0.93072057,3.1866121,0.21293616
1570715209,-3.0770721,14.115326,0.17616272,-3.4146118,0.8340454,0.24884033,-0.93072057,3.1866121,0.21293616
1570715209,-3.0770721,14.115326,0.17616272,-3.4146118,0.8340454,0.24884033,-0.93072057,3.1866121,0.21293616
1570715209,-3.0770721,14.115326,0.17616272,-3.4146118,0.8340454,0.24884033,-0.93072057,3.1866121,0.21293616
1570715209,-3.0770721,14.115326,0.17616272,-3.4146118,0.8340454,0.24884033,-0.93072057,3.1866121,0.21293616
1570715209,-3.0770721,14.115326,0.17616272,-3.4146118,0.8340454,0.24884033,-0.93072057,3.1866121,0.21293616
1570715209,-3.0770721,14.115326,0.17616272,-3.4146118,0.8340454,0.24884033,-0.93072057,3.1866121,0.21293616
1570715209,-3.0770721,14.115326,0.17616272,-3.4146118,0.8340454,0.24884033,-0.93072057,3.1866121,0.21293616
1570715209,-3.0770721,14.115326,0.17616272,-3.4146118,0.8340454,0.24884033,-0.93072057,3.1866121,0.21293616
1570715209,-3.0770721,14.115326,0.17616272,-3.4146118,0.8340454,0.24884033,-0.93072057,3.1866121,0.21293616
1570715209,-3.0770721,14.115326,0.17616272,-3.4146118,0.8340454,0.24884033,-0.93072057,3.1866121,0.21293616
1570715209,-3.0770721,14.115326,0.17616272,-3.4146118,0.8340454,0.24884033,-0.93072057,3.1866121,0.21293616
1570715209,-3.0770721,14.115326,0.17616272,-3.4146118,0.8340454,0.24884033,-0.93072057,3.1866121,0.21293616
1570715209,-3.0770721,14.115326,0.17616272,-3.4146118,0.8340454,0.24884033,-0.93072057,3.1866121,0.21293616
1570715209,-3.0770721,14.115326,0.17616272,-3.4146118,0.8340454,0.24884033,-0.93072057,3.1866121,0.21293616
1570715209,-3.0770721,14.115326,0.17616272,-3.4146118,0.8340454,0.24884033,-0.93072057,3.1866121,0.21293616
1570715209,-3.0770721,14.115326,0.17616272,-3.4146118,0.8340454,0.24884033,-0.93072057,3.1866121,0.21293616
1570715209,-3.0770721,14.115326,0.17616272,-3.4146118,0.8340454,0.24884033,-0.93072057,3.1866121,0.21293616
1570715209,-3.0770721,14.115326,0.17616272,-3.4146118,0.8340454,0.24884033,-0.93072057,3.1866121,0.21293616
1570715209,-3.0770721,14.115326,0.17616272,-3.4146118,0.8340454,0.24884033,-0.93072057,3.1866121,0.21293616
1570715209,-3.0770721,14.115326,0.17616272,-3.4146118,0.8340454,0.24884033,-0.93072057,3.1866121,0.21293616
1570715209,-3.0770721,14.115326,0.17616272,-3.4146118,0.8340454,0.24884033,-0.93072057,3.1866121,0.21293616
1570715209,-3.0770721,14.115326,0.17616272,-3.4146118,0.8340454,0.24884033,-0.93072057,3.1866121,0.21293616
1570715209,-3.0770721,14.115326,0.17616272,-3.4146118,0.8340454,0.24884033,-0.93072057,3.1866121,0.21293616
1570715209,-3.0770721,14.115326,0.17616272,-3.4146118,0.8340454,0.24884033,-0.93072057,3.1866121,0.21293616
1570715209,-3.0770721,14.115326,0.17616272,-3.4146118,0.8340454,0.24884033,-0.93072057,3.1866121,0.21293616
1570715209,-3.0770721,14.115326,0.17616272,-3.4146118,0.8340454,0.24884033,-0.93072057,3.1866121,0.21293616
1570715209,-3.0770721,14.115326,0.17616272,-3.4146118,0.8340454,0.24884033,-0.93072057,3.1866121,0.21293616
1570715209,-3.0770721,14.115326,0.17616272,-3.4146118,0.8340454,0.24884033,-0.93072057,3.1866121,0.21293616
1570715209,-3.0770721,14.115326,0.17616272,-3.4146118,0.8340454,0.24884033,-0.93072057,3.1866121,0.21293616
1570715209,-3.0770721,14.115326,0.17616272,-3.4146118,0.8340454,0.24884033,-0.93072057,3.1866121,0.21293616
1570715209,-3.0770721,14.115326,0.17616272,-3.4146118,0.8340454,0.24884033,-0.93072057,3.1866121,0.21293616
1570715209,-3.0770721,14.115326,0.17616272,-3.4146118,0.8340454,0.24884033,-0.93072057,3.1866121,0.21293616
1570715209,-3.0770721,14.115326,0.17616272,-3.4146118,0.8340454,0.24884033,-0.93072057,3.1866121,0.21293616
1570715209,-3.0770721,14.115326,0.17616272,-3.4146118,0.8340454,0.24884033,-0.93072057,3.1866121,0.21293616
1570715209,-3.0770721,14.115326,0.17616272,-3.4146118,0.8340454,0.24884033,-0.93072057,3.1866121,0.21293616
1570715209,-3.0770721,14.115326,0.17616272,-3.4146118,0.8340454,0.24884033,-0.93072057,3.1866121,0.21293616
1570715209,-3.0770721,14.115326,0.17616272,-3.4146118,0.8340454,0.24884033,-0.93072057,3.1866121,0.21293616
1570715209,-3.0770721,14.115326,0.17616272,-3.4146118,0.8340454,0.24884033,-0.93072057,3.1866121,0.21293616
1570715209,-3.0770721,14.115326,0.17616272,-3.4146118,0.8340454,0.24884033,-0.93072057,3.1866121,0.21293616
1570715209,-3.0770721,14.115326,0.17616272,-3.4146118,0.8340454,0.24884033,-0.93072057,3.1866121,0.21293616
1570715209,-3.0770721,14.115326,0.17616272,-3.4146118,0.8340454,0.24884033,-0.93072057,3.1866121,0.21293616
1570715209,-3.0770721,14.115326,0.17616272,-3.4146118,0.8340454,0.24884033,-0.93072057,3.1866121,0.21293616
1570715209,-3.0770721,14.115326,0.17616272,-3.4146118,0.8340454,0.24884033,-0.93072057,3.1866121,0.21293616
1570715209,-3.0770721,14.115326,0.17616272,-3.4146118,0.8340454,0.24884033,-0.93072057,3.1866121,0.21293616
1570715209,-3.0770721,14.115326,0.17616272,-3.4146118,0.8340454,0.24884033,-0.93072057,3.1866121,0.21293616
1570715209,-3.0770721,14.115326,0.17616272,-3.4146118,0.8340454,0.24884033,-0.93072057,3.1866121,0.21293616
1570715209,-3.0770721,14.115326,0.17616272,-3.4146118,0.8340454,0.24884033,-0.93072057,3.1866121,0.21293616
1570715209,-3.0770721,14.115326,0.17616272,-3.4146118,0.8340454,0.24884033,-0.93072057,3.1866121,0.21293616
1570715209,-3.0770721,14.115326,0.17616272,-3.4146118,0.8340454,0.24884033,-0.93072057,3.1866121,0.21293616
1570715209,-3.0770721,14.115326,0.17616272,-3.4146118,0.8340454,0.24884033,-0.93072057,3.1866121,0.21293616
1570715209,-3.0770721,14.115326,0.17616272,-3.4146118,0.8340454,0.24884033,-0.93072057,3.1866121,0.21293616
1570715209,-3.0770721,14.115326,0.17616272,-3.4146118,0.8340454,0.24884033,-0.93072057,3.1866121,0.21293616
1570715209,-3.0770721,14.115326,0.17616272,-3.4146118,0.8340454,0.24884033,-0.93072057,3.1866121,0.21293616
1570715209,-3.0770721,14.115326,0.17616272,-3.4146118,0.8340454,0.24884033,-0.93072057,3.1866121,0.21293616
1570715209,-3.0770721,14.115326,0.17616272,-3.4146118,0.8340454,0.24884033,-0.93072057,3.1866121,0.21293616
1570715209,-3.0770721,14.115326,0.17616272,-3.4146118,0.8340454,0.24884033,-0.93072057,3.1866121,0.21293616
1570715209,-3.0770721,14.115326,0.17616272,-3.4146118,0.8340454,0.24884033,-0.93072057,3.1866121,0.21293616
1570715209,-3.0770721,14.115326,0.17616272,-3.4146118,0.8340454,0.24884033,-0.93072057,3.1866121,0.21293616
1570715209,-3.0770721,14.115326,0.17616272,-3.4146118,0.8340454,0.24884033,-0.93072057,3.1866121,0.21293616
1570715209,-3.0770721,14.115326,0.17616272,-3.4146118,0.8340454,0.24884033,-0.93072057,3.1866121,0.21293616
1570715209,-3.0770721,14.115326,0.17616272,-3.4146118,0.8340454,0.24884033,-0.93072057,3.1866121,0.21293616
1570715209,-3.0770721,14.115326,0.17616272,-3.4146118,0.8340454,0.24884033,-0.93072057,3.1866121,0.21293616
1570715209,-3.0770721,14.115326,0.17616272,-3.4146118,0.8340454,0.24884033,-0.93072057,3.1866121,0.21293616
1570715209,-3.0770721,14.115326,0.17616272,-3.4146118,0.8340454,0.24884033,-0.93072057,3.1866121,0.21293616
1570715209,-3.0770721,14.115326,0.17616272,-3.4146118,0.8340454,0.24884033,-0.93072057,3.1866121,0.21293616
1570715209,-3.0770721,14.115326,0.17616272,-3.4146118,0.8340454,0.24884033,-0.93072057,3.1866121,0.21293616
1570715209,-3.0770721,14.115326,0.17616272,-3.4146118,0.8340454,0.24884033,-0.93072057,3.1866121,0.21293616
1570715209,-3.0770721,14.115326,0.17616272,-3.4146118,0.8340454,0.24884033,-0.93072057,3.1866121,0.21293616
1570715209,-3.0770721,14.115326,0.17616272,-3.4146118,0.8340454,0.24884033,-0.93072057,3.1866121,0.21293616
1570715209,-3.0770721,14.115326,0.17616272,-3.4146118,0.8340454,0.24884033,-0.93072057,3.1866121,0.21293616
1570715209,-3.0770721,14.115326,0.17616272,-3.4146118,0.8340454,0.24884033,-0.93072057,3.1866121,0.21293616
1570715209,-3.0770721,14.115326,0.17616272,-3.4146118,0.8340454,0.24884033,-0.93072057,3.1866121,0.21293616
1570715209,-3.0770721,14.115326,0.17616272,-3.4146118,0.8340454,0.24884033,-0.93072057,3.1866121,0.21293616
1570715209,-3.0770721,14.115326,0.17616272,-3.4146118,0.8340454,0.24884033,-0.93072057,3.1866121,0.21293616
1570715209,-3.0770721,14.115326,0.17616272,-3.4146118,0.8340454,0.24884033,-0.93072057,3.1866121,0.21293616
1570715209,-3.0770721,14.115326,0.17616272,-3.4146118,0.8340454,0.24884033,-0.93072057,3.1866121,0.21293616
1570715209,-3.0770721,14.115326,0.17616272,-3.4146118,0.8340454,0.24884033,-0.93072057,3.1866121,0.21293616
1570715209,-3.0770721,14.115326,0.17616272,-3.4146118,0.8340454,0.24884033,-0.93072057,3.1866121,0.21293616
1570715209,-3.0770721,14.115326,0.17616272,-3.4146118,0.8340454,0.24884033,-0.93072057,3.1866121,0.21293616
1570715209,-3.0770721,14.115326,0.17616272,-3.4146118,0.8340454,0.24884033,-0.93072057,3.1866121,0.21293616
1570715209,-3.0770721,14.115326,0.17616272,-3.4146118,0.8340454,0.24884033,-0.93072057,3.1866121,0.21293616
1570715209,-3.0770721,14.115326,0.17616272,-3.4146118,0.8340454,0.24884033,-0.93072057,3.1866121,0.21293616
1570715209,-3.0770721,14.115326,0.17616272,-3.4146118,0.8340454,0.24884033,-0.93072057,3.1866121,0.21293616
1570715209,-3.0770721,14.115326,0.17616272,-3.4146118,0.8340454,0.24884033,-0.93072057,3.1866121,0.21293616
1570715209,-3.0770721,14.115326,0.17616272,-3.4146118,0.8340454,0.24884033,-0.93072057,3.1866121,0.21293616
1570715209,-3.0770721,14.115326,0.17616272,-3.4146118,0.8340454,0.24884033,-0.93072057,3.1866121,0.21293616
1570715209,-3.0770721,14.115326,0.17616272,-3.4146118,0.8340454,0.24884033,-0.93072057,3.1866121,0.21293616
1570715209,-3.0770721,14.115326,0.17616272,-3.4146118,0.8340454,0.24884033,-0.93072057,3.1866121,0.21293616
1570715209,-3.0770721,14.115326,0.17616272,-3.4146118,0.8340454,0.24884033,-0.93072057,3.1866121,0.21293616
1570715209,-3.0770721,14.115326,0.17616272,-3.4146118,0.8340454,0.24884033,-0.93072057,3.1866121,0.21293616
1570715209,-3.0770721,14.115326,0.17616272,-3.4146118,0.8340454,0.24884033,-0.93072057,3.1866121,0.21293616
1570715209,-3.0770721,14.115326,0.17616272,-3.4146118,0.8340454,0.24884033,-0.93072057,3.1866121,0.21293616
1570715209,-3.0770721,14.115326,0.17616272,-3.4146118,0.8340454,0.24884033,-0.93072057,3.1866121,0.21293616
1570715209,-3.0770721,14.115326,0.17616272,-3.4146118,0.8340454,0.24884033,-0.93072057,3.1866121,0.21293616
1570715209,-3.0770721,14.115326,0.17616272,-3.4146118,0.8340454,0.24884033,-0.93072057,3.1866121,0.21293616
1570715209,-3.0770721,14.115326,0.17616272,-3.4146118,0.8340454,0.24884033,-0.93072057,3.1866121,0.21293616
1570715209,-3.0770721,14.115326,0.17616272,-3.4146118,0.8340454,0.24884033,-0.93072057,3.1866121,0.21293616
1570715209,-3.0770721,14.115326,0.17616272,-3.4146118,0.8340454,0.24884033,-0.93072057,3.1866121,0.21293616
1570715209,-3.0770721,14.115326,0.17616272,-3.4146118,0.8340454,0.24884033,-0.93072057,3.1866121,0.21293616
1570715209,-3.0770721,14.115326,0.17616272,-3.4146118,0.8340454,0.24884033,-0.93072057,3.1866121,0.21293616
1570715209,-3.0770721,14.115326,0.17616272,-3.4146118,0.8340454,0.24884033,-0.93072057,3.1866121,0.21293616
1570715209,-3.0770721,14.115326,0.17616272,-3.4146118,0.8340454,0.24884033,-0.93072057,3.1866121,0.21293616
1570715209,-3.0770721,14.115326,0.17616272,-3.4146118,0.8340454,0.24884033,-0.93072057,3.1866121,0.21293616
1570715209,-3.0770721,14.115326,0.17616272,-3.4146118,0.8340454,0.24884033,-0.93072057,3.1866121,0.21293616
1570715209,-3.0770721,14.115326,0.17616272,-3.4146118,0.8340454,0.24884033,-0.93072057,3.1866121,0.21293616
1570715209,-3.0770721,14.115326,0.17616272,-3.4146118,0.8340454,0.24884033,-0.93072057,3.1866121,0.21293616
1570715209,-3.0770721,14.115326,0.17616272,-3.4146118,0.8340454,0.24884033,-0.93072057,3.1866121,0.21293616
1570715209,-3.0770721,14.115326,0.17616272,-3.4146118,0.8340454,0.24884033,-0.93072057,3.1866121,0.21293616
1570715209,-3.0770721,14.115326,0.17616272,-3.4146118,0.8340454,0.24884033,-0.93072057,3.1866121,0.21293616
1570715209,-3.0770721,14.115326,0.17616272,-3.4146118,0.8340454,0.24884033,-0.93072057,3.1866121,0.21293616
1570715209,-3.0770721,14.115326,0.17616272,-3.4146118,0.8340454,0.24884033,-0.93072057,3.1866121,0.21293616
1570715209,-3.0770721,14.115326,0.17616272,-3.4146118,0.8340454,0.24884033,-0.93072057,3.1866121,0.21293616
1570715209,-3.0770721,14.115326,0.17616272,-3.4146118,0.8340454,0.24884033,-0.93072057,3.1866121,0.21293616
1570715209,-3.0770721,14.115326,0.17616272,-3.4146118,0.8340454,0.24884033,-0.93072057,3.1866121,0.21293616
1570715209,-3.0770721,14.115326,0.17616272,-3.4146118,0.8340454,0.24884033,-0.93072057,3.1866121,0.21293616
1570715209,-3.0770721,14.115326,0.17616272,-3.4146118,0.8340454,0.24884033,-0.93072057,3.1866121,0.21293616
1570715209,-3.0770721,14.115326,0.17616272,-3.4146118,0.8340454,0.24884033,-0.93072057,3.1866121,0.21293616
1570715209,-3.0770721,14.115326,0.17616272,-3.4146118,0.8340454,0.24884033,-0.93072057,3.1866121,0.21293616
1570715209,-3.0770721,14.115326,0.17616272,-3.4146118,0.8340454,0.24884033,-0.93072057,3.1866121,0.21293616
1570715209,-3.0770721,14.115326,0.17616272,-3.4146118,0.8340454,0.24884033,-0.93072057,3.1866121,0.21293616
1570715209,-3.0770721,14.115326,0.17616272,-3.4146118,0.8340454,0.24884033,-0.93072057,3.1866121,0.21293616
1570715209,-3.0770721,14.115326,0.17616272,-3.4146118,0.8340454,0.24884033,-0.93072057,3.1866121,0.21293616
1570715209,-3.0770721,14.115326,0.17616272,-3.4146118,0.8340454,0.24884033,-0.93072057,3.1866121,0.21293616
1570715209,-3.0770721,14.115326,0.17616272,-3.4146118,0.8340454,0.24884033,-0.93072057,3.1866121,0.21293616
1570715209,-3.0770721,14.115326,0.17616272,-3.4146118,0.8340454,0.24884033,-0.93072057,3.1866121,0.21293616
1570715209,-3.0770721,14.115326,0.17616272,-3.4146118,0.8340454,0.24884033,-0.93072057,3.1866121,0.21293616
1570715209,-3.0770721,14.115326,0.17616272,-3.4146118,0.8340454,0.24884033,-0.93072057,3.1866121,0.21293616
1570715209,-3.0770721,14.115326,0.17616272,-3.4146118,0.8340454,0.24884033,-0.93072057,3.1866121,0.21293616
1570715209,-3.0770721,14.115326,0.17616272,-3.4146118,0.8340454,0.24884033,-0.93072057,3.1866121,0.21293616
1570715209,-3.0770721,14.115326,0.17616272,-3.4146118,0.8340454,0.24884033,-0.93072057,3.1866121,0.21293616
1570715209,-3.0770721,14.115326,0.17616272,-3.4146118,0.8340454,0.24884033,-0.93072057,3.1866121,0.21293616
1570715209,-3.0770721,14.115326,0.17616272,-3.4146118,0.8340454,0.24884033,-0.93072057,3.1866121,0.21293616
1570715209,-3.0770721,14.115326,0.17616272,-3.4146118,0.8340454,0.24884033,-0.93072057,3.1866121,0.21293616
1570715209,-3.0770721,14.115326,0.17616272,-3.4146118,0.8340454,0.24884033,-0.93072057,3.1866121,0.21293616
1570715209,-1.3209229,28.360825,-3.5013275,-3.4146118,0.8340454,0.24884033,-6.982849,11.341607,0.26063347
1570715209,2.3888855,7.157776,1.114685,-3.4146118,0.8340454,0.24884033,0.31401932,-8.303792,3.396738
1570715209,-6.4157867,12.420227,10.599319,-3.4146118,0.8340454,0.24884033,1.1107516,-4.4078035,-10.839173
1570715209,-6.4157867,12.420227,10.599319,-3.4146118,0.8340454,0.24884033,1.1107516,-4.4078035,-10.839173
1570715209,-6.4157867,12.420227,10.599319,-3.4146118,0.8340454,0.24884033,1.1107516,-4.4078035,-10.839173
1570715209,6.670929,4.3338165,7.6352997,-3.4146118,0.8340454,0.24884033,0.35813212,-8.113834,4.608534
1570715209,-3.7474518,22.05449,-1.7284241,-3.4146118,0.8340454,0.24884033,2.0993705,-10.217259,-1.0926459
1570715209,1.9184265,5.347763,-13.488739,2.8629913,-0.7404175,-1.5983276,3.6424284,-7.770668,2.6681335
1570715209,1.9184265,5.347763,-13.488739,2.8629913,-0.7404175,-1.5983276,3.6424284,-7.770668,2.6681335
1570715209,1.9184265,5.347763,-13.488739,2.8629913,-0.7404175,-1.5983276,3.6424284,-7.770668,2.6681335
1570715209,-2.5802765,0.5701294,1.3816528,-2.2918243,1.0055542,0.29997253,0.83855236,-8.267836,4.171999
1570715209,-4.013199,0.7592621,1.3469238,-2.9576263,1.3933105,-0.2539673,-2.6177535,-10.0149765,2.902891
1570715209,-5.6280975,14.13089,0.4407196,-4.036728,1.1429596,-0.4861908,-3.5989661,1.3131752,1.1258452
1570715209,-0.6325836,40.02298,0.5197296,-4.4734955,-0.22270203,0.6046448,-1.4756564,25.595053,-1.9005401
1570715209,-5.148056,23.099564,4.799362,-2.4878387,-4.0001373,0.60783386,-3.6873012,13.540904,2.6254697
1570715210,-3.1955872,22.565659,-2.8764496,-3.3059692,0.3120575,1.0254211,-5.094638,13.433618,-11.395616
1570715210,6.569168,19.380173,3.4250946,-3.5307312,3.3118439,0.07946777,6.305673,9.982404,-1.2596331
1570715210,-0.09509277,13.993225,-1.5656128,-2.366394,4.780838,0.32022095,3.1417162,5.226095,-6.6399655
1570715210,-7.0514374,4.8318024,-4.6673126,-1.5418854,4.5486145,0.5726776,-5.3305135,-3.1970844,-10.153755
1570715210,-5.618515,-3.0355377,-0.37210083,-0.105911255,2.8963928,0.17533875,-3.5538394,-11.09272,-6.2151093
1570715210,-2.680832,-8.740921,0.99139404,2.1418,-0.8299103,0.15083313,-1.0158384,-17.048481,-2.9905143
1570715210,0.006668091,-3.47966,-0.68574524,4.2393036,-1.8419037,0.29785156,1.0846529,-14.769444,-4.2864404
1570715210,0.49986267,4.0381317,4.225952,3.5128021,-5.973007,0.9125061,3.6306324,-8.4611845,2.7827504
1570715210,-1.0623474,10.945404,3.0300598,0.5513611,-2.5993042,1.0019836,-0.6905495,0.30186272,0.600368
1570715210,9.299759,10.102646,6.3340454,0.37771606,2.2657623,0.98387146,8.3124075,1.119009,6.0040035
1570715210,-3.3045197,32.64406,3.8560486,-2.2247162,-4.317581,0.74313354,0.5821729,11.162485,-8.929951
1570715210,-4.5531006,9.243118,-4.945038,-1.1764984,-0.95454407,0.23500061,-6.6245885,2.919344,-8.980237
1570715210,0.72132874,-1.4960632,-7.144104,3.2017365,-1.401947,-0.45317078,1.065934,-12.286603,-8.153798
1570715210,-10.57811,28.172882,-20.21405,3.0376892,-3.7061157,-2.3408203,-7.470276,11.745107,-18.437748
1570715210,5.731201,27.531235,0.9937897,4.0305176,4.4346313,-0.86434937,4.7805166,18.23479,-3.14853
1570715210,5.5456543,22.69136,14.722137,2.843811,2.691864,1.022232,8.288828,13.4393,16.021551
1570715210,-9.123627,13.614929,9.35553,2.460312,-2.5396576,0.87628174,-7.770724,6.3710003,13.632156
1570715210,-5.9596863,6.704071,8.419403,1.3247375,-0.22377014,-0.7375946,-6.217251,-2.9949093,9.92823
1570715210,5.5635986,4.2380524,4.1589203,0.52685547,-0.88316345,-1.6941986,5.33158,-5.7989388,8.00346
1570715210,11.251038,2.885315,-0.7623596,-0.045181274,0.70088196,-0.72055054,12.274078,-7.186343,1.1932707
1570715210,6.53685,4.2188873,7.7143097,-1.1860809,0.42604065,0.72821045,8.802747,-5.95253,10.28653
1570715210,-2.1205902,0.9340515,-0.6079407,-2.2300415,0.7573395,0.6334076,0.4093625,-8.621358,2.7926245
1570715210,-4.527954,2.2592316,1.6378174,-3.1099548,1.5498962,-0.09736633,-4.145132,-8.510156,2.3568676
1570715210,-6.0207367,21.87613,2.0005493,-4.38295,1.4263306,-0.2944336,-4.7314034,7.201274,1.8440883
1570715210,-4.1257324,36.550186,2.648178,-4.0601654,-3.3481903,1.101059,-5.2725534,28.898846,1.2455436
1570715210,-6.1787567,19.520233,-2.3521118,-1.154129,-3.3822784,1.4866791,-5.5804577,9.458615,-1.9710371
1570715210,3.6961212,18.71817,7.605377,-4.56723,1.8364563,-0.42866516,2.6763458,8.36966,2.524558
1570715210,5.5659943,17.349884,-3.0787506,-2.5645447,3.1893463,-0.7045746,6.0793366,7.689597,-2.8895783
1570715210,-3.231491,11.399109,-4.9043274,-2.2108765,4.908676,-0.14103699,-1.2310796,3.2261782,-9.185329
1570715210,-6.4038086,0.82032776,-1.4363251,-1.2372131,4.1289062,-0.12294006,-4.483064,-8.023742,-6.68492
1570715210,-3.6049957,-5.985199,2.3046112,1.089325,0.9171295,-0.37965393,-2.3157673,-14.7146,-2.5283937
1570715210,1.0912323,-5.289688,0.03491211,3.3444824,-0.44534302,-0.55010986,3.3620622,-15.608698,-3.8879948
1570715210,1.2624207,2.1910095,4.878372,4.8699493,-2.26268,0.386261,3.4966512,-8.091975,0.35058093
1570715211,-3.1010132,11.306931,3.6345825,1.8797455,-6.177536,1.1255646,-1.0370355,0.6119633,2.0885124
1570715211,-0.052001953,10.403107,8.436157,-0.5213623,0.52723694,0.8123627,-0.056688786,0.92520237,4.8508396
1570715211,11.343201,-1.1668701,-20.597122,-0.033462524,-1.9654694,1.1713562,14.184489,-8.174386,-8.359516
1570715211,-15.702896,29.330475,28.105728,-1.4598541,0.5261841,1.0009155,-14.225526,11.487374,27.135067
1570715211,-6.797653,15.015549,-7.535553,1.0019684,-3.4355469,-0.22839355,-11.689522,14.212237,-7.1032324
1570715211,0.7177429,4.0848083,-10.002777,2.9354248,-1.5894318,-1.0944519,1.270941,-7.5323286,-11.686428
1570715211,-9.4743805,32.782913,-14.688232,2.4464722,-1.0717163,-1.6611786,-8.848058,19.361523,-17.135546
1570715211,4.477829,23.409622,1.0081482,4.3160095,5.0919037,-0.5405121,5.1111546,13.752911,0.6134028
1570715211,-0.4003601,23.616714,13.180267,2.734085,1.5467072,0.7633667,3.0978427,13.561008,13.525849
1570715211,-9.005112,12.585434,10.678329,2.557251,-2.7431183,0.80703735,-8.480988,3.400671,14.112568
1570715211,-3.2338867,6.854904,5.4493866,0.9572296,-1.335907,-1.1455841,-3.1747432,-3.496314,8.376492
1570715211,7.0204773,1.4009094,3.754303,1.36203,0.2577362,-1.7783508,7.3496704,-8.025933,6.5718403
1570715211,10.33046,4.636673,-0.82341003,0.23817444,0.71899414,-0.58631897,11.75296,-5.696785,1.5988526
1570715211,4.4634705,4.7803345,7.514389,-0.73760986,0.41220093,0.6611023,7.051341,-4.8582096,10.3060255
1570715211,-2.8999023,1.5577393,-0.7910919,-1.4289703,1.2878418,0.5737457,-0.70856655,-7.8505144,2.5503724
1570715211,-4.957718,0.62519836,3.2263794,-2.809555,2.5288696,-0.18365479,-3.7713356,-9.52169,3.882831
1570715211,-4.629715,16.185104,3.0935059,-3.432724,0.70088196,-0.35090637,-3.7409348,3.0968647,4.3047237
1570715211,-0.14537048,39.99066,-6.06073,-4.56723,-1.5798492,0.8666992,-0.45621955,28.855007,-7.5527906
1570715211,-5.4652863,21.02739,3.774643,-2.3706665,-2.2850494,0.35005188,-2.7331924,10.037097,1.6476315
1570715211,-6.875473,20.860992,-7.9796906,-2.2556152,-2.9029083,0.641922,-8.124258,10.684399,-2.1742642
1570715211,2.2129211,15.972031,2.311798,-3.193039,4.686035,-0.8015137,3.5369818,5.3913717,-3.5831816
1570715211,0.90448,13.704712,0.28630066,-1.8870239,3.632492,0.032592773,2.6866994,5.492647,-2.6307282
1570715211,-3.796524,3.4754944,-5.5651245,-1.2063293,2.6503143,0.40011597,-2.7989712,-4.044262,-7.9213667
1570715211,-3.2446594,-4.5055847,1.9993439,0.32658386,1.7416382,0.11462402,-1.9641987,-13.1812105,-3.2087648
1570715211,-0.75349426,-5.4740295,-2.7363892,3.1207733,0.75201416,-0.1378479,1.6690232,-16.629322,-6.5535746
1570715211,-0.8444824,-4.7809143,-2.4502716,3.3306427,0.8159332,-0.14103699,1.6690232,-16.629322,-6.5535746
1570715222,-0.8444824,-4.7809143,-2.4502716,3.3306427,0.8159332,-0.14103699,1.6690232,-16.629322,-6.5535746
1570715222,-0.8444824,-4.7809143,-2.4502716,3.3306427,0.8159332,-0.14103699,1.6690232,-16.629322,-6.5535746
1570715222,-0.8444824,-4.7809143,-2.4502716,3.3306427,0.8159332,-0.14103699,1.6690232,-16.629322,-6.5535746
1570715222,-0.8444824,-4.7809143,-2.4502716,3.3306427,0.8159332,-0.14103699,1.6690232,-16.629322,-6.5535746
1570715222,-0.8444824,-4.7809143,-2.4502716,3.3306427,0.8159332,-0.14103699,1.6690232,-16.629322,-6.5535746
1570715222,-0.8444824,-4.7809143,-2.4502716,3.3306427,0.8159332,-0.14103699,1.6690232,-16.629322,-6.5535746
1570715222,-0.8444824,-4.7809143,-2.4502716,3.3306427,0.8159332,-0.14103699,1.6690232,-16.629322,-6.5535746
1570715222,-0.8444824,-4.7809143,-2.4502716,3.3306427,0.8159332,-0.14103699,1.6690232,-16.629322,-6.5535746
1570715222,-0.8444824,-4.7809143,-2.4502716,3.3306427,0.8159332,-0.14103699,1.6690232,-16.629322,-6.5535746
1570715222,-0.8444824,-4.7809143,-2.4502716,3.3306427,0.8159332,-0.14103699,1.6690232,-16.629322,-6.5535746
1570715222,-0.8444824,-4.7809143,-2.4502716,3.3306427,0.8159332,-0.14103699,1.6690232,-16.629322,-6.5535746
1570715222,-0.8444824,-4.7809143,-2.4502716,3.3306427,0.8159332,-0.14103699,1.6690232,-16.629322,-6.5535746
1570715222,-0.8444824,-4.7809143,-2.4502716,3.3306427,0.8159332,-0.14103699,1.6690232,-16.629322,-6.5535746
1570715222,-0.8444824,-4.7809143,-2.4502716,3.3306427,0.8159332,-0.14103699,1.6690232,-16.629322,-6.5535746
1570715222,-0.8444824,-4.7809143,-2.4502716,3.3306427,0.8159332,-0.14103699,1.6690232,-16.629322,-6.5535746
1570715222,-0.8444824,-4.7809143,-2.4502716,3.3306427,0.8159332,-0.14103699,1.6690232,-16.629322,-6.5535746
1570715222,-0.8444824,-4.7809143,-2.4502716,3.3306427,0.8159332,-0.14103699,1.6690232,-16.629322,-6.5535746
1570715222,-0.8444824,-4.7809143,-2.4502716,3.3306427,0.8159332,-0.14103699,1.6690232,-16.629322,-6.5535746
1570715222,-0.8444824,-4.7809143,-2.4502716,3.3306427,0.8159332,-0.14103699,1.6690232,-16.629322,-6.5535746
1570715222,-0.8444824,-4.7809143,-2.4502716,3.3306427,0.8159332,-0.14103699,1.6690232,-16.629322,-6.5535746
1570715222,-0.8444824,-4.7809143,-2.4502716,3.3306427,0.8159332,-0.14103699,1.6690232,-16.629322,-6.5535746
1570715222,-0.8444824,-4.7809143,-2.4502716,3.3306427,0.8159332,-0.14103699,1.6690232,-16.629322,-6.5535746
1570715222,-0.8444824,-4.7809143,-2.4502716,3.3306427,0.8159332,-0.14103699,1.6690232,-16.629322,-6.5535746
1570715222,-0.8444824,-4.7809143,-2.4502716,3.3306427,0.8159332,-0.14103699,1.6690232,-16.629322,-6.5535746
1570715222,-0.8444824,-4.7809143,-2.4502716,3.3306427,0.8159332,-0.14103699,1.6690232,-16.629322,-6.5535746
1570715222,-0.8444824,-4.7809143,-2.4502716,3.3306427,0.8159332,-0.14103699,1.6690232,-16.629322,-6.5535746
1570715222,-0.8444824,-4.7809143,-2.4502716,3.3306427,0.8159332,-0.14103699,1.6690232,-16.629322,-6.5535746
1570715222,-0.8444824,-4.7809143,-2.4502716,3.3306427,0.8159332,-0.14103699,1.6690232,-16.629322,-6.5535746
1570715222,-0.8444824,-4.7809143,-2.4502716,3.3306427,0.8159332,-0.14103699,1.6690232,-16.629322,-6.5535746
1570715222,-0.8444824,-4.7809143,-2.4502716,3.3306427,0.8159332,-0.14103699,1.6690232,-16.629322,-6.5535746
1570715222,-0.8444824,-4.7809143,-2.4502716,3.3306427,0.8159332,-0.14103699,1.6690232,-16.629322,-6.5535746
1570715222,-0.8444824,-4.7809143,-2.4502716,3.3306427,0.8159332,-0.14103699,1.6690232,-16.629322,-6.5535746
1570715222,-0.8444824,-4.7809143,-2.4502716,3.3306427,0.8159332,-0.14103699,1.6690232,-16.629322,-6.5535746
1570715222,-0.8444824,-4.7809143,-2.4502716,3.3306427,0.8159332,-0.14103699,1.6690232,-16.629322,-6.5535746
1570715222,-0.8444824,-4.7809143,-2.4502716,3.3306427,0.8159332,-0.14103699,1.6690232,-16.629322,-6.5535746
1570715222,-0.8444824,-4.7809143,-2.4502716,3.3306427,0.8159332,-0.14103699,1.6690232,-16.629322,-6.5535746
1570715222,-0.8444824,-4.7809143,-2.4502716,3.3306427,0.8159332,-0.14103699,1.6690232,-16.629322,-6.5535746
1570715222,-0.8444824,-4.7809143,-2.4502716,3.3306427,0.8159332,-0.14103699,1.6690232,-16.629322,-6.5535746
1570715222,-0.8444824,-4.7809143,-2.4502716,3.3306427,0.8159332,-0.14103699,1.6690232,-16.629322,-6.5535746
1570715222,-0.8444824,-4.7809143,-2.4502716,3.3306427,0.8159332,-0.14103699,1.6690232,-16.629322,-6.5535746
1570715222,-0.8444824,-4.7809143,-2.4502716,3.3306427,0.8159332,-0.14103699,1.6690232,-16.629322,-6.5535746
1570715222,-0.8444824,-4.7809143,-2.4502716,3.3306427,0.8159332,-0.14103699,1.6690232,-16.629322,-6.5535746
1570715222,-0.8444824,-4.7809143,-2.4502716,3.3306427,0.8159332,-0.14103699,1.6690232,-16.629322,-6.5535746
1570715222,-0.8444824,-4.7809143,-2.4502716,3.3306427,0.8159332,-0.14103699,1.6690232,-16.629322,-6.5535746
1570715222,-0.8444824,-4.7809143,-2.4502716,3.3306427,0.8159332,-0.14103699,1.6690232,-16.629322,-6.5535746
1570715222,-0.8444824,-4.7809143,-2.4502716,3.3306427,0.8159332,-0.14103699,1.6690232,-16.629322,-6.5535746
1570715222,-0.8444824,-4.7809143,-2.4502716,3.3306427,0.8159332,-0.14103699,1.6690232,-16.629322,-6.5535746
1570715222,-0.8444824,-4.7809143,-2.4502716,3.3306427,0.8159332,-0.14103699,1.6690232,-16.629322,-6.5535746
1570715222,-0.8444824,-4.7809143,-2.4502716,3.3306427,0.8159332,-0.14103699,1.6690232,-16.629322,-6.5535746
1570715222,-0.8444824,-4.7809143,-2.4502716,3.3306427,0.8159332,-0.14103699,1.6690232,-16.629322,-6.5535746
1570715222,-0.8444824,-4.7809143,-2.4502716,3.3306427,0.8159332,-0.14103699,1.6690232,-16.629322,-6.5535746
1570715222,-0.8444824,-4.7809143,-2.4502716,3.3306427,0.8159332,-0.14103699,1.6690232,-16.629322,-6.5535746
1570715222,-0.8444824,-4.7809143,-2.4502716,3.3306427,0.8159332,-0.14103699,1.6690232,-16.629322,-6.5535746
1570715222,-0.8444824,-4.7809143,-2.4502716,3.3306427,0.8159332,-0.14103699,1.6690232,-16.629322,-6.5535746
1570715222,-0.8444824,-4.7809143,-2.4502716,3.3306427,0.8159332,-0.14103699,1.6690232,-16.629322,-6.5535746
1570715222,-0.8444824,-4.7809143,-2.4502716,3.3306427,0.8159332,-0.14103699,1.6690232,-16.629322,-6.5535746
1570715222,-0.8444824,-4.7809143,-2.4502716,3.3306427,0.8159332,-0.14103699,1.6690232,-16.629322,-6.5535746
1570715222,-0.8444824,-4.7809143,-2.4502716,3.3306427,0.8159332,-0.14103699,1.6690232,-16.629322,-6.5535746
1570715222,-0.8444824,-4.7809143,-2.4502716,3.3306427,0.8159332,-0.14103699,1.6690232,-16.629322,-6.5535746
1570715222,-0.8444824,-4.7809143,-2.4502716,3.3306427,0.8159332,-0.14103699,1.6690232,-16.629322,-6.5535746
1570715222,-0.8444824,-4.7809143,-2.4502716,3.3306427,0.8159332,-0.14103699,1.6690232,-16.629322,-6.5535746
1570715222,-0.8444824,-4.7809143,-2.4502716,3.3306427,0.8159332,-0.14103699,1.6690232,-16.629322,-6.5535746
1570715222,-0.8444824,-4.7809143,-2.4502716,3.3306427,0.8159332,-0.14103699,1.6690232,-16.629322,-6.5535746
1570715222,-0.8444824,-4.7809143,-2.4502716,3.3306427,0.8159332,-0.14103699,1.6690232,-16.629322,-6.5535746
1570715222,-0.8444824,-4.7809143,-2.4502716,3.3306427,0.8159332,-0.14103699,1.6690232,-16.629322,-6.5535746
1570715222,-0.8444824,-4.7809143,-2.4502716,3.3306427,0.8159332,-0.14103699,1.6690232,-16.629322,-6.5535746
1570715222,-0.8444824,-4.7809143,-2.4502716,3.3306427,0.8159332,-0.14103699,1.6690232,-16.629322,-6.5535746
1570715222,-0.8444824,-4.7809143,-2.4502716,3.3306427,0.8159332,-0.14103699,1.6690232,-16.629322,-6.5535746
1570715222,-0.8444824,-4.7809143,-2.4502716,3.3306427,0.8159332,-0.14103699,1.6690232,-16.629322,-6.5535746
1570715222,-0.8444824,-4.7809143,-2.4502716,3.3306427,0.8159332,-0.14103699,1.6690232,-16.629322,-6.5535746
1570715222,-0.8444824,-4.7809143,-2.4502716,3.3306427,0.8159332,-0.14103699,1.6690232,-16.629322,-6.5535746
1570715222,-0.8444824,-4.7809143,-2.4502716,3.3306427,0.8159332,-0.14103699,1.6690232,-16.629322,-6.5535746
1570715222,-0.8444824,-4.7809143,-2.4502716,3.3306427,0.8159332,-0.14103699,1.6690232,-16.629322,-6.5535746
1570715222,-0.8444824,-4.7809143,-2.4502716,3.3306427,0.8159332,-0.14103699,1.6690232,-16.629322,-6.5535746
1570715222,-0.8444824,-4.7809143,-2.4502716,3.3306427,0.8159332,-0.14103699,1.6690232,-16.629322,-6.5535746
1570715222,-0.8444824,-4.7809143,-2.4502716,3.3306427,0.8159332,-0.14103699,1.6690232,-16.629322,-6.5535746
1570715222,-0.8444824,-4.7809143,-2.4502716,3.3306427,0.8159332,-0.14103699,1.6690232,-16.629322,-6.5535746
1570715222,-0.8444824,-4.7809143,-2.4502716,3.3306427,0.8159332,-0.14103699,1.6690232,-16.629322,-6.5535746
1570715222,-0.8444824,-4.7809143,-2.4502716,3.3306427,0.8159332,-0.14103699,1.6690232,-16.629322,-6.5535746
1570715222,-0.8444824,-4.7809143,-2.4502716,3.3306427,0.8159332,-0.14103699,1.6690232,-16.629322,-6.5535746
1570715222,-0.8444824,-4.7809143,-2.4502716,3.3306427,0.8159332,-0.14103699,1.6690232,-16.629322,-6.5535746
1570715222,-0.8444824,-4.7809143,-2.4502716,3.3306427,0.8159332,-0.14103699,1.6690232,-16.629322,-6.5535746
1570715222,-0.8444824,-4.7809143,-2.4502716,3.3306427,0.8159332,-0.14103699,1.6690232,-16.629322,-6.5535746
1570715222,-0.8444824,-4.7809143,-2.4502716,3.3306427,0.8159332,-0.14103699,1.6690232,-16.629322,-6.5535746
1570715222,-0.8444824,-4.7809143,-2.4502716,3.3306427,0.8159332,-0.14103699,1.6690232,-16.629322,-6.5535746
1570715222,-0.8444824,-4.7809143,-2.4502716,3.3306427,0.8159332,-0.14103699,1.6690232,-16.629322,-6.5535746
1570715222,-0.8444824,-4.7809143,-2.4502716,3.3306427,0.8159332,-0.14103699,1.6690232,-16.629322,-6.5535746
1570715222,-0.8444824,-4.7809143,-2.4502716,3.3306427,0.8159332,-0.14103699,1.6690232,-16.629322,-6.5535746
1570715222,-0.8444824,-4.7809143,-2.4502716,3.3306427,0.8159332,-0.14103699,1.6690232,-16.629322,-6.5535746
1570715222,-0.8444824,-4.7809143,-2.4502716,3.3306427,0.8159332,-0.14103699,1.6690232,-16.629322,-6.5535746
1570715222,-0.8444824,-4.7809143,-2.4502716,3.3306427,0.8159332,-0.14103699,1.6690232,-16.629322,-6.5535746
1570715222,-0.8444824,-4.7809143,-2.4502716,3.3306427,0.8159332,-0.14103699,1.6690232,-16.629322,-6.5535746
1570715222,-0.8444824,-4.7809143,-2.4502716,3.3306427,0.8159332,-0.14103699,1.6690232,-16.629322,-6.5535746
1570715222,-0.8444824,-4.7809143,-2.4502716,3.3306427,0.8159332,-0.14103699,1.6690232,-16.629322,-6.5535746
1570715222,-0.8444824,-4.7809143,-2.4502716,3.3306427,0.8159332,-0.14103699,1.6690232,-16.629322,-6.5535746
1570715222,-0.8444824,-4.7809143,-2.4502716,3.3306427,0.8159332,-0.14103699,1.6690232,-16.629322,-6.5535746
1570715222,-0.8444824,-4.7809143,-2.4502716,3.3306427,0.8159332,-0.14103699,1.6690232,-16.629322,-6.5535746
1570715222,-0.8444824,-4.7809143,-2.4502716,3.3306427,0.8159332,-0.14103699,1.6690232,-16.629322,-6.5535746
1570715222,-0.8444824,-4.7809143,-2.4502716,3.3306427,0.8159332,-0.14103699,1.6690232,-16.629322,-6.5535746
1570715222,-0.8444824,-4.7809143,-2.4502716,3.3306427,0.8159332,-0.14103699,1.6690232,-16.629322,-6.5535746
1570715222,-0.8444824,-4.7809143,-2.4502716,3.3306427,0.8159332,-0.14103699,1.6690232,-16.629322,-6.5535746
1570715222,-0.8444824,-4.7809143,-2.4502716,3.3306427,0.8159332,-0.14103699,1.6690232,-16.629322,-6.5535746
1570715222,-0.8444824,-4.7809143,-2.4502716,3.3306427,0.8159332,-0.14103699,1.6690232,-16.629322,-6.5535746
1570715222,-0.8444824,-4.7809143,-2.4502716,3.3306427,0.8159332,-0.14103699,1.6690232,-16.629322,-6.5535746
1570715222,-0.8444824,-4.7809143,-2.4502716,3.3306427,0.8159332,-0.14103699,1.6690232,-16.629322,-6.5535746
1570715222,-0.8444824,-4.7809143,-2.4502716,3.3306427,0.8159332,-0.14103699,1.6690232,-16.629322,-6.5535746
1570715222,-0.8444824,-4.7809143,-2.4502716,3.3306427,0.8159332,-0.14103699,1.6690232,-16.629322,-6.5535746
1570715222,-0.8444824,-4.7809143,-2.4502716,3.3306427,0.8159332,-0.14103699,1.6690232,-16.629322,-6.5535746
1570715222,-0.8444824,-4.7809143,-2.4502716,3.3306427,0.8159332,-0.14103699,1.6690232,-16.629322,-6.5535746
1570715222,-0.8444824,-4.7809143,-2.4502716,3.3306427,0.8159332,-0.14103699,1.6690232,-16.629322,-6.5535746
1570715222,-0.8444824,-4.7809143,-2.4502716,3.3306427,0.8159332,-0.14103699,1.6690232,-16.629322,-6.5535746
1570715222,-0.8444824,-4.7809143,-2.4502716,3.3306427,0.8159332,-0.14103699,1.6690232,-16.629322,-6.5535746
1570715222,-0.8444824,-4.7809143,-2.4502716,3.3306427,0.8159332,-0.14103699,1.6690232,-16.629322,-6.5535746
1570715222,-0.8444824,-4.7809143,-2.4502716,3.3306427,0.8159332,-0.14103699,1.6690232,-16.629322,-6.5535746
1570715222,-0.8444824,-4.7809143,-2.4502716,3.3306427,0.8159332,-0.14103699,1.6690232,-16.629322,-6.5535746
1570715222,-0.8444824,-4.7809143,-2.4502716,3.3306427,0.8159332,-0.14103699,1.6690232,-16.629322,-6.5535746
1570715222,-0.8444824,-4.7809143,-2.4502716,3.3306427,0.8159332,-0.14103699,1.6690232,-16.629322,-6.5535746
1570715222,-0.8444824,-4.7809143,-2.4502716,3.3306427,0.8159332,-0.14103699,1.6690232,-16.629322,-6.5535746
1570715222,-0.8444824,-4.7809143,-2.4502716,3.3306427,0.8159332,-0.14103699,1.6690232,-16.629322,-6.5535746
1570715222,-0.8444824,-4.7809143,-2.4502716,3.3306427,0.8159332,-0.14103699,1.6690232,-16.629322,-6.5535746
1570715222,-0.8444824,-4.7809143,-2.4502716,3.3306427,0.8159332,-0.14103699,1.6690232,-16.629322,-6.5535746
1570715222,-0.8444824,-4.7809143,-2.4502716,3.3306427,0.8159332,-0.14103699,1.6690232,-16.629322,-6.5535746
1570715222,-0.8444824,-4.7809143,-2.4502716,3.3306427,0.8159332,-0.14103699,1.6690232,-16.629322,-6.5535746
1570715222,-0.8444824,-4.7809143,-2.4502716,3.3306427,0.8159332,-0.14103699,1.6690232,-16.629322,-6.5535746
1570715222,-0.8444824,-4.7809143,-2.4502716,3.3306427,0.8159332,-0.14103699,1.6690232,-16.629322,-6.5535746
1570715222,-0.8444824,-4.7809143,-2.4502716,3.3306427,0.8159332,-0.14103699,1.6690232,-16.629322,-6.5535746
1570715222,-0.8444824,-4.7809143,-2.4502716,3.3306427,0.8159332,-0.14103699,1.6690232,-16.629322,-6.5535746
1570715222,-0.8444824,-4.7809143,-2.4502716,3.3306427,0.8159332,-0.14103699,1.6690232,-16.629322,-6.5535746
1570715222,-0.8444824,-4.7809143,-2.4502716,3.3306427,0.8159332,-0.14103699,1.6690232,-16.629322,-6.5535746
1570715222,-0.8444824,-4.7809143,-2.4502716,3.3306427,0.8159332,-0.14103699,1.6690232,-16.629322,-6.5535746
1570715222,-0.8444824,-4.7809143,-2.4502716,3.3306427,0.8159332,-0.14103699,1.6690232,-16.629322,-6.5535746
1570715222,-0.8444824,-4.7809143,-2.4502716,3.3306427,0.8159332,-0.14103699,1.6690232,-16.629322,-6.5535746
1570715222,-0.8444824,-4.7809143,-2.4502716,3.3306427,0.8159332,-0.14103699,1.6690232,-16.629322,-6.5535746
1570715222,-0.8444824,-4.7809143,-2.4502716,3.3306427,0.8159332,-0.14103699,1.6690232,-16.629322,-6.5535746
1570715222,-0.8444824,-4.7809143,-2.4502716,3.3306427,0.8159332,-0.14103699,1.6690232,-16.629322,-6.5535746
1570715222,-0.8444824,-4.7809143,-2.4502716,3.3306427,0.8159332,-0.14103699,1.6690232,-16.629322,-6.5535746
1570715222,-0.8444824,-4.7809143,-2.4502716,3.3306427,0.8159332,-0.14103699,1.6690232,-16.629322,-6.5535746
1570715222,-0.8444824,-4.7809143,-2.4502716,3.3306427,0.8159332,-0.14103699,1.6690232,-16.629322,-6.5535746
1570715222,-0.8444824,-4.7809143,-2.4502716,3.3306427,0.8159332,-0.14103699,1.6690232,-16.629322,-6.5535746
1570715222,-0.8444824,-4.7809143,-2.4502716,3.3306427,0.8159332,-0.14103699,1.6690232,-16.629322,-6.5535746
1570715222,-0.8444824,-4.7809143,-2.4502716,3.3306427,0.8159332,-0.14103699,1.6690232,-16.629322,-6.5535746
1570715222,-0.8444824,-4.7809143,-2.4502716,3.3306427,0.8159332,-0.14103699,1.6690232,-16.629322,-6.5535746
1570715222,-0.8444824,-4.7809143,-2.4502716,3.3306427,0.8159332,-0.14103699,1.6690232,-16.629322,-6.5535746
1570715222,-0.8444824,-4.7809143,-2.4502716,3.3306427,0.8159332,-0.14103699,1.6690232,-16.629322,-6.5535746
1570715222,-0.8444824,-4.7809143,-2.4502716,3.3306427,0.8159332,-0.14103699,1.6690232,-16.629322,-6.5535746
1570715222,-0.8444824,-4.7809143,-2.4502716,3.3306427,0.8159332,-0.14103699,1.6690232,-16.629322,-6.5535746
1570715222,-0.8444824,-4.7809143,-2.4502716,3.3306427,0.8159332,-0.14103699,1.6690232,-16.629322,-6.5535746
1570715222,-0.8444824,-4.7809143,-2.4502716,3.3306427,0.8159332,-0.14103699,1.6690232,-16.629322,-6.5535746
1570715222,-0.8444824,-4.7809143,-2.4502716,3.3306427,0.8159332,-0.14103699,1.6690232,-16.629322,-6.5535746
1570715222,-0.8444824,-4.7809143,-2.4502716,3.3306427,0.8159332,-0.14103699,1.6690232,-16.629322,-6.5535746
1570715222,-0.8444824,-4.7809143,-2.4502716,3.3306427,0.8159332,-0.14103699,1.6690232,-16.629322,-6.5535746
1570715222,-0.8444824,-4.7809143,-2.4502716,3.3306427,0.8159332,-0.14103699,1.6690232,-16.629322,-6.5535746
1570715222,-0.8444824,-4.7809143,-2.4502716,3.3306427,0.8159332,-0.14103699,1.6690232,-16.629322,-6.5535746
1570715222,-0.8444824,-4.7809143,-2.4502716,3.3306427,0.8159332,-0.14103699,1.6690232,-16.629322,-6.5535746
1570715222,-0.8444824,-4.7809143,-2.4502716,3.3306427,0.8159332,-0.14103699,1.6690232,-16.629322,-6.5535746
1570715222,-0.8444824,-4.7809143,-2.4502716,3.3306427,0.8159332,-0.14103699,1.6690232,-16.629322,-6.5535746
1570715222,-0.8444824,-4.7809143,-2.4502716,3.3306427,0.8159332,-0.14103699,1.6690232,-16.629322,-6.5535746
1570715222,-0.8444824,-4.7809143,-2.4502716,3.3306427,0.8159332,-0.14103699,1.6690232,-16.629322,-6.5535746
1570715222,-0.8444824,-4.7809143,-2.4502716,3.3306427,0.8159332,-0.14103699,1.6690232,-16.629322,-6.5535746
1570715222,-0.8444824,-4.7809143,-2.4502716,3.3306427,0.8159332,-0.14103699,1.6690232,-16.629322,-6.5535746
1570715222,-0.8444824,-4.7809143,-2.4502716,3.3306427,0.8159332,-0.14103699,1.6690232,-16.629322,-6.5535746
1570715222,-0.8444824,-4.7809143,-2.4502716,3.3306427,0.8159332,-0.14103699,1.6690232,-16.629322,-6.5535746
1570715222,-0.8444824,-4.7809143,-2.4502716,3.3306427,0.8159332,-0.14103699,1.6690232,-16.629322,-6.5535746
1570715222,-0.8444824,-4.7809143,-2.4502716,3.3306427,0.8159332,-0.14103699,1.6690232,-16.629322,-6.5535746
1570715222,-0.8444824,-4.7809143,-2.4502716,3.3306427,0.8159332,-0.14103699,1.6690232,-16.629322,-6.5535746
1570715222,-0.8444824,-4.7809143,-2.4502716,3.3306427,0.8159332,-0.14103699,1.6690232,-16.629322,-6.5535746
1570715222,-0.8444824,-4.7809143,-2.4502716,3.3306427,0.8159332,-0.14103699,1.6690232,-16.629322,-6.5535746
1570715222,-0.8444824,-4.7809143,-2.4502716,3.3306427,0.8159332,-0.14103699,1.6690232,-16.629322,-6.5535746
1570715222,-0.8444824,-4.7809143,-2.4502716,3.3306427,0.8159332,-0.14103699,1.6690232,-16.629322,-6.5535746
1570715222,-0.8444824,-4.7809143,-2.4502716,3.3306427,0.8159332,-0.14103699,1.6690232,-16.629322,-6.5535746
1570715222,-0.8444824,-4.7809143,-2.4502716,3.3306427,0.8159332,-0.14103699,1.6690232,-16.629322,-6.5535746
1570715222,-0.8444824,-4.7809143,-2.4502716,3.3306427,0.8159332,-0.14103699,1.6690232,-16.629322,-6.5535746
1570715222,-0.8444824,-4.7809143,-2.4502716,3.3306427,0.8159332,-0.14103699,1.6690232,-16.629322,-6.5535746
1570715222,-0.8444824,-4.7809143,-2.4502716,3.3306427,0.8159332,-0.14103699,1.6690232,-16.629322,-6.5535746
1570715222,-0.8444824,-4.7809143,-2.4502716,3.3306427,0.8159332,-0.14103699,1.6690232,-16.629322,-6.5535746
1570715222,-0.8444824,-4.7809143,-2.4502716,3.3306427,0.8159332,-0.14103699,1.6690232,-16.629322,-6.5535746
1570715222,-0.8444824,-4.7809143,-2.4502716,3.3306427,0.8159332,-0.14103699,1.6690232,-16.629322,-6.5535746
1570715222,-0.8444824,-4.7809143,-2.4502716,3.3306427,0.8159332,-0.14103699,1.6690232,-16.629322,-6.5535746
1570715222,-0.8444824,-4.7809143,-2.4502716,3.3306427,0.8159332,-0.14103699,1.6690232,-16.629322,-6.5535746
1570715222,-0.8444824,-4.7809143,-2.4502716,3.3306427,0.8159332,-0.14103699,1.6690232,-16.629322,-6.5535746
1570715222,-0.8444824,-4.7809143,-2.4502716,3.3306427,0.8159332,-0.14103699,1.6690232,-16.629322,-6.5535746
1570715222,-0.8444824,-4.7809143,-2.4502716,3.3306427,0.8159332,-0.14103699,1.6690232,-16.629322,-6.5535746
1570715222,-0.8444824,-4.7809143,-2.4502716,3.3306427,0.8159332,-0.14103699,1.6690232,-16.629322,-6.5535746
1570715222,-0.8444824,-4.7809143,-2.4502716,3.3306427,0.8159332,-0.14103699,1.6690232,-16.629322,-6.5535746
1570715222,-0.8444824,-4.7809143,-2.4502716,3.3306427,0.8159332,-0.14103699,1.6690232,-16.629322,-6.5535746
1570715222,-0.8444824,-4.7809143,-2.4502716,3.3306427,0.8159332,-0.14103699,1.6690232,-16.629322,-6.5535746
1570715222,-0.8444824,-4.7809143,-2.4502716,3.3306427,0.8159332,-0.14103699,1.6690232,-16.629322,-6.5535746
1570715222,-0.8444824,-4.7809143,-2.4502716,3.3306427,0.8159332,-0.14103699,1.6690232,-16.629322,-6.5535746
1570715222,-0.8444824,-4.7809143,-2.4502716,3.3306427,0.8159332,-0.14103699,1.6690232,-16.629322,-6.5535746
1570715222,-0.8444824,-4.7809143,-2.4502716,3.3306427,0.8159332,-0.14103699,1.6690232,-16.629322,-6.5535746
1570715222,-0.8444824,-4.7809143,-2.4502716,3.3306427,0.8159332,-0.14103699,1.6690232,-16.629322,-6.5535746
1570715222,-0.8444824,-4.7809143,-2.4502716,3.3306427,0.8159332,-0.14103699,1.6690232,-16.629322,-6.5535746
1570715222,-0.8444824,-4.7809143,-2.4502716,3.3306427,0.8159332,-0.14103699,1.6690232,-16.629322,-6.5535746
1570715222,-0.8444824,-4.7809143,-2.4502716,3.3306427,0.8159332,-0.14103699,1.6690232,-16.629322,-6.5535746
1570715222,-0.8444824,-4.7809143,-2.4502716,3.3306427,0.8159332,-0.14103699,1.6690232,-16.629322,-6.5535746
1570715222,-0.8444824,-4.7809143,-2.4502716,3.3306427,0.8159332,-0.14103699,1.6690232,-16.629322,-6.5535746
1570715222,-0.8444824,-4.7809143,-2.4502716,3.3306427,0.8159332,-0.14103699,1.6690232,-16.629322,-6.5535746
1570715222,-0.8444824,-4.7809143,-2.4502716,3.3306427,0.8159332,-0.14103699,1.6690232,-16.629322,-6.5535746
1570715222,-0.8444824,-4.7809143,-2.4502716,3.3306427,0.8159332,-0.14103699,1.6690232,-16.629322,-6.5535746
1570715222,-0.8444824,-4.7809143,-2.4502716,3.3306427,0.8159332,-0.14103699,1.6690232,-16.629322,-6.5535746
1570715222,-0.8444824,-4.7809143,-2.4502716,3.3306427,0.8159332,-0.14103699,1.6690232,-16.629322,-6.5535746
1570715222,-0.8444824,-4.7809143,-2.4502716,3.3306427,0.8159332,-0.14103699,1.6690232,-16.629322,-6.5535746
1570715222,-0.8444824,-4.7809143,-2.4502716,3.3306427,0.8159332,-0.14103699,1.6690232,-16.629322,-6.5535746
1570715222,-0.8444824,-4.7809143,-2.4502716,3.3306427,0.8159332,-0.14103699,1.6690232,-16.629322,-6.5535746
1570715222,-0.8444824,-4.7809143,-2.4502716,3.3306427,0.8159332,-0.14103699,1.6690232,-16.629322,-6.5535746
1570715222,-0.8444824,-4.7809143,-2.4502716,3.3306427,0.8159332,-0.14103699,1.6690232,-16.629322,-6.5535746
1570715222,-0.8444824,-4.7809143,-2.4502716,3.3306427,0.8159332,-0.14103699,1.6690232,-16.629322,-6.5535746
1570715222,-0.8444824,-4.7809143,-2.4502716,3.3306427,0.8159332,-0.14103699,1.6690232,-16.629322,-6.5535746
1570715222,-0.8444824,-4.7809143,-2.4502716,3.3306427,0.8159332,-0.14103699,1.6690232,-16.629322,-6.5535746
1570715222,-0.8444824,-4.7809143,-2.4502716,3.3306427,0.8159332,-0.14103699,1.6690232,-16.629322,-6.5535746
1570715222,-0.8444824,-4.7809143,-2.4502716,3.3306427,0.8159332,-0.14103699,1.6690232,-16.629322,-6.5535746
1570715222,-0.8444824,-4.7809143,-2.4502716,3.3306427,0.8159332,-0.14103699,1.6690232,-16.629322,-6.5535746
1570715222,-0.8444824,-4.7809143,-2.4502716,3.3306427,0.8159332,-0.14103699,1.6690232,-16.629322,-6.5535746
1570715222,-0.8444824,-4.7809143,-2.4502716,3.3306427,0.8159332,-0.14103699,1.6690232,-16.629322,-6.5535746
1570715222,-0.8444824,-4.7809143,-2.4502716,3.3306427,0.8159332,-0.14103699,1.6690232,-16.629322,-6.5535746
1570715222,-0.8444824,-4.7809143,-2.4502716,3.3306427,0.8159332,-0.14103699,1.6690232,-16.629322,-6.5535746
1570715222,-0.8444824,-4.7809143,-2.4502716,3.3306427,0.8159332,-0.14103699,1.6690232,-16.629322,-6.5535746
1570715222,-0.8444824,-4.7809143,-2.4502716,3.3306427,0.8159332,-0.14103699,1.6690232,-16.629322,-6.5535746
1570715222,-0.8444824,-4.7809143,-2.4502716,3.3306427,0.8159332,-0.14103699,1.6690232,-16.629322,-6.5535746
1570715222,-0.8444824,-4.7809143,-2.4502716,3.3306427,0.8159332,-0.14103699,1.6690232,-16.629322,-6.5535746
1570715222,-0.8444824,-4.7809143,-2.4502716,3.3306427,0.8159332,-0.14103699,1.6690232,-16.629322,-6.5535746
1570715222,-0.8444824,-4.7809143,-2.4502716,3.3306427,0.8159332,-0.14103699,1.6690232,-16.629322,-6.5535746
1570715222,-0.8444824,-4.7809143,-2.4502716,3.3306427,0.8159332,-0.14103699,1.6690232,-16.629322,-6.5535746
1570715222,-0.8444824,-4.7809143,-2.4502716,3.3306427,0.8159332,-0.14103699,1.6690232,-16.629322,-6.5535746
1570715222,-0.8444824,-4.7809143,-2.4502716,3.3306427,0.8159332,-0.14103699,1.6690232,-16.629322,-6.5535746
1570715222,-0.8444824,-4.7809143,-2.4502716,3.3306427,0.8159332,-0.14103699,1.6690232,-16.629322,-6.5535746
1570715222,-0.8444824,-4.7809143,-2.4502716,3.3306427,0.8159332,-0.14103699,1.6690232,-16.629322,-6.5535746
1570715222,-0.8444824,-4.7809143,-2.4502716,3.3306427,0.8159332,-0.14103699,1.6690232,-16.629322,-6.5535746
1570715222,-0.8444824,-4.7809143,-2.4502716,3.3306427,0.8159332,-0.14103699,1.6690232,-16.629322,-6.5535746
1570715222,-0.8444824,-4.7809143,-2.4502716,3.3306427,0.8159332,-0.14103699,1.6690232,-16.629322,-6.5535746
1570715222,-0.8444824,-4.7809143,-2.4502716,3.3306427,0.8159332,-0.14103699,1.6690232,-16.629322,-6.5535746
1570715222,-0.8444824,-4.7809143,-2.4502716,3.3306427,0.8159332,-0.14103699,1.6690232,-16.629322,-6.5535746
1570715222,-0.8444824,-4.7809143,-2.4502716,3.3306427,0.8159332,-0.14103699,1.6690232,-16.629322,-6.5535746
1570715222,-0.8444824,-4.7809143,-2.4502716,3.3306427,0.8159332,-0.14103699,1.6690232,-16.629322,-6.5535746
1570715222,-0.8444824,-4.7809143,-2.4502716,3.3306427,0.8159332,-0.14103699,1.6690232,-16.629322,-6.5535746
1570715222,-0.8444824,-4.7809143,-2.4502716,3.3306427,0.8159332,-0.14103699,1.6690232,-16.629322,-6.5535746
1570715222,-0.8444824,-4.7809143,-2.4502716,3.3306427,0.8159332,-0.14103699,1.6690232,-16.629322,-6.5535746
1570715222,-0.8444824,-4.7809143,-2.4502716,3.3306427,0.8159332,-0.14103699,1.6690232,-16.629322,-6.5535746
1570715222,-0.8444824,-4.7809143,-2.4502716,3.3306427,0.8159332,-0.14103699,1.6690232,-16.629322,-6.5535746
1570715222,-0.8444824,-4.7809143,-2.4502716,3.3306427,0.8159332,-0.14103699,1.6690232,-16.629322,-6.5535746
1570715222,-0.8444824,-4.7809143,-2.4502716,3.3306427,0.8159332,-0.14103699,1.6690232,-16.629322,-6.5535746
1570715222,-0.8444824,-4.7809143,-2.4502716,3.3306427,0.8159332,-0.14103699,1.6690232,-16.629322,-6.5535746
1570715222,-0.8444824,-4.7809143,-2.4502716,3.3306427,0.8159332,-0.14103699,1.6690232,-16.629322,-6.5535746
1570715222,-0.8444824,-4.7809143,-2.4502716,3.3306427,0.8159332,-0.14103699,1.6690232,-16.629322,-6.5535746
1570715222,-0.8444824,-4.7809143,-2.4502716,3.3306427,0.8159332,-0.14103699,1.6690232,-16.629322,-6.5535746
1570715222,-0.8444824,-4.7809143,-2.4502716,3.3306427,0.8159332,-0.14103699,1.6690232,-16.629322,-6.5535746
1570715222,-0.8444824,-4.7809143,-2.4502716,3.3306427,0.8159332,-0.14103699,1.6690232,-16.629322,-6.5535746
1570715222,-0.8444824,-4.7809143,-2.4502716,3.3306427,0.8159332,-0.14103699,1.6690232,-16.629322,-6.5535746
1570715222,-0.8444824,-4.7809143,-2.4502716,3.3306427,0.8159332,-0.14103699,1.6690232,-16.629322,-6.5535746
1570715222,-0.8444824,-4.7809143,-2.4502716,3.3306427,0.8159332,-0.14103699,1.6690232,-16.629322,-6.5535746
1570715222,-0.8444824,-4.7809143,-2.4502716,3.3306427,0.8159332,-0.14103699,1.6690232,-16.629322,-6.5535746
1570715222,-0.8444824,-4.7809143,-2.4502716,3.3306427,0.8159332,-0.14103699,1.6690232,-16.629322,-6.5535746
1570715222,-0.8444824,-4.7809143,-2.4502716,3.3306427,0.8159332,-0.14103699,1.6690232,-16.629322,-6.5535746
1570715222,-0.8444824,-4.7809143,-2.4502716,3.3306427,0.8159332,-0.14103699,1.6690232,-16.629322,-6.5535746
1570715222,-0.8444824,-4.7809143,-2.4502716,3.3306427,0.8159332,-0.14103699,1.6690232,-16.629322,-6.5535746
1570715222,-0.8444824,-4.7809143,-2.4502716,3.3306427,0.8159332,-0.14103699,1.6690232,-16.629322,-6.5535746
1570715222,-0.8444824,-4.7809143,-2.4502716,3.3306427,0.8159332,-0.14103699,1.6690232,-16.629322,-6.5535746
1570715222,-0.8444824,-4.7809143,-2.4502716,3.3306427,0.8159332,-0.14103699,1.6690232,-16.629322,-6.5535746
1570715222,-0.8444824,-4.7809143,-2.4502716,3.3306427,0.8159332,-0.14103699,1.6690232,-16.629322,-6.5535746
1570715222,-0.8444824,-4.7809143,-2.4502716,3.3306427,0.8159332,-0.14103699,1.6690232,-16.629322,-6.5535746
1570715222,-0.8444824,-4.7809143,-2.4502716,3.3306427,0.8159332,-0.14103699,1.6690232,-16.629322,-6.5535746
1570715222,-0.8444824,-4.7809143,-2.4502716,3.3306427,0.8159332,-0.14103699,1.6690232,-16.629322,-6.5535746
1570715222,-0.8444824,-4.7809143,-2.4502716,3.3306427,0.8159332,-0.14103699,1.6690232,-16.629322,-6.5535746
1570715222,-0.8444824,-4.7809143,-2.4502716,3.3306427,0.8159332,-0.14103699,1.6690232,-16.629322,-6.5535746
1570715222,-0.8444824,-4.7809143,-2.4502716,3.3306427,0.8159332,-0.14103699,1.6690232,-16.629322,-6.5535746
1570715222,-0.8444824,-4.7809143,-2.4502716,3.3306427,0.8159332,-0.14103699,1.6690232,-16.629322,-6.5535746
1570715222,-0.8444824,-4.7809143,-2.4502716,3.3306427,0.8159332,-0.14103699,1.6690232,-16.629322,-6.5535746
1570715222,-0.8444824,-4.7809143,-2.4502716,3.3306427,0.8159332,-0.14103699,1.6690232,-16.629322,-6.5535746
1570715222,-0.8444824,-4.7809143,-2.4502716,3.3306427,0.8159332,-0.14103699,1.6690232,-16.629322,-6.5535746
1570715222,-0.8444824,-4.7809143,-2.4502716,3.3306427,0.8159332,-0.14103699,1.6690232,-16.629322,-6.5535746
1570715222,-0.8444824,-4.7809143,-2.4502716,3.3306427,0.8159332,-0.14103699,1.6690232,-16.629322,-6.5535746
1570715222,-0.8444824,-4.7809143,-2.4502716,3.3306427,0.8159332,-0.14103699,1.6690232,-16.629322,-6.5535746
1570715222,-0.8444824,-4.7809143,-2.4502716,3.3306427,0.8159332,-0.14103699,1.6690232,-16.629322,-6.5535746
1570715222,-0.8444824,-4.7809143,-2.4502716,3.3306427,0.8159332,-0.14103699,1.6690232,-16.629322,-6.5535746
1570715222,-0.8444824,-4.7809143,-2.4502716,3.3306427,0.8159332,-0.14103699,1.6690232,-16.629322,-6.5535746
1570715222,-0.8444824,-4.7809143,-2.4502716,3.3306427,0.8159332,-0.14103699,1.6690232,-16.629322,-6.5535746
1570715222,-0.8444824,-4.7809143,-2.4502716,3.3306427,0.8159332,-0.14103699,1.6690232,-16.629322,-6.5535746
1570715222,-0.8444824,-4.7809143,-2.4502716,3.3306427,0.8159332,-0.14103699,1.6690232,-16.629322,-6.5535746
1570715222,-0.8444824,-4.7809143,-2.4502716,3.3306427,0.8159332,-0.14103699,1.6690232,-16.629322,-6.5535746
1570715222,-0.8444824,-4.7809143,-2.4502716,3.3306427,0.8159332,-0.14103699,1.6690232,-16.629322,-6.5535746
1570715222,-0.8444824,-4.7809143,-2.4502716,3.3306427,0.8159332,-0.14103699,1.6690232,-16.629322,-6.5535746
1570715222,-0.8444824,-4.7809143,-2.4502716,3.3306427,0.8159332,-0.14103699,1.6690232,-16.629322,-6.5535746
1570715222,-0.8444824,-4.7809143,-2.4502716,3.3306427,0.8159332,-0.14103699,1.6690232,-16.629322,-6.5535746
1570715222,-0.8444824,-4.7809143,-2.4502716,3.3306427,0.8159332,-0.14103699,1.6690232,-16.629322,-6.5535746
1570715222,-0.8444824,-4.7809143,-2.4502716,3.3306427,0.8159332,-0.14103699,1.6690232,-16.629322,-6.5535746
1570715222,-0.8444824,-4.7809143,-2.4502716,3.3306427,0.8159332,-0.14103699,1.6690232,-16.629322,-6.5535746
1570715222,-0.8444824,-4.7809143,-2.4502716,3.3306427,0.8159332,-0.14103699,1.6690232,-16.629322,-6.5535746
1570715222,-0.8444824,-4.7809143,-2.4502716,3.3306427,0.8159332,-0.14103699,1.6690232,-16.629322,-6.5535746
1570715222,-0.8444824,-4.7809143,-2.4502716,3.3306427,0.8159332,-0.14103699,1.6690232,-16.629322,-6.5535746
1570715222,-0.8444824,-4.7809143,-2.4502716,3.3306427,0.8159332,-0.14103699,1.6690232,-16.629322,-6.5535746
1570715222,-0.8444824,-4.7809143,-2.4502716,3.3306427,0.8159332,-0.14103699,1.6690232,-16.629322,-6.5535746
1570715222,-0.8444824,-4.7809143,-2.4502716,3.3306427,0.8159332,-0.14103699,1.6690232,-16.629322,-6.5535746
1570715222,-0.8444824,-4.7809143,-2.4502716,3.3306427,0.8159332,-0.14103699,1.6690232,-16.629322,-6.5535746
1570715222,-0.8444824,-4.7809143,-2.4502716,3.3306427,0.8159332,-0.14103699,1.6690232,-16.629322,-6.5535746
1570715222,-0.8444824,-4.7809143,-2.4502716,3.3306427,0.8159332,-0.14103699,1.6690232,-16.629322,-6.5535746
1570715222,-0.8444824,-4.7809143,-2.4502716,3.3306427,0.8159332,-0.14103699,1.6690232,-16.629322,-6.5535746
1570715222,-0.8444824,-4.7809143,-2.4502716,3.3306427,0.8159332,-0.14103699,1.6690232,-16.629322,-6.5535746
1570715222,-0.8444824,-4.7809143,-2.4502716,3.3306427,0.8159332,-0.14103699,1.6690232,-16.629322,-6.5535746
1570715222,-0.8444824,-4.7809143,-2.4502716,3.3306427,0.8159332,-0.14103699,1.6690232,-16.629322,-6.5535746
1570715222,-0.8444824,-4.7809143,-2.4502716,3.3306427,0.8159332,-0.14103699,1.6690232,-16.629322,-6.5535746
1570715222,-0.8444824,-4.7809143,-2.4502716,3.3306427,0.8159332,-0.14103699,1.6690232,-16.629322,-6.5535746
1570715222,-0.8444824,-4.7809143,-2.4502716,3.3306427,0.8159332,-0.14103699,1.6690232,-16.629322,-6.5535746
1570715222,-0.8444824,-4.7809143,-2.4502716,3.3306427,0.8159332,-0.14103699,1.6690232,-16.629322,-6.5535746
1570715222,-0.8444824,-4.7809143,-2.4502716,3.3306427,0.8159332,-0.14103699,1.6690232,-16.629322,-6.5535746
1570715222,-0.8444824,-4.7809143,-2.4502716,3.3306427,0.8159332,-0.14103699,1.6690232,-16.629322,-6.5535746
1570715222,-0.8444824,-4.7809143,-2.4502716,3.3306427,0.8159332,-0.14103699,1.6690232,-16.629322,-6.5535746
1570715222,-0.8444824,-4.7809143,-2.4502716,3.3306427,0.8159332,-0.14103699,1.6690232,-16.629322,-6.5535746
1570715222,-0.8444824,-4.7809143,-2.4502716,3.3306427,0.8159332,-0.14103699,1.6690232,-16.629322,-6.5535746
1570715222,-0.8444824,-4.7809143,-2.4502716,3.3306427,0.8159332,-0.14103699,1.6690232,-16.629322,-6.5535746
1570715222,-0.8444824,-4.7809143,-2.4502716,3.3306427,0.8159332,-0.14103699,1.6690232,-16.629322,-6.5535746
1570715222,-0.8444824,-4.7809143,-2.4502716,3.3306427,0.8159332,-0.14103699,1.6690232,-16.629322,-6.5535746
1570715222,-0.8444824,-4.7809143,-2.4502716,3.3306427,0.8159332,-0.14103699,1.6690232,-16.629322,-6.5535746
1570715222,-0.8444824,-4.7809143,-2.4502716,3.3306427,0.8159332,-0.14103699,1.6690232,-16.629322,-6.5535746
1570715222,-0.8444824,-4.7809143,-2.4502716,3.3306427,0.8159332,-0.14103699,1.6690232,-16.629322,-6.5535746
1570715222,-0.8444824,-4.7809143,-2.4502716,3.3306427,0.8159332,-0.14103699,1.6690232,-16.629322,-6.5535746
1570715222,-0.8444824,-4.7809143,-2.4502716,3.3306427,0.8159332,-0.14103699,1.6690232,-16.629322,-6.5535746
1570715222,-0.8444824,-4.7809143,-2.4502716,3.3306427,0.8159332,-0.14103699,1.6690232,-16.629322,-6.5535746
1570715222,-0.8444824,-4.7809143,-2.4502716,3.3306427,0.8159332,-0.14103699,1.6690232,-16.629322,-6.5535746
1570715222,-0.8444824,-4.7809143,-2.4502716,3.3306427,0.8159332,-0.14103699,1.6690232,-16.629322,-6.5535746
1570715222,-0.8444824,-4.7809143,-2.4502716,3.3306427,0.8159332,-0.14103699,1.6690232,-16.629322,-6.5535746
1570715222,-0.8444824,-4.7809143,-2.4502716,3.3306427,0.8159332,-0.14103699,1.6690232,-16.629322,-6.5535746
1570715222,-0.8444824,-4.7809143,-2.4502716,3.3306427,0.8159332,-0.14103699,1.6690232,-16.629322,-6.5535746
1570715222,-0.8444824,-4.7809143,-2.4502716,3.3306427,0.8159332,-0.14103699,1.6690232,-16.629322,-6.5535746
1570715222,-0.8444824,-4.7809143,-2.4502716,3.3306427,0.8159332,-0.14103699,1.6690232,-16.629322,-6.5535746
1570715222,-0.8444824,-4.7809143,-2.4502716,3.3306427,0.8159332,-0.14103699,1.6690232,-16.629322,-6.5535746
1570715222,-0.8444824,-4.7809143,-2.4502716,3.3306427,0.8159332,-0.14103699,1.6690232,-16.629322,-6.5535746
1570715222,-0.8444824,-4.7809143,-2.4502716,3.3306427,0.8159332,-0.14103699,1.6690232,-16.629322,-6.5535746
1570715222,-0.8444824,-4.7809143,-2.4502716,3.3306427,0.8159332,-0.14103699,1.6690232,-16.629322,-6.5535746
1570715222,-0.8444824,-4.7809143,-2.4502716,3.3306427,0.8159332,-0.14103699,1.6690232,-16.629322,-6.5535746
1570715222,-0.8444824,-4.7809143,-2.4502716,3.3306427,0.8159332,-0.14103699,1.6690232,-16.629322,-6.5535746
1570715222,-0.8444824,-4.7809143,-2.4502716,3.3306427,0.8159332,-0.14103699,1.6690232,-16.629322,-6.5535746
1570715222,-0.8444824,-4.7809143,-2.4502716,3.3306427,0.8159332,-0.14103699,1.6690232,-16.629322,-6.5535746
1570715222,-0.8444824,-4.7809143,-2.4502716,3.3306427,0.8159332,-0.14103699,1.6690232,-16.629322,-6.5535746
1570715222,-0.8444824,-4.7809143,-2.4502716,3.3306427,0.8159332,-0.14103699,1.6690232,-16.629322,-6.5535746
1570715222,-0.8444824,-4.7809143,-2.4502716,3.3306427,0.8159332,-0.14103699,1.6690232,-16.629322,-6.5535746
1570715222,-0.8444824,-4.7809143,-2.4502716,3.3306427,0.8159332,-0.14103699,1.6690232,-16.629322,-6.5535746
1570715222,-0.8444824,-4.7809143,-2.4502716,3.3306427,0.8159332,-0.14103699,1.6690232,-16.629322,-6.5535746
1570715222,-0.8444824,-4.7809143,-2.4502716,3.3306427,0.8159332,-0.14103699,1.6690232,-16.629322,-6.5535746
1570715222,-0.8444824,-4.7809143,-2.4502716,3.3306427,0.8159332,-0.14103699,1.6690232,-16.629322,-6.5535746
1570715222,-0.8444824,-4.7809143,-2.4502716,3.3306427,0.8159332,-0.14103699,1.6690232,-16.629322,-6.5535746
1570715222,-0.8444824,-4.7809143,-2.4502716,3.3306427,0.8159332,-0.14103699,1.6690232,-16.629322,-6.5535746
1570715222,-0.8444824,-4.7809143,-2.4502716,3.3306427,0.8159332,-0.14103699,1.6690232,-16.629322,-6.5535746
1570715222,-0.8444824,-4.7809143,-2.4502716,3.3306427,0.8159332,-0.14103699,1.6690232,-16.629322,-6.5535746
1570715222,-0.8444824,-4.7809143,-2.4502716,3.3306427,0.8159332,-0.14103699,1.6690232,-16.629322,-6.5535746
1570715222,-0.8444824,-4.7809143,-2.4502716,3.3306427,0.8159332,-0.14103699,1.6690232,-16.629322,-6.5535746
1570715222,-0.8444824,-4.7809143,-2.4502716,3.3306427,0.8159332,-0.14103699,1.6690232,-16.629322,-6.5535746
1570715222,-0.8444824,-4.7809143,-2.4502716,3.3306427,0.8159332,-0.14103699,1.6690232,-16.629322,-6.5535746
1570715222,-0.8444824,-4.7809143,-2.4502716,3.3306427,0.8159332,-0.14103699,1.6690232,-16.629322,-6.5535746
1570715222,-0.8444824,-4.7809143,-2.4502716,3.3306427,0.8159332,-0.14103699,1.6690232,-16.629322,-6.5535746
1570715222,-0.8444824,-4.7809143,-2.4502716,3.3306427,0.8159332,-0.14103699,1.6690232,-16.629322,-6.5535746
1570715222,-0.8444824,-4.7809143,-2.4502716,3.3306427,0.8159332,-0.14103699,1.6690232,-16.629322,-6.5535746
1570715230,2.7947083,20.099625,-0.3577423,3.3306427,0.8159332,-0.14103699,1.7776479,-8.4833145,2.9228694
1570715230,2.7947083,20.099625,-0.3577423,3.3306427,0.8159332,-0.14103699,1.7776479,-8.4833145,2.9228694
1570715230,2.7947083,20.099625,-0.3577423,3.3306427,0.8159332,-0.14103699,1.7776479,-8.4833145,2.9228694
1570715230,2.7947083,20.099625,-0.3577423,3.3306427,0.8159332,-0.14103699,1.7776479,-8.4833145,2.9228694
1570715230,2.7947083,20.099625,-0.3577423,3.3306427,0.8159332,-0.14103699,1.7776479,-8.4833145,2.9228694
1570715230,2.7947083,20.099625,-0.3577423,3.3306427,0.8159332,-0.14103699,1.7776479,-8.4833145,2.9228694
1570715230,2.7947083,20.099625,-0.3577423,3.3306427,0.8159332,-0.14103699,1.7776479,-8.4833145,2.9228694
1570715230,2.7947083,20.099625,-0.3577423,3.3306427,0.8159332,-0.14103699,1.7776479,-8.4833145,2.9228694
1570715230,2.7947083,20.099625,-0.3577423,3.3306427,0.8159332,-0.14103699,1.7776479,-8.4833145,2.9228694
1570715230,2.7947083,20.099625,-0.3577423,3.3306427,0.8159332,-0.14103699,1.7776479,-8.4833145,2.9228694
1570715230,2.7947083,20.099625,-0.3577423,3.3306427,0.8159332,-0.14103699,1.7776479,-8.4833145,2.9228694
1570715230,2.7947083,20.099625,-0.3577423,3.3306427,0.8159332,-0.14103699,1.7776479,-8.4833145,2.9228694
1570715230,2.7947083,20.099625,-0.3577423,3.3306427,0.8159332,-0.14103699,1.7776479,-8.4833145,2.9228694
1570715230,2.7947083,20.099625,-0.3577423,3.3306427,0.8159332,-0.14103699,1.7776479,-8.4833145,2.9228694
1570715230,2.7947083,20.099625,-0.3577423,3.3306427,0.8159332,-0.14103699,1.7776479,-8.4833145,2.9228694
1570715230,2.7947083,20.099625,-0.3577423,3.3306427,0.8159332,-0.14103699,1.7776479,-8.4833145,2.9228694
1570715230,2.7947083,20.099625,-0.3577423,3.3306427,0.8159332,-0.14103699,1.7776479,-8.4833145,2.9228694
1570715230,2.7947083,20.099625,-0.3577423,3.3306427,0.8159332,-0.14103699,1.7776479,-8.4833145,2.9228694
1570715230,2.7947083,20.099625,-0.3577423,3.3306427,0.8159332,-0.14103699,1.7776479,-8.4833145,2.9228694
1570715230,2.7947083,20.099625,-0.3577423,3.3306427,0.8159332,-0.14103699,1.7776479,-8.4833145,2.9228694
1570715230,2.7947083,20.099625,-0.3577423,3.3306427,0.8159332,-0.14103699,1.7776479,-8.4833145,2.9228694
1570715230,2.7947083,20.099625,-0.3577423,3.3306427,0.8159332,-0.14103699,1.7776479,-8.4833145,2.9228694
1570715230,2.7947083,20.099625,-0.3577423,3.3306427,0.8159332,-0.14103699,1.7776479,-8.4833145,2.9228694
1570715230,2.7947083,20.099625,-0.3577423,3.3306427,0.8159332,-0.14103699,1.7776479,-8.4833145,2.9228694
1570715230,2.7947083,20.099625,-0.3577423,3.3306427,0.8159332,-0.14103699,1.7776479,-8.4833145,2.9228694
1570715230,2.7947083,20.099625,-0.3577423,3.3306427,0.8159332,-0.14103699,1.7776479,-8.4833145,2.9228694
1570715230,2.7947083,20.099625,-0.3577423,3.3306427,0.8159332,-0.14103699,1.7776479,-8.4833145,2.9228694
1570715230,2.7947083,20.099625,-0.3577423,3.3306427,0.8159332,-0.14103699,1.7776479,-8.4833145,2.9228694
1570715230,2.7947083,20.099625,-0.3577423,3.3306427,0.8159332,-0.14103699,1.7776479,-8.4833145,2.9228694
1570715230,2.7947083,20.099625,-0.3577423,3.3306427,0.8159332,-0.14103699,1.7776479,-8.4833145,2.9228694
1570715230,2.7947083,20.099625,-0.3577423,3.3306427,0.8159332,-0.14103699,1.7776479,-8.4833145,2.9228694
1570715230,2.7947083,20.099625,-0.3577423,3.3306427,0.8159332,-0.14103699,1.7776479,-8.4833145,2.9228694
1570715230,2.7947083,20.099625,-0.3577423,3.3306427,0.8159332,-0.14103699,1.7776479,-8.4833145,2.9228694
1570715230,2.7947083,20.099625,-0.3577423,3.3306427,0.8159332,-0.14103699,1.7776479,-8.4833145,2.9228694
1570715230,2.7947083,20.099625,-0.3577423,3.3306427,0.8159332,-0.14103699,1.7776479,-8.4833145,2.9228694
1570715230,2.7947083,20.099625,-0.3577423,3.3306427,0.8159332,-0.14103699,1.7776479,-8.4833145,2.9228694
1570715230,2.7947083,20.099625,-0.3577423,3.3306427,0.8159332,-0.14103699,1.7776479,-8.4833145,2.9228694
1570715230,2.7947083,20.099625,-0.3577423,3.3306427,0.8159332,-0.14103699,1.7776479,-8.4833145,2.9228694
1570715230,2.7947083,20.099625,-0.3577423,3.3306427,0.8159332,-0.14103699,1.7776479,-8.4833145,2.9228694
1570715230,2.7947083,20.099625,-0.3577423,3.3306427,0.8159332,-0.14103699,1.7776479,-8.4833145,2.9228694
1570715230,2.7947083,20.099625,-0.3577423,3.3306427,0.8159332,-0.14103699,1.7776479,-8.4833145,2.9228694
1570715230,2.7947083,20.099625,-0.3577423,3.3306427,0.8159332,-0.14103699,1.7776479,-8.4833145,2.9228694
1570715230,2.7947083,20.099625,-0.3577423,3.3306427,0.8159332,-0.14103699,1.7776479,-8.4833145,2.9228694
1570715230,2.7947083,20.099625,-0.3577423,3.3306427,0.8159332,-0.14103699,1.7776479,-8.4833145,2.9228694
1570715230,2.7947083,20.099625,-0.3577423,3.3306427,0.8159332,-0.14103699,1.7776479,-8.4833145,2.9228694
1570715230,2.7947083,20.099625,-0.3577423,3.3306427,0.8159332,-0.14103699,1.7776479,-8.4833145,2.9228694
1570715230,2.7947083,20.099625,-0.3577423,3.3306427,0.8159332,-0.14103699,1.7776479,-8.4833145,2.9228694
1570715230,2.7947083,20.099625,-0.3577423,3.3306427,0.8159332,-0.14103699,1.7776479,-8.4833145,2.9228694
1570715230,2.7947083,20.099625,-0.3577423,3.3306427,0.8159332,-0.14103699,1.7776479,-8.4833145,2.9228694
1570715230,2.7947083,20.099625,-0.3577423,3.3306427,0.8159332,-0.14103699,1.7776479,-8.4833145,2.9228694
1570715230,2.7947083,20.099625,-0.3577423,3.3306427,0.8159332,-0.14103699,1.7776479,-8.4833145,2.9228694
1570715230,2.7947083,20.099625,-0.3577423,3.3306427,0.8159332,-0.14103699,1.7776479,-8.4833145,2.9228694
1570715230,2.7947083,20.099625,-0.3577423,3.3306427,0.8159332,-0.14103699,1.7776479,-8.4833145,2.9228694
1570715230,2.7947083,20.099625,-0.3577423,3.3306427,0.8159332,-0.14103699,1.7776479,-8.4833145,2.9228694
1570715230,2.7947083,20.099625,-0.3577423,3.3306427,0.8159332,-0.14103699,1.7776479,-8.4833145,2.9228694
1570715230,2.7947083,20.099625,-0.3577423,3.3306427,0.8159332,-0.14103699,1.7776479,-8.4833145,2.9228694
1570715230,2.7947083,20.099625,-0.3577423,3.3306427,0.8159332,-0.14103699,1.7776479,-8.4833145,2.9228694
1570715230,2.7947083,20.099625,-0.3577423,3.3306427,0.8159332,-0.14103699,1.7776479,-8.4833145,2.9228694
1570715230,2.7947083,20.099625,-0.3577423,3.3306427,0.8159332,-0.14103699,1.7776479,-8.4833145,2.9228694
1570715230,2.7947083,20.099625,-0.3577423,3.3306427,0.8159332,-0.14103699,1.7776479,-8.4833145,2.9228694
1570715230,2.7947083,20.099625,-0.3577423,3.3306427,0.8159332,-0.14103699,1.7776479,-8.4833145,2.9228694
1570715230,2.7947083,20.099625,-0.3577423,3.3306427,0.8159332,-0.14103699,1.7776479,-8.4833145,2.9228694
1570715230,2.7947083,20.099625,-0.3577423,3.3306427,0.8159332,-0.14103699,1.7776479,-8.4833145,2.9228694
1570715230,2.7947083,20.099625,-0.3577423,3.3306427,0.8159332,-0.14103699,1.7776479,-8.4833145,2.9228694
1570715230,2.7947083,20.099625,-0.3577423,3.3306427,0.8159332,-0.14103699,1.7776479,-8.4833145,2.9228694
1570715230,2.7947083,20.099625,-0.3577423,3.3306427,0.8159332,-0.14103699,1.7776479,-8.4833145,2.9228694
1570715230,2.7947083,20.099625,-0.3577423,3.3306427,0.8159332,-0.14103699,1.7776479,-8.4833145,2.9228694
1570715230,2.7947083,20.099625,-0.3577423,3.3306427,0.8159332,-0.14103699,1.7776479,-8.4833145,2.9228694
1570715230,2.7947083,20.099625,-0.3577423,3.3306427,0.8159332,-0.14103699,1.7776479,-8.4833145,2.9228694
1570715230,2.7947083,20.099625,-0.3577423,3.3306427,0.8159332,-0.14103699,1.7776479,-8.4833145,2.9228694
1570715230,2.7947083,20.099625,-0.3577423,3.3306427,0.8159332,-0.14103699,1.7776479,-8.4833145,2.9228694
1570715230,2.7947083,20.099625,-0.3577423,3.3306427,0.8159332,-0.14103699,1.7776479,-8.4833145,2.9228694
1570715230,2.7947083,20.099625,-0.3577423,3.3306427,0.8159332,-0.14103699,1.7776479,-8.4833145,2.9228694
1570715230,2.7947083,20.099625,-0.3577423,3.3306427,0.8159332,-0.14103699,1.7776479,-8.4833145,2.9228694
1570715230,2.7947083,20.099625,-0.3577423,3.3306427,0.8159332,-0.14103699,1.7776479,-8.4833145,2.9228694
1570715230,2.7947083,20.099625,-0.3577423,3.3306427,0.8159332,-0.14103699,1.7776479,-8.4833145,2.9228694
1570715230,2.7947083,20.099625,-0.3577423,3.3306427,0.8159332,-0.14103699,1.7776479,-8.4833145,2.9228694
1570715230,2.7947083,20.099625,-0.3577423,3.3306427,0.8159332,-0.14103699,1.7776479,-8.4833145,2.9228694
1570715230,2.7947083,20.099625,-0.3577423,3.3306427,0.8159332,-0.14103699,1.7776479,-8.4833145,2.9228694
1570715230,2.7947083,20.099625,-0.3577423,3.3306427,0.8159332,-0.14103699,1.7776479,-8.4833145,2.9228694
1570715230,2.7947083,20.099625,-0.3577423,3.3306427,0.8159332,-0.14103699,1.7776479,-8.4833145,2.9228694
1570715230,2.7947083,20.099625,-0.3577423,3.3306427,0.8159332,-0.14103699,1.7776479,-8.4833145,2.9228694
1570715230,2.7947083,20.099625,-0.3577423,3.3306427,0.8159332,-0.14103699,1.7776479,-8.4833145,2.9228694
1570715230,2.7947083,20.099625,-0.3577423,3.3306427,0.8159332,-0.14103699,1.7776479,-8.4833145,2.9228694
1570715230,2.7947083,20.099625,-0.3577423,3.3306427,0.8159332,-0.14103699,1.7776479,-8.4833145,2.9228694
1570715230,2.7947083,20.099625,-0.3577423,3.3306427,0.8159332,-0.14103699,1.7776479,-8.4833145,2.9228694
1570715230,2.7947083,20.099625,-0.3577423,3.3306427,0.8159332,-0.14103699,1.7776479,-8.4833145,2.9228694
1570715230,2.7947083,20.099625,-0.3577423,3.3306427,0.8159332,-0.14103699,1.7776479,-8.4833145,2.9228694
1570715230,2.7947083,20.099625,-0.3577423,3.3306427,0.8159332,-0.14103699,1.7776479,-8.4833145,2.9228694
1570715230,2.7947083,20.099625,-0.3577423,3.3306427,0.8159332,-0.14103699,1.7776479,-8.4833145,2.9228694
1570715230,2.7947083,20.099625,-0.3577423,3.3306427,0.8159332,-0.14103699,1.7776479,-8.4833145,2.9228694
1570715230,2.7947083,20.099625,-0.3577423,3.3306427,0.8159332,-0.14103699,1.7776479,-8.4833145,2.9228694
1570715230,2.7947083,20.099625,-0.3577423,3.3306427,0.8159332,-0.14103699,1.7776479,-8.4833145,2.9228694
1570715230,2.7947083,20.099625,-0.3577423,3.3306427,0.8159332,-0.14103699,1.7776479,-8.4833145,2.9228694
1570715230,2.7947083,20.099625,-0.3577423,3.3306427,0.8159332,-0.14103699,1.7776479,-8.4833145,2.9228694
1570715230,2.7947083,20.099625,-0.3577423,3.3306427,0.8159332,-0.14103699,1.7776479,-8.4833145,2.9228694
1570715230,2.7947083,20.099625,-0.3577423,3.3306427,0.8159332,-0.14103699,1.7776479,-8.4833145,2.9228694
1570715230,2.7947083,20.099625,-0.3577423,3.3306427,0.8159332,-0.14103699,1.7776479,-8.4833145,2.9228694
1570715230,2.7947083,20.099625,-0.3577423,3.3306427,0.8159332,-0.14103699,1.7776479,-8.4833145,2.9228694
1570715230,2.7947083,20.099625,-0.3577423,3.3306427,0.8159332,-0.14103699,1.7776479,-8.4833145,2.9228694
1570715230,2.7947083,20.099625,-0.3577423,3.3306427,0.8159332,-0.14103699,1.7776479,-8.4833145,2.9228694
1570715230,2.7947083,20.099625,-0.3577423,3.3306427,0.8159332,-0.14103699,1.7776479,-8.4833145,2.9228694
1570715230,2.7947083,20.099625,-0.3577423,3.3306427,0.8159332,-0.14103699,1.7776479,-8.4833145,2.9228694
1570715230,2.7947083,20.099625,-0.3577423,3.3306427,0.8159332,-0.14103699,1.7776479,-8.4833145,2.9228694
