time,ax,ay,az,gx,gy,gz,la_x,la_y,la_z,fox,foy,foz
1570715193,-6.8180847,2.4474792,-0.76374817,0.85697937,-0.8547516,0.41712952,1.8183498,-2.025632,-0.101014435
1570715193,-7.610565,3.4482422,3.0968933,1.106247,-1.3479614,0.7196655,1.7670631,-1.3070002,2.542842
1570715193,-9.157227,2.0847473,4.664505,-1.078598,0.71759033,0.88264465,-1.1185541,-4.4127893,5.7386537
1570715193,-9.695923,4.906311,-1.1498108,-0.98165894,0.83369446,0.19874573,-1.0445366,0.35401726,-0.5242199
1570715193,-9.645035,3.3662415,-0.72784424,-0.115600586,-0.038757324,-0.34773254,-1.0476542,-1.163878,-0.66720986
1570715193,-10.824188,3.8947601,0.5524597,0.2870636,0.14447021,-0.2529297,-2.249731,-0.6787758,1.1654366
1570715193,-10.387238,3.956421,0.2962799,-0.16886902,0.09654236,-0.3882141,-1.8053865,-0.6896224,0.8863449
1570715193,-9.584595,4.0025024,2.0063477,0.31263733,0.13807678,-0.85479736,-1.0418453,-0.32011843,2.5013614
1570715193,-6.3470306,2.4923706,0.19273376,0.67907715,-0.04940796,-1.0859528,1.5761452,-1.3896723,1.020107
1570715193,-3.6625366,2.395996,-0.45489502,1.3629761,-0.67471313,-0.30511475,5.0036793,-1.4800777,-0.2170654
1570715193,-3.739746,4.035431,2.770691,1.582428,-0.673645,0.7782593,5.30744,0.2554252,2.9542725
1570715193,-5.4617767,5.8454437,-0.58477783,1.8103943,0.033691406,1.3737335,3.1795864,1.1537108,0.47797063
1570715194,-6.4619446,5.8604126,-0.8373718,1.2990723,-0.2049408,1.2629547,1.9793549,0.78964186,-1.4239008
1570715194,-8.692154,4.506485,-0.7362213,0.095321655,0.42463684,0.8805237,-0.13940144,0.09492302,-0.10746449
1570715194,-10.888229,4.153946,-1.4161682,-0.40641785,0.77723694,1.7476501,-3.261407,-1.6038051,-0.1642375
1570715194,-11.32457,5.2588654,0.3501587,0.015426636,0.9466095,2.512497,-3.253046,-0.38498878,1.5887458
1570715194,-9.716873,5.3582306,0.4405365,0.53100586,2.433731,1.952179,-2.3074822,-0.6978941,4.004436
1570715194,-8.470688,7.688385,-3.4290924,-1.1521149,-0.896286,1.3407135,-1.1054635,1.1228299,-4.2249656
1570715194,-8.961502,7.400482,2.735382,-0.97421265,-0.7375641,0.9902344,-2.0958304,0.8148608,3.786233
1570715194,-7.944565,6.3272705,1.0696106,-0.694046,-1.3128052,0.2594757,-1.1602178,-0.47967386,2.0035243
1570715194,-8.605957,6.30394,1.470047,-0.9997711,-2.615631,0.08157349,-1.9487834,-0.77926207,1.9128156
1570715194,-5.6419373,7.284958,0.8840637,-1.8807526,-1.8390503,0.94763184,1.367207,0.49151564,-0.27072895
1570715194,-10.838547,1.26474,4.9470215,-0.83039856,-0.77485657,3.1026611,-4.147715,-5.201941,5.3427525
1570715194,-4.234741,1.7998352,2.8832245,-0.82081604,-0.2645874,5.5975037,0.50499964,-6.3507047,1.2345078
1570715194,2.3780365,1.3108215,2.2972412,0.039916992,-1.6888428,6.52536,6.2137165,-7.172333,0.6857295
1570715194,5.008667,2.1074982,-4.5849,0.055908203,-3.000183,5.743454,6.529623,-6.5747814,-4.498931
1570715194,5.2349243,4.067154,-1.2048798,-1.6815491,-4.6939545,3.9229126,5.961052,-4.9987926,-5.4523168
1570715194,5.546173,10.981003,11.908157,-1.7497253,-3.1173706,2.4944,5.3484287,-0.5514059,6.8350687
1570715194,19.612701,19.612701,10.063431,0.16668701,2.6031036,1.0637512,15.352807,10.835372,9.675453
1570715194,2.7120361,8.071457,3.250122,-1.2959137,-1.0624695,-1.2819672,0.834098,-0.67551804,-1.4013999
1570715194,2.1733398,5.6185913,3.008316,-1.205368,-0.6097412,-1.1147156,0.59663224,-3.0836077,0.02906847
1570715194,2.82695,5.4216766,3.3800201,-0.8868561,-0.76846313,-0.8888855,1.2321801,-3.189536,-1.2732201
1570715194,2.3690643,5.3061523,4.432266,-0.18591309,-0.27098083,-0.7131195,1.4015832,-3.311204,0.54583144
1570715194,0.6584015,5.0344086,6.8126984,0.12940979,0.41078186,-0.5458679,-0.16001213,-3.3374033,2.9610264
1570715194,-1.1988983,4.394562,6.9276276,0.17094421,0.4320984,-0.20498657,-1.7500515,-4.0548334,3.0432775
1570715194,2.5049286,1.114502,4.0264435,0.6407318,2.1578217,0.918869,0.10403186,-6.8599157,2.1907878
1570715194,3.1363983,1.0522461,3.1795044,0.6684265,2.272873,0.9923706,1.4825253,-7.281287,0.6706903
1570715194,7.7410583,6.6355286,2.553421,1.4439392,2.7330627,1.5420532,6.858546,-2.479146,-1.0131259
1570715194,9.80127,13.843277,1.2503662,1.4481964,1.7167969,1.380127,9.29538,4.5682507,-1.8532138
1570715194,0.50756836,7.379532,-3.5075073,0.41809082,0.07096863,1.5441742,-0.88331413,-1.6658669,-6.3192997
1570715194,0.40641785,7.379532,-3.5075073,0.41809082,0.07096863,1.5441742,-0.88331413,-1.6658669,-6.3192997
1570715194,-0.2340393,19.612701,4.7848053,1.3949432,-4.1069946,1.3556213,-2.4038925,10.924011,2.624538
1570715194,-0.2340393,19.612701,4.7848053,1.3949432,-4.1069946,1.3556213,-2.4038925,10.924011,2.624538
1570715194,4.1455536,17.457916,6.3147125,2.1683197,-1.0550079,-0.7120514,0.17145705,8.477511,4.1692686
1570715195,-0.46028137,11.514313,3.6978455,4.849594,2.6020355,-1.4289703,-1.992176,2.6112652,3.7322872
1570715195,-0.46028137,11.514313,3.6978455,4.849594,2.6020355,-1.4289703,-1.992176,2.6112652,3.7322872
1570715195,0.62667847,11.795639,-7.3591766,5.041336,-2.0957794,-0.9442749,0.5589323,2.4026937,-1.754205
1570715195,6.001068,6.019623,14.951187,0.020751953,-2.501648,1.0232697,3.6308548,-2.8708172,16.519629
1570715195,-1.8710632,2.5965118,-0.6979065,0.018615723,1.0030823,0.72499084,-3.5164576,-5.5275908,1.7910366
1570715195,-2.3972015,1.7872772,-0.010772705,-0.13903809,0.6462097,0.7324524,-4.2105303,-6.0659904,1.4384029
1570715195,-4.786606,2.7802734,1.877655,-1.345993,-0.17085266,0.065597534,-7.1502743,-5.81979,5.4612217
1570715195,-4.3143463,1.0396881,-2.0266876,-1.8956604,-0.7141266,-0.24653625,-7.1940603,-7.4154577,-0.34165025
1570715195,0.11013794,4.6124268,-3.0178986,-3.3337708,-1.4225311,-0.26358032,-2.8189962,-5.6197567,-1.5162991
1570715195,5.0062714,19.595947,-1.3545227,-4.6493683,-2.5293427,-1.4161987,1.8385081,9.909515,-2.7627292
1570715195,4.000107,19.612701,5.577286,-3.9377747,-2.9479828,-1.8593445,3.5434322,10.723729,1.1795446
1570715195,19.612701,19.59056,-4.194641,-1.0327911,3.196457,1.7391205,11.149515,10.751509,0.6732795
1570715195,4.427475,17.21611,0.23942566,-2.2642365,-1.2840424,-0.24972534,7.0320272,9.911822,-3.6058283
1570715195,3.5913086,18.309052,6.835449,-1.6495819,0.4225006,-0.072891235,0.4393983,10.663985,3.7722566
1570715195,3.7493134,17.243637,6.4463806,-1.4738159,0.524765,-0.17729187,1.2282734,9.84825,3.9425144
1570715195,6.5331726,6.230316,1.5406647,-1.7007141,-3.6830292,-0.49794006,3.6449013,-1.696516,-5.3485966
1570715195,6.285385,-0.53271484,10.390244,-0.28071594,-1.6387787,-0.7503967,3.7622468,-7.879594,4.8556724
1570715195,2.795227,-2.4301147,3.1286163,1.5376892,1.0339661,-0.39672852,1.2220201,-11.179252,0.2614584
1570715195,2.795227,-2.4301147,3.1286163,1.5376892,1.0339661,-0.39672852,1.2220201,-11.179252,0.2614584
1570715195,-0.63446045,-2.2110443,2.6036987,1.8615265,0.60466003,-0.32962036,-2.1460307,-10.8602495,-0.37835288
1570715195,-3.9366608,0.78948975,3.9588165,0.8537903,0.9327698,-0.06863403,-5.710977,-7.764579,1.7648904
1570715195,3.9462433,-0.040100098,-5.3109436,-0.91348267,2.6691437,0.46507263,0.89808214,-8.940985,-6.5308914
1570715195,3.9462433,-0.040100098,-5.3109436,-0.91348267,2.6691437,0.46507263,0.89808214,-8.940985,-6.5308914
1570715195,16.699554,16.596008,-7.2909393,1.9755096,3.4808807,0.94869995,17.74012,10.999789,-9.569326
1570715195,12.674301,13.190262,-7.0886383,1.8700409,3.465973,0.93058777,17.74012,10.999789,-9.569326
1570715195,6.2919617,17.144287,-15.679031,0.4596405,-0.4222412,1.9724121,2.8431203,5.517624,-15.778921
1570715195,6.632538,19.612701,-7.071869,-1.0168152,-2.1575623,1.366272,5.514838,11.11347,-12.915445
1570715195,-1.388031,19.456482,13.333313,4.239197,-4.234833,-0.4702301,-4.0078535,10.971375,12.929417
1570715195,-1.388031,19.456482,13.333313,4.239197,-4.234833,-0.4702301,-4.0078535,10.971375,12.929417
1570715195,1.6633759,13.436264,9.182968,3.3220062,5.320587,-1.4769135,-2.4353938,6.0664597,11.453272
1570715195,4.2981873,7.246643,8.54071,3.2783203,6.3773346,-2.0873108,1.6670687,-0.5835295,11.582207
1570715195,-3.0849304,1.6400299,-1.3311768,0.4170227,-1.9679413,-0.30725098,-5.943342,-6.9879026,-0.73340654
1570715195,2.4241333,2.3989868,7.4375916,-0.69937134,-1.6835175,0.28077698,-1.0723741,-5.9907618,7.7106943
1570715195,0.27893066,1.5077515,6.950363,-0.83039856,0.9327698,0.0592041,-1.9929426,-6.990506,9.65613
1570715196,-0.71287537,-1.0618286,0.13467407,-0.647171,0.25845337,-0.053710938,-2.7585034,-9.284187,2.340888
1570715196,-0.75956726,3.6343994,1.2880859,-1.7156372,-0.6598053,-0.18580627,-3.3007607,-6.3224354,2.065168
1570715196,-0.75956726,3.6343994,1.2880859,-1.7156372,-0.6598053,-0.18580627,-3.3007607,-6.3224354,2.065168
1570715196,6.183029,19.612106,-0.8882446,-3.736435,-1.3937683,-1.4651947,1.300672,10.924701,-3.2367895
1570715196,3.652954,17.553696,0.98402405,-2.8320312,-3.1610413,-2.6231384,3.7502513,10.823419,-0.14586085
1570715196,2.6952667,18.971054,-1.2084808,-2.7681122,-2.7999115,-1.8167267,0.9968853,7.77485,-1.7556365
1570715196,19.612701,19.612701,-7.585434,-1.2277374,-0.6587372,1.9617615,16.28189,10.793648,-5.180821
1570715196,3.973175,17.740433,4.491516,-1.7529144,0.15512085,0.024047852,1.561684,8.864938,0.9770613
1570715196,3.973175,17.740433,4.491516,-1.7529144,0.15512085,0.024047852,1.561684,8.864938,0.9770613
1570715196,6.664261,4.3903656,-1.0336914,-2.1502533,-2.5900574,-0.5863495,4.2397156,-3.374464,-5.7248387
1570715196,4.9075165,-3.0705566,4.767456,-0.6908417,-1.0805817,-0.82496643,3.4470935,-10.732875,1.5852816
1570715196,2.9777832,-7.083252,3.7954102,1.359787,0.552475,-0.6790314,1.6115483,-14.972163,1.5446024
1570715196,2.771881,-7.3436127,2.9700012,1.455658,0.61958313,-0.64068604,1.3321737,-15.373368,0.9658754
1570715196,0.92655945,-4.6866455,1.6849213,1.6740417,0.5418091,0.616333,-0.9360684,-13.786723,-1.0296679
1570715196,0.68174744,-1.6196747,2.3139954,1.6559296,1.7551575,0.52046204,-0.9004688,-10.596927,-1.9288063E-4
1570715196,4.8446655,9.651627,-0.6763611,0.007965088,2.0299835,0.03363037,3.848708,0.60886383,0.27452922
1570715196,4.8446655,9.651627,-0.6763611,0.007965088,2.0299835,0.03363037,3.848708,0.60886383,0.27452922
1570715196,19.612701,19.612701,-10.242401,1.8135834,3.9570465,1.2767944,12.237204,11.185183,-7.1828904
1570715196,2.98497,5.412689,-6.9683228,-0.36167908,0.8358307,1.5207367,1.2646629,-4.418887,-9.091925
1570715196,3.2561188,9.220673,-8.430588,-0.52253723,0.14128113,1.3961029,1.3091456,-3.3728828,-9.1665325
1570715196,3.3925781,19.612701,-1.6298523,1.4481964,-4.147476,1.3758698,1.4471085,11.260526,-3.3836393
1570715196,-0.8032532,17.680588,19.612701,5.963852,-3.6244354,-0.5384064,-2.193723,10.588691,16.736914
1570715196,-1.1725616,17.103577,19.584564,6.4506836,-3.2420044,-0.6129761,-3.2011843,9.363808,19.642523
1570715196,4.268265,11.790848,17.014389,6.7063446,9.423996,-1.0465393,-0.36319375,3.7857409,21.130198
1570715196,-0.8379669,8.59758,-6.6504974,1.8775024,9.030914,-1.5546722,-0.17252088,0.8007002,1.6862385
1570715196,0.23582458,1.9189453,5.6658783,-0.99658203,-0.9676666,0.20407104,-2.184812,-6.6333914,9.095493
1570715196,0.23582458,1.9189453,5.6658783,-0.99658203,-0.9676666,0.20407104,-2.184812,-6.6333914,9.095493
1570715196,-0.8140259,-0.23342896,0.049682617,-1.8200226,-0.82598877,-0.2348175,-3.1486387,-9.276059,0.7928908
1570715196,-0.37528992,-0.55485535,1.8824463,-1.9180298,-1.0305176,-0.33387756,-2.7478576,-8.930676,2.2259185
1570715196,1.9895782,2.2385712,3.0735626,-2.5358887,0.15405273,-0.5916748,-0.21976805,-7.462343,4.3477645
1570715196,5.411499,19.60971,-1.241394,-4.132721,-4.0899506,-2.2194061,1.1405365,11.081705,-7.010323
1570715196,-1.822586,19.612701,8.644867,-4.082657,-2.2971191,-2.3365784,-1.1443869,11.056142,7.547141
1570715196,0.90501404,19.612701,9.747391,-4.392639,1.4941559,-1.025238,-2.4633467,11.090023,5.8545256
1570715197,-3.0651703,15.583862,-1.1480255,-0.8932495,-3.618042,-0.8196411,-2.766088,5.449191,-9.441166
1570715197,-3.0651703,15.583862,-1.1480255,-0.8932495,-3.618042,-0.8196411,-2.766088,5.449191,-9.441166
1570715197,-4.1707,9.718063,2.0985107,-1.4557037,-1.4129486,-0.6577301,-4.799641,3.2053719,-0.4268303
1570715197,4.0905,4.7560883,1.945282,-0.9145508,-1.308548,-0.22735596,2.1446495,-2.86096,-3.428442
1570715197,3.7241821,-4.5711365,4.6597137,1.4790955,-1.7250671,0.05493164,3.7163978,-12.413394,0.1135025
1570715197,3.7241821,-4.5711365,4.6597137,1.4790955,-1.7250671,0.05493164,3.2150397,-12.733144,1.399782
1570715197,1.9267273,-3.640976,0.52671814,1.7933502,1.4739227,0.37345886,1.4168591,-12.860143,-1.6338248
1570715197,1.8872223,-3.1495667,0.6003418,1.6804352,1.5644684,0.35960388,1.2467542,-12.236127,-1.602907
1570715197,3.6936493,9.117126,5.4659576,-0.13796997,2.7671509,-0.34666443,2.6699162,-0.21219349,6.1306944
1570715197,3.6936493,9.117126,5.4659576,-0.13796997,2.7671509,-0.34666443,2.6699162,-0.21219349,6.1306944
1570715197,7.198166,9.820419,-3.454834,-0.57580566,2.0267944,1.4216766,8.950205,5.511861,-5.86633
1570715197,7.198166,9.820419,-3.454834,-0.57580566,2.0267944,1.4216766,8.950205,5.511861,-5.86633
1570715197,0.6356659,6.624756,-6.7498474,-0.4650116,-0.5298462,1.4887848,-0.10785037,-4.1663465,-7.5914
1570715197,6.099228,19.612701,-0.60095215,2.7744598,-4.8516235,1.4759979,2.8167346,11.31978,-2.4036636
1570715197,6.099228,19.612701,-0.60095215,2.7744598,-4.8516235,1.4759979,2.8167346,11.31978,-2.4036636
1570715197,3.2597046,10.839157,19.612701,8.068817,4.2766266,-1.2468109,-0.5349293,3.929102,21.145697
1570715197,3.2597046,10.839157,19.612701,8.068817,4.2766266,-1.2468109,-0.5349293,3.929102,21.145697
1570715197,-4.8015747,4.0898895,-8.386887,0.42555237,2.9237518,-1.9062195,-3.9877136,-2.824523,-6.921153
1570715197,-6.837845,1.9201508,0.2280426,-0.2839203,-2.3503723,-0.2156372,-9.468718,-6.709258,-2.0293987
1570715197,-1.0845795,0.12150574,3.7930145,-0.7196045,-0.54156494,0.65148926,-3.0444777,-7.9639416,6.369172
1570715197,-2.62883,0.6260834,2.554016,-1.6879425,-1.7303925,0.022979736,-5.305933,-8.368104,2.6066794
1570715197,-2.62883,0.6260834,2.554016,-1.6879425,-1.7303925,0.022979736,-5.305933,-8.368104,2.6066794
1570715197,1.7800903,4.525635,-0.7577667,-2.9715729,-0.44781494,-0.50538635,0.035357,-4.396264,0.08046204
1570715197,-1.2701263,9.570816,-7.6303253,-3.3295135,-1.8347931,-0.595932,-2.227571,0.35339928,-5.8225026
1570715197,5.3935394,19.612701,5.9238586,-3.9867706,-6.750992,-2.1821136,5.92875,11.2115555,1.262413
1570715197,-0.5297241,19.612701,6.393112,-4.259491,-3.125885,-1.0774384,-1.2271173,11.194595,4.713857
1570715197,17.903244,19.612701,-1.577179,-0.2849884,3.1570435,-0.06542969,17.247334,11.338757,-2.396912
1570715197,6.7229156,12.667725,2.0727844,-0.13796997,0.74635315,-0.69607544,6.846891,4.793847,-0.637084
1570715197,-3.6906586,13.030441,3.134613,-1.6538544,-2.059555,-1.4300385,-5.038412,6.2340965,-1.4904678
1570715197,0.12509155,7.941574,3.3734283,-1.4237518,-1.0028229,-1.1200409,-2.7337284,0.7385559,1.3510745
1570715197,3.1322174,-3.1513672,3.0053253,1.1946716,-0.97724915,0.027236938,2.6587236,-11.200645,0.25664592
1570715197,2.980774,-3.2351685,2.9939423,1.2713623,-0.86647034,0.07836914,2.2704585,-11.362192,0.21383381
1570715197,2.6820984,-3.1459808,-0.0975647,1.9254456,0.16471863,0.7185974,1.4455786,-11.629943,-1.8979728
1570715198,2.4618378,-2.2667084,1.2683258,1.8998718,0.9466095,0.43736267,1.5725428,-10.766905,-1.4935343
1570715198,0.97802734,-1.3605042,2.185913,1.2074585,2.8875275,-0.3679657,0.1356771,-9.818185,0.5437859
1570715198,0.8529358,7.595001,10.035889,-1.0860596,2.9333344,-0.12722778,-0.9154871,-2.991806,5.8536606
1570715198,15.476715,19.612701,-11.742966,-0.10282898,4.914734,2.0693512,-0.13661784,11.331179,-6.5455036
1570715198,2.8137817,4.423294,-7.881119,-1.443985,2.159958,1.0584106,2.4854102,-2.1145306,-10.416026
1570715198,2.5899353,3.5446167,-6.973709,-1.4951172,1.8808594,1.1148834,2.4854102,-2.1145306,-10.416026
1570715198,3.351883,19.612701,-3.8295288,1.0455322,-6.581604,1.446167,1.674518,11.291154,-8.925418
1570715198,4.0653534,19.612701,-0.4219818,3.6650238,-3.312317,0.5609436,1.6135402,11.407915,-0.7756414
1570715198,4.0653534,19.612701,-0.4219818,3.6650238,-3.312317,0.5609436,1.6135402,11.407915,-0.7756414
1570715198,2.858673,19.6109,2.2475586,3.76622,-1.0337067,-0.9890137,0.23298049,10.898067,0.56898874
1570715198,7.6632385,11.857285,19.612701,10.028915,3.5373383,-1.4481506,1.8975832,4.202181,21.109911
1570715198,-6.392517,3.1932678,-7.459732,-1.2756805,1.1500854,-0.6854248,-7.1566896,-4.7444706,-6.97947
1570715198,-2.652771,3.4727936,7.1053925,-0.8421173,-0.05366516,0.46932983,-4.904602,-4.0169516,9.952796
1570715198,-2.652771,3.4727936,7.1053925,-0.8421173,-0.05366516,0.46932983,-4.904602,-4.0169516,9.952796
1570715198,-0.23643494,0.83917236,0.7775116,-2.4059296,-1.3042908,-0.54374695,-2.4563537,-6.962634,1.5616444
1570715198,-0.23643494,0.83917236,0.7775116,-2.4059296,-1.3042908,-0.54374695,-2.4563537,-6.962634,1.5616444
1570715198,1.4347229,2.1200714,-0.02394104,-3.022705,-0.3306427,-0.46917725,-0.25979328,-7.1780767,0.3716053
1570715198,1.4347229,2.1200714,-0.02394104,-3.022705,-0.3306427,-0.46917725,-0.25979328,-7.1780767,0.3716053
1570715198,-0.30047607,16.678604,-10.465652,-4.2434998,-1.7548981,-0.4862213,-3.238112,2.865759,-9.900511
1570715198,2.0566254,19.612701,14.090469,-3.2229767,-2.3354645,-1.359726,-0.1601305,11.47253,11.723108
1570715198,7.1532745,14.35025,6.1973877,-1.3438568,1.1894989,-0.9687805,7.5849743,7.2991276,3.404324
1570715198,6.636734,13.181274,6.214752,-1.3694153,1.2661896,-0.89527893,7.5849743,7.2991276,3.404324
1570715198,1.7920532,7.0700836,4.6992188,-1.0242767,-0.6651306,-0.9133911,-0.6732205,1.9737835,1.855866
1570715198,1.7920532,7.0700836,4.6992188,-1.0242767,-0.6651306,-0.9133911,0.75253654,-0.4403944,1.5948217
1570715198,2.3151855,-6.7067566,2.9125519,0.87509155,-1.8784637,-0.23800659,2.617003,-13.592993,-2.1650517
1570715198,1.7100525,-7.2173157,3.1453857,0.9091797,-1.7975006,-0.13999939,1.9629579,-14.477993,-0.6318939
1570715198,1.8471222,-7.700348,2.048233,1.3704376,1.6369019,0.70687866,1.0863382,-16.021347,0.09037042
1570715198,2.0883484,-0.45729065,2.004547,1.5259705,4.0657043,0.57266235,1.4719479,-9.521862,0.15825653
1570715198,2.146408,0.041305542,2.2499542,1.5344849,4.1317596,0.57266235,1.4282898,-8.626188,-0.1331234
1570715198,4.6854553,19.612701,-15.854401,0.21463013,3.7983246,1.3993073,-1.9834776,11.518155,-15.32997
1570715198,8.61853,19.612701,-14.52742,-0.14117432,4.2105865,1.5367279,-1.9834776,11.518155,-15.32997
1570715198,6.170456,9.586975,-2.2044678,-0.4650116,3.3242798,0.69836426,6.036947,3.3727121,-4.2647777
1570715198,0.50457764,-0.29148865,-7.8637543,0.30303955,0.63874817,1.0136719,1.1359671,-6.154317,-8.333263
1570715199,5.645523,19.612701,-2.2804718,2.1523438,-6.0298004,1.2267303,3.535798,11.615472,-3.1384087
1570715199,5.6784515,19.612701,-2.2978363,2.3558044,-6.1139526,1.0818481,3.535798,11.615472,-3.1384087
1570715199,0.95588684,19.612701,16.70076,3.9622345,-5.5376434,-0.45851135,0.8643594,11.517248,9.528805
1570715199,9.082397,9.273346,16.118362,6.362274,10.643723,-1.3991547,5.4352927,1.266818,21.459715
1570715199,8.805283,9.275742,0.5608368,3.206955,11.552383,-1.644165,7.5231805,1.9253497,9.117632
1570715199,-3.6379852,1.0612335,5.206787,-0.54597473,-3.1269531,-0.21138,-7.0199986,-6.7473593,4.0692368
1570715199,-0.762558,1.2617493,8.936951,-0.63438416,-0.82917786,0.69836426,-2.5353806,-6.7768607,12.055216
1570715199,-4.2167816,1.3209991,2.119461,-1.5984497,-0.8898926,0.010192871,-6.2512217,-6.3663945,2.890769
1570715199,-4.1802826,1.2449799,2.4384918,-1.680481,-0.80467224,-0.028152466,-6.2512217,-6.3663945,2.890769
1570715199,2.158371,4.3664246,-3.7816467,-3.5042114,-0.6182556,-0.8345642,0.65998363,-5.3615,-1.2253829
1570715199,2.2080536,5.5371857,-4.225174,-3.6054077,-0.90693665,-0.8334961,0.40471196,-4.0517535,-3.282864
1570715199,0.54467773,19.612701,8.0074005,-4.547104,-6.942734,-1.9434967,0.36014593,11.577658,5.096561
1570715199,-0.13647461,19.612701,11.913544,-4.3319244,0.2840271,0.27119446,-2.1203675,11.633186,8.887085
1570715199,13.759476,19.612701,5.5713043,-2.1555939,6.060959,0.79956055,9.153944,11.743715,6.2683287
1570715199,5.272629,14.975739,6.454773,-0.7132263,-1.2084198,-0.37861633,5.350133,6.833191,0.27525067
1570715199,-0.83258057,19.501968,-6.250656,-0.998703,0.30426025,-0.6342926,5.671978E-4,10.285676,-2.5755944
1570715199,1.6280518,7.684189,-2.0727844,-1.2447815,-2.0446472,-0.9027405,-0.1869725,1.1484828,-3.3779707
1570715199,5.699402,-3.367447,1.241394,0.26683044,-1.419342,-0.88142395,5.2566795,-9.962854,-3.7686594
1570715199,4.4496307,-5.859207,3.182495,0.8133087,-0.46592712,-0.516037,3.6171532,-13.22954,0.26281977
1570715199,2.6587677,-7.3693542,2.2439728,1.5387573,0.97857666,0.036834717,2.0485575,-14.876887,0.48270106
1570715199,2.1254578,-5.604233,-0.3076477,1.3949432,1.6369019,0.7686615,1.3140609,-13.998174,-2.40285
1570715199,2.7329865,-2.2104492,2.0410614,1.2990723,2.3655548,0.9220581,1.7962651,-10.473358,-0.50161433
1570715199,0.88345337,6.309326,-1.8166046,0.07081604,2.1418457,0.42352295,-0.18837416,-0.7973218,-0.2583375
1570715199,1.1360474,5.652115,-3.8337097,0.029266357,1.7668762,0.4309845,-0.18837416,-0.7973218,-0.2583375
1570715199,13.651138,19.612701,-3.802597,-0.33184814,2.769287,1.125534,12.336672,11.811555,-5.707227
1570715199,0.048477173,6.4290314,-11.502945,-0.8506317,-1.1530151,0.9146118,-0.5000315,-2.3396406,-11.848629
1570715199,-0.29328918,7.0168,-12.242752,-0.9071045,-1.6068268,0.885849,-0.5000315,-2.3396406,-11.848629
1570715199,5.364212,19.606125,4.653137,1.0306244,-6.799988,1.045639,2.0024328,11.744532,0.6621287
1570715199,1.8423309,17.88649,9.898834,4.354248,-1.5034943,-0.3594513,1.0030963,10.212471,10.276281
1570715199,3.7403412,19.612701,2.7647095,4.560913,1.5165405,-0.6396179,-0.1857214,10.946161,5.5440407
1570715199,0.83976746,9.306259,17.269379,7.459488,4.6888885,-1.0753021,-4.883723,2.8378353,16.082447
1570715199,-4.7489014,5.039795,-0.23043823,-0.743042,-1.212677,0.22857666,-4.5102468,-1.728404,-1.1190548
1570715199,-2.3816376,3.1890717,7.660843,0.20184326,1.811615,0.8102112,-4.6905212,-3.1872282,12.144225
1570715199,-2.3816376,3.1890717,7.660843,0.20184326,1.811615,0.8102112,-4.6905212,-3.1872282,12.144225
1570715200,0.6536102,0.5500641,1.8704681,-1.1350708,-0.66619873,0.45228577,-1.5212893,-7.575109,3.8370063
1570715200,0.6536102,0.5500641,1.8704681,-1.1350708,-0.66619873,0.45228577,-1.5212893,-7.575109,3.8370063
1570715200,4.720764,12.41333,0.4339447,-1.5142975,1.0243835,-1.4428253,-1.2085257,3.2088013,2.0816853
1570715200,6.5176086,17.611145,-1.3018494,-1.4237518,-2.39299,-1.3341675,5.3176537,6.933708,-3.0936804
1570715200,3.5452118,15.491089,2.205658,-3.2378998,-1.5418396,-0.1602478,0.8331015,7.565837,3.0696447
1570715200,4.1688995,19.612701,3.3830109,-2.066101,-2.7860718,-0.8707733,2.6773822,11.4447565,0.6712453
1570715200,4.035431,19.612701,4.0228577,-1.9159088,-2.788208,-0.77064514,2.6773822,11.4447565,0.6712453
1570715200,7.195175,18.189941,3.4973297,-2.0224304,3.9847565,-0.9389496,8.403633,10.705609,6.983509
1570715200,7.195175,18.189941,3.4973297,-2.0224304,3.9847565,-0.9389496,8.403633,10.705609,6.983509
1570715200,-0.57699585,10.621872,-19.130875,-2.8778381,-3.45932,-1.550415,-0.35777342,5.587929,-21.773895
1570715200,1.8213959,-5.444412,-3.8732147,-1.1457214,-1.5056152,-0.9155121,0.68345964,-12.7432165,-6.682107
1570715200,1.7561493,-5.9980774,-3.9294891,-1.0754089,-1.6590271,-0.8920746,0.68345964,-12.7432165,-6.682107
1570715200,3.4997253,-13.150757,2.585144,0.013290405,-1.75383,-0.39353943,2.5845406,-19.987473,-0.7964425
1570715200,1.4676514,-8.419815,4.830902,0.85591125,1.1032104,0.47572327,-0.16475904,-19.066391,0.63560224
1570715200,2.3780365,-2.937088,4.8446655,1.3736267,2.418808,0.38197327,1.1246742,-12.291522,1.6359277
1570715200,1.5975342,5.636551,7.747635,0.4638977,3.7823486,-0.12295532,0.7347857,-2.8518286,4.7918267
1570715200,-1.0426788,19.612106,-15.661667,0.73127747,0.9796448,0.6909027,-1.8977828,12.032056,-14.958845
1570715200,-0.35673523,2.1918945,-5.668274,0.7632446,2.2206726,0.8570862,0.4881726,-2.2012658,-6.7682066
1570715200,-0.7110748,0.43814087,-8.037933,0.9944,0.8230438,1.5143585,-1.2426951,-6.39024,-9.600662
1570715200,4.811142,19.568405,-16.361374,1.0540619,-2.3642273,2.4571075,2.2839618,11.840684,-15.178558
1570715200,3.7960052,19.612701,0.15982056,1.3342133,-3.9940796,1.7316589,0.6575813,11.908499,-3.8979359
1570715200,-0.08679199,19.601929,13.211212,6.8309784,-4.11232,-0.0388031,-2.567534,11.729462,14.48829
1570715200,2.0099335,14.319122,17.49324,6.7724,0.47257996,-0.9069977,-3.8356018,6.9560385,14.489103
1570715200,-1.8004456,5.439621,-0.5452728,1.8998718,-0.39987183,-1.6526794,-3.6971216,-1.3351655,1.2898778
1570715200,-1.853714,3.2716827,0.93852234,1.6282349,-1.8518372,-1.3373566,-3.6301808,-2.3340898,0.9490086
1570715200,4.186859,1.0845795,11.012726,-0.8453064,-0.19961548,0.17318726,2.477355,-7.512904,12.372467
1570715200,2.54982,1.8602905,6.1028137,-1.8519897,1.0957489,0.62805176,1.142027,-6.3399863,9.961438
1570715200,-2.4845886,1.956665,-0.118515015,-2.0554504,-0.17404175,0.38197327,-3.852357,-5.9392786,1.630843
1570715200,-1.5304871,0.4584961,0.44770813,-2.1012573,-0.4595337,0.34469604,-3.4612904,-6.8805127,0.39832926
1570715200,-2.0997162,2.9556427,-0.96725464,-2.6935425,0.05178833,-0.053710938,-3.788088,-5.590304,-0.86060023
1570715200,-3.7822418,9.838974,-7.879318,-3.989975,-0.7418213,-0.59806824,-4.904815,0.60865116,-6.2970586
1570715200,1.2701263,19.612106,4.4454346,-4.2349854,-4.30513,-2.31102,-0.0012896061,11.888928,1.298564
1570715200,-2.0338745,19.612701,12.989136,-3.238968,0.72717285,-1.7006226,-2.4994044,11.927546,9.159286
1570715201,14.755463,15.356415,7.5650787,-1.2256165,-0.67684937,-1.3149872,16.873251,9.975073,2.042482
1570715201,3.636795,14.018646,-9.411011,-0.9220123,-1.6963043,-1.2649231,4.509199,5.005928,-4.764144
1570715201,1.2695312,8.924393,8.6388855,-1.504715,-2.488861,-0.37435913,-0.2821607,2.0988846,3.5064085
1570715201,4.155136,-3.739151,4.577118,1.2117157,-0.78123474,-0.36264038,3.1694298,-10.404896,-0.3193028
1570715201,4.1569366,-3.739151,4.577118,1.2117157,-0.78123474,-0.36264038,3.1694298,-10.404896,-0.3193028
1570715201,0.6871338,-6.432022,1.4808197,2.1214447,0.6131897,0.25094604,-0.1332761,-13.977224,-1.2326343
1570715201,2.1924896,0.38726807,0.746994,1.3810883,2.194046,0.41394043,1.2217728,-7.8819757,-2.2064881
1570715201,2.1924896,0.38726807,0.746994,1.3810883,2.194046,0.41394043,1.2217728,-7.8819757,-2.2064881
1570715201,1.6346436,6.26503,3.7026367,-0.5651398,2.1194763,0.28823853,0.15100765,-0.28012133,3.7740345
1570715201,1.6346436,6.26503,3.7026367,-0.52253723,1.95755,0.2903595,0.15100765,-0.28012133,3.7740345
1570715201,11.711838,19.612701,-8.036743,0.8963928,1.5048218,0.583313,13.192742,11.946213,-11.102642
1570715201,9.60553,19.023727,-7.219116,0.90171814,1.4025574,0.583313,13.192742,11.946213,-11.102642
1570715201,0.63327026,8.43956,-5.1134186,-0.37660217,0.30639648,1.2853241,-0.44913733,-0.5438137,-6.87098
1570715201,1.7848816,19.612701,-1.3072357,1.1019897,-5.309677,1.1628113,0.33674908,11.949394,-5.2027135
1570715201,2.6964722,19.612701,10.301056,4.3499756,-6.0787964,0.4437561,0.90789723,11.837619,7.1504087
1570715201,1.0648193,19.612701,7.668625,5.8786316,-4.5043488,-0.14320374,-0.8158057,11.728647,9.299788
1570715201,4.2443237,11.638214,19.612701,7.3550873,7.3499146,-1.2904968,-1.0010986,4.5443153,21.39106
1570715201,13.187866,8.877701,5.581482,4.339325,12.695419,-1.5110016,10.583078,1.601274,15.261064
1570715201,-8.602966,1.4437103,3.6140442,-1.301239,-2.82016,0.18170166,-12.259748,-6.6015763,-0.7976246
1570715201,-4.491516,-0.20231628,2.269104,-0.8186798,-1.2978973,0.4309845,-6.265271,-7.6192374,2.6553216
1570715201,-4.538803,-0.17897034,2.7940369,-0.822937,-1.3021545,0.360672,-6.265271,-7.6192374,2.6553216
1570715201,-3.550003,0.9618683,4.0264435,-1.5132294,-0.08988953,-0.3125763,-6.0968037,-6.7828083,5.738595
1570715201,2.1865082,3.1040802,0.55844116,-3.3454895,-1.6259918,-0.7812958,0.82344735,-6.126098,0.17552844
1570715201,2.197876,3.9354706,0.35134888,-3.3497467,-1.7229309,-0.74720764,0.6432729,-5.0235004,0.15822661
1570715201,1.5867615,19.612701,-9.148239,-4.5556335,-4.71846,-0.19326782,-2.4130306,10.648725,-10.733271
1570715201,13.06337,19.612701,9.739609,-2.367569,4.5280304,0.6131439,7.2800336,12.009874,10.177614
1570715201,15.327087,19.612701,7.2675934,-2.1545258,4.6931458,0.40115356,7.2800336,12.009874,10.177614
1570715201,-3.6421814,14.90271,-11.132446,-1.5281525,-2.4313354,-1.137085,-1.092145,7.7875824,-10.579571
1570715201,-3.6421814,14.90271,-11.132446,-1.5281525,-2.4313354,-1.137085,-1.092145,7.7875824,-10.579571
1570715201,4.336502,1.5717926,1.1468201,0.39997864,-0.7610016,-1.2532043,3.6750655,-4.670073,-0.12900066
1570715201,3.118454,-4.703415,0.7559662,1.4599152,-0.7194519,-0.32643127,2.306434,-11.997932,-2.911549
1570715201,3.118454,-4.703415,0.7559662,1.4599152,-0.7194519,-0.32643127,2.306434,-11.997932,-2.911549
1570715201,2.9251099,-4.949417,2.067398,1.7741699,0.43528748,0.3926239,1.9623575,-12.62015,-0.33113456
1570715202,1.5490417,0.89424133,1.9381104,0.39146423,1.6571503,0.010192871,1.1888083,-6.688077,-1.3244557
1570715202,-1.8375549,0.8307953,6.989868,-0.25941467,1.9170685,-0.05052185,-1.899031,-6.9197783,2.4842901
1570715202,0.58418274,3.2327728,12.977768,-0.8463745,2.6776733,0.28077698,-1.9614902,-5.4572754,9.177992
1570715202,4.4137115,8.880096,-5.096054,0.62368774,2.6840668,-0.11869812,5.7814946,0.66565466,-1.5619991
1570715202,11.969818,19.083588,-3.344101,0.24446106,3.9741058,0.79956055,18.506199,12.04863,-10.194736
1570715202,-1.4502869,5.747284,-13.821732,-0.2146759,-0.17190552,1.6869202,-1.9687352,-2.5004292,-14.980918
1570715202,-1.0247192,11.423935,-18.660416,-0.65675354,-2.7328033,1.9905243,-3.0439072,1.2043138,-19.256248
1570715202,2.7886505,19.612701,4.6034546,2.8330536,-8.986969,1.2107544,-0.61067295,12.077642,2.3486416
1570715202,2.4552612,19.243393,16.300919,6.4634705,-3.1056519,-0.91018677,-0.19947743,11.982174,19.801105
1570715202,-0.12269592,17.1754,11.558014,6.4805145,0.55140686,-1.5568085,-0.21210194,10.970871,14.489765
1570715202,13.942032,9.020157,14.724945,5.1595917,11.375549,-1.9829102,9.455838,2.9878826,21.516068
1570715202,-0.39743042,2.8000183,10.2717285,-0.65356445,-1.3980255,0.7004852,-2.983793,-5.096745,11.814921
1570715202,-0.39743042,2.8000183,10.2717285,-0.65356445,-1.3980255,0.7004852,-2.983793,-5.096745,11.814921
1570715202,-3.6026764,0.37768555,0.58299255,-1.4429321,-1.4725952,0.25520325,-5.888967,-7.165421,1.5407711
1570715202,-3.664917,0.2849121,0.7398071,-1.4535828,-1.5759277,0.184906,-5.8765273,-7.1093965,1.7873567
1570715202,0.03831482,3.596695,-0.2926941,-2.922577,-0.80999756,-0.7727661,-2.1769667,-5.179317,1.3838818
1570715202,-1.083374,14.692612,-8.379105,-4.2371063,-2.887268,-1.0902252,-4.988345,3.6255069,-8.6282835
1570715202,5.685028,19.612701,-3.305191,-4.6163483,-5.0604095,-2.2321777,1.3747013,11.920223,-6.5192213
1570715202,-6.036972,19.612701,8.3797,-3.7300415,-3.7245636,-1.0529327,-5.230015,11.830479,4.8926115
1570715202,7.6782074,12.858063,1.6974945,-1.0903168,-1.6899109,-1.8188629,16.755322,10.978173,-7.4765215
1570715202,7.6782074,12.858063,1.6974945,-1.0903168,-1.6899109,-1.8188629,16.755322,10.978173,-7.4765215
1570715202,1.932724,6.8414307,1.8644867,-1.9659729,-1.6078949,-0.4862213,-0.9959562,2.003645,-0.5057845
1570715202,1.932724,6.8414307,1.8644867,-1.9659729,-1.6078949,-0.4862213,-0.9959562,2.003645,-0.5057845
1570715202,3.9282837,-4.4286804,-0.06225586,0.5384674,-0.26779175,-0.54267883,3.3384585,-10.585989,-3.319869
1570715202,1.4682465,-8.057678,0.8164215,1.7368927,0.9189148,0.32125854,0.4424466,-15.415302,-1.017623
1570715202,1.3610992,-8.057678,0.8164215,1.7368927,0.9189148,0.32125854,0.4424466,-15.415302,-1.017623
1570715202,2.090744,-3.9348755,1.6304474,1.2149048,2.2505035,0.67918396,0.9163492,-11.974293,-1.0427806
1570715202,-1.1390381,3.7164001,9.96347,0.42874146,3.390335,-0.21138,-1.5609978,-6.534167,2.8761327
1570715202,0.30107117,14.602829,19.612701,-1.5132294,4.899811,-0.23374939,-0.86565405,4.4048214,16.986845
1570715202,19.612701,19.612106,-16.509216,-0.06767273,5.6380463,1.7210083,17.308523,12.147459,-17.91233
1570715202,19.559433,19.612701,-14.041992,-0.16886902,5.3887634,1.3524323,17.308523,12.147459,-17.91233
1570715202,4.2126007,18.059464,-15.21875,-0.3211975,-2.995926,1.4919739,2.3303797,7.0054693,-18.360857
1570715202,4.206009,19.612701,-13.743317,-0.3211975,-2.995926,1.4919739,2.3303797,7.0054693,-18.360857
1570715203,1.0666199,19.612701,19.612701,5.0594482,-4.8388367,-0.24014282,2.8032951,11.960866,6.8982954
1570715203,1.0666199,19.612701,19.612701,5.0594482,-4.8388367,-0.24014282,2.8032951,11.960866,6.8982954
1570715203,2.6809082,8.770554,-5.9310303,1.8476715,10.546783,-2.2758636,4.3861375,3.4181156,-0.22196412
1570715203,2.6809082,8.770554,-5.9310303,1.8476715,10.546783,-2.2758636,4.3861375,3.4181156,-0.22196412
1570715203,0.62428284,1.059433,6.9671326,-0.3957672,-2.8883362,0.6940918,-5.7452936,-7.4759073,4.879199
1570715203,0.04069519,-0.59555054,12.5091095,-0.03251648,-0.7333069,0.5044861,-0.67688155,-7.5783215,14.537483
1570715203,-3.1573486,1.4712372,0.7236481,-1.6485138,-1.721878,0.5119324,-5.3662043,-5.958881,2.165343
1570715203,-0.17417908,3.5039215,1.5287018,-2.3004608,-0.43928528,-0.34347534,-2.4680803,-4.5985036,4.118956
1570715203,-0.17417908,3.5039215,1.5287018,-2.3004608,-0.43928528,-0.34347534,-2.4680803,-4.5985036,4.118956
1570715203,-3.154358,13.312958,-12.129623,-4.0773315,-2.5730133,-0.3360138,-6.293452,3.35437,-10.966073
1570715203,4.945221,19.602524,-5.6664734,-4.883728,-5.225525,-1.2755737,-0.720142,11.893198,-9.947714
1570715203,-1.9285278,19.612701,1.625061,-4.4288635,-3.969574,-1.0976715,-1.9113127,11.896791,0.44029856
1570715203,3.2644958,10.92894,-0.4339447,-0.25941467,0.48002625,-1.2382965,6.9972024,3.968904,-4.2214828
1570715203,3.2644958,10.92894,-0.4339447,-0.25941467,0.48002625,-1.2382965,6.9972024,3.968904,-4.2214828
1570715203,-2.1918945,13.9839325,0.9151764,-1.0274658,-1.6707306,-1.8593445,-1.2056913,8.20999,-8.241379
1570715203,3.8007965,-0.39982605,0.754776,-0.56941223,-1.3468933,-0.89741516,3.1708076,-7.2030993,-1.2384839
1570715203,3.8007965,-0.39982605,0.754776,-0.56941223,-1.3468933,-0.89741516,3.1708076,-7.2030993,-1.2384839
1570715203,2.0177155,-5.6580963,2.114685,0.15284729,-1.6057587,-0.27635193,1.6845431,-12.62255,-1.5142114
1570715203,1.6256561,-6.115982,0.55784607,0.6183624,-0.05152893,0.9359131,0.50864375,-13.815419,-1.9849696
1570715203,2.1398163,-3.1597443,2.9825745,0.3850708,2.5200195,0.1572113,1.1255176,-10.686382,-0.20471048
1570715203,1.1270752,-3.3590698,5.2678375,0.29664612,3.292328,-0.19752502,0.24667859,-10.891187,2.3013325
1570715203,4.968567,4.664505,10.126877,0.9752197,2.8395844,-0.105911255,3.783566,-4.519388,9.066257
1570715203,19.612701,19.612701,-16.80191,1.0295563,9.0841675,3.0738983,12.591909,12.200079,-9.824859
1570715203,-0.24958801,2.3726501,-15.288773,-0.22958374,-3.6372223,2.4070435,-2.090566,-6.9925203,-17.065783
1570715203,0.39144897,3.8414917,-15.295959,-0.20721436,-4.397812,2.3857422,-1.6574845,-5.5854535,-17.210262
1570715203,-4.909317,19.612701,19.612701,3.4487762,-6.0511017,0.6376343,-7.076617,12.19063,18.848831
1570715203,3.6984406,18.765747,3.0579987,5.0796967,2.6233368,-1.0561371,1.0979478,12.077044,5.9000106
1570715203,5.1092224,12.114059,19.612701,6.16626,6.4561615,-1.822052,0.7940018,4.890555,19.207382
1570715203,10.594345,9.05307,14.510056,5.7753143,9.601883,-1.8646698,8.396736,2.107595,20.87573
1570715203,-7.2406616,2.9197235,-4.2676697,-1.0999146,0.9104004,-0.99967957,-6.9339566,-3.897489,-4.656675
1570715203,-1.8794556,3.2220001,7.9014587,-0.8932495,-2.1586304,0.6909027,-6.755696,-4.7493753,6.5536194
1570715203,-3.1567535,0.68473816,2.301422,-0.69937134,-0.03768921,0.70262146,-5.0117216,-5.906888,6.342658
1570715203,-1.0085602,0.81044006,2.489975,-2.6189728,-1.4172058,-0.11123657,-3.4563003,-6.7764306,2.8109827
1570715203,-1.0085602,0.81044006,2.489975,-2.6189728,-1.4172058,-0.11123657,-3.4563003,-6.7764306,2.8109827
1570715203,0.6715698,1.7058716,1.411377,-3.1430817,-0.9602051,-0.3956604,-1.0244993,-6.0829973,2.1195238
1570715204,8.224686,19.612106,-2.9795837,-4.821945,-5.6356506,-2.0329742,2.6467247,12.202416,-11.468071
1570715204,8.066071,19.612106,1.1905212,-4.7793274,-5.972275,-2.4931793,6.1375093,12.223402,-5.948107
1570715204,2.2319946,19.612701,15.222336,-2.7894135,3.722702,0.09541321,-2.8246813,12.231968,11.703152
1570715204,8.666412,12.606064,3.0579987,-1.1499786,0.46618652,-1.8550873,16.786604,9.842947,-1.1306341
1570715204,1.7675171,11.769897,-2.1368256,-0.87620544,-1.1061554,-0.9442749,1.8012736,4.289904,-4.370038
1570715204,-2.3295593,7.189789,7.8296356,-1.4098969,-1.9413147,-0.19859314,-6.614946,2.4054747,-0.11712289
1570715204,7.0329742,1.1276703,1.9177551,0.32221985,-0.89523315,-0.40100098,6.06234,-3.8683581,-0.4620893
1570715204,4.4442444,-5.9561768,0.44592285,1.9105225,0.73036194,-0.13467407,4.1964316,-12.867115,-1.0962594
1570715204,4.087494,-6.18602,0.059249878,1.9190521,0.7378235,-0.10272217,4.1964316,-12.867115,-1.0962594
1570715204,2.4486694,-7.0628967,-0.7559662,1.552597,0.827301,0.37239075,1.7811594,-14.4924555,-3.5642312
1570715204,1.2264252,-3.8474884,3.5667572,1.2436676,2.0928345,0.4714508,0.63420534,-11.921326,1.494542
1570715204,-2.6629486,3.9342651,7.763794,0.9102478,4.2084503,0.05706787,-2.2246313,-5.443028,4.1417255
1570715204,2.2074585,7.138916,-5.3073425,0.307312,2.7490387,0.4352417,0.4999015,-1.4715977,-1.6921829
1570715204,-0.5752106,19.56482,-17.660233,-0.20614624,1.415329,0.7079468,-0.9463078,12.2973585,-20.817709
1570715204,5.1966095,13.807953,-2.554016,-0.34144592,2.3847198,0.4586792,7.6531043,10.098041,-4.259248
1570715204,-0.549469,7.197571,-9.553467,-0.803772,-1.644104,1.6262054,-1.1364172,-1.5681949,-10.552995
1570715204,1.5490417,19.612701,-8.965088,-0.50868225,-5.6665497,1.6379242,-0.22387862,9.946525,-13.090775
1570715204,2.6725311,19.21466,8.818451,3.9483795,-4.2156525,-0.8377533,0.72882366,12.015497,5.170274
1570715204,2.6725311,19.21466,8.818451,3.9483795,-4.2156525,-0.8377533,0.72882366,12.015497,5.170274
1570715204,11.319183,5.5641174,19.593552,6.5944977,8.769913,-1.8146057,5.1286845,-0.0122179985,20.615234
1570715204,13.151947,5.8951263,2.9322968,3.8546295,11.79953,-1.759201,11.660475,-2.3431087,11.955
1570715204,-7.3526,1.3036499,8.069061,-1.1744843,-2.2513123,0.9178009,-11.578436,-6.188956,5.1713214
1570715204,-5.351639,3.2962189,2.091339,-1.408844,-0.027038574,0.47998047,-6.931108,-4.038341,3.1394086
1570715204,-4.378998,-0.29328918,1.42276,-1.824295,0.11891174,-0.43614197,-6.353921,-7.511257,2.025287
1570715204,-4.378998,-0.29328918,1.42276,-1.824295,0.11891174,-0.43614197,-6.353921,-7.511257,2.025287
1570715204,1.8686676,0.9032135,0.41958618,-2.8522644,0.23822021,-0.7770386,-0.77396667,-7.3664064,1.3422406
1570715204,0.022750854,10.978607,-5.925049,-3.866394,-2.086197,-1.3341675,1.024572,1.0256858,-3.0196257
1570715204,-0.8930359,19.612701,10.815201,-3.1910248,-2.3525085,-1.9413605,-1.6634969,12.29028,9.56984
1570715204,-0.8930359,19.612701,10.815201,-3.1910248,-2.3525085,-1.9413605,-1.6634969,12.29028,9.56984
1570715204,-0.21128845,15.888519,-4.668091,-0.8591614,-1.3969727,-1.1743774,1.0982515,8.267347,-5.0509396
1570715204,-0.21128845,15.888519,-4.668091,-0.8591614,-1.3969727,-1.1743774,1.0982515,8.267347,-5.0509396
1570715204,4.96019,6.9671326,1.2036896,-0.8218689,-0.9878998,-0.12934875,1.0125601,0.45387554,-3.3499217
1570715204,6.1171875,7.281372,1.1653748,-0.7110901,-1.0251923,-0.18580627,3.9590673,-0.17964077,-2.3184993
1570715205,3.376419,-7.831436,6.613983,1.7816315,0.5428772,0.16358948,3.5161817,-14.572686,3.4517493
1570715205,3.376419,-7.831436,6.613983,1.7816315,0.5428772,0.16358948,3.5161817,-14.572686,3.4517493
1570715205,2.1930847,-9.000397,1.783081,2.3728485,2.2174835,0.743103,1.9741262,-16.063467,0.6813481
1570715205,0.094573975,2.3606873,1.632843,1.3075867,2.9365234,0.19662476,-0.09562147,-5.648425,-1.2756896
1570715205,0.094573975,2.3606873,1.632843,1.3075867,2.9365234,0.19662476,-0.09562147,-5.648425,-1.2756896
1570715205,-1.1731567,14.180862,11.745956,0.018615723,4.1338806,-0.33387756,-1.9839301,5.254739,11.3621645
1570715205,10.135849,16.90007,-1.5514374,-0.9017639,1.5186615,0.61846924,11.8592,11.906189,-4.5683217
1570715205,5.562332,12.11586,-2.2744904,-0.4841919,0.64941406,0.7409668,6.7205667,6.2635407,-3.8348653
1570715205,0.43455505,10.541672,-8.815445,-0.088974,-4.938965,1.9926605,-1.0351672,0.25233173,-10.819323
1570715205,0.7685394,12.830521,-8.681976,0.03779602,-5.4257965,2.0235443,-1.0351672,0.25233173,-10.819323
1570715205,7.1024017,19.612701,0.9917908,2.412262,-5.594101,1.3716125,4.7297497,12.36213,-2.5912895
1570715205,-1.4239502,12.659943,19.560623,7.58519,3.5362701,-1.2553406,-4.2939205,6.0630217,20.168201
1570715205,-1.4239502,12.659943,19.560623,7.58519,3.5362701,-1.2553406,-4.2939205,6.0630217,20.168201
1570715205,-8.765167,2.2709045,-7.45195,-0.5491638,0.4225006,-1.3341675,-7.472151,-2.508676,-7.885745
1570715205,-1.9201508,2.652771,5.5330048,-0.5726013,-3.9259033,0.45121765,-8.498279,-6.6169457,3.191153
1570715205,-0.27053833,0.017364502,4.4095154,-0.4000244,0.53862,0.34681702,-1.9646988,-7.2108154,9.289404
1570715205,-1.6669617,0.86790466,-0.07841492,-1.6538544,-1.611084,0.40327454,-3.5761886,-6.5444922,1.258315
1570715205,-1.6669617,0.86790466,-0.07841492,-1.6538544,-1.611084,0.40327454,-3.5761886,-6.5444922,1.258315
1570715205,-0.7224579,0.2819214,3.147171,-1.8818207,-1.7261353,0.18276978,-2.8549728,-7.1859465,2.8878531
1570715205,-1.2222443,6.2482605,-3.1208344,-3.4711914,-0.9282532,-0.017501831,-2.7822247,-1.953999,-2.0182545
1570715205,4.7620697,19.612701,-2.724594,-4.9220734,-5.524872,-1.2713165,0.37387896,12.239485,-6.6396236
1570715205,-4.1371765,19.612701,11.945267,-3.6767883,0.5301056,0.5044861,-5.5083184,12.235197,8.927925
1570715205,-2.114685,19.612701,11.64061,-3.0791779,2.2515717,1.5324554,-5.5083184,12.235197,8.927925
1570715205,19.478027,19.387054,1.814209,-0.963562,0.17216492,-1.1924896,18.255444,12.286327,-3.9924502
1570715205,-2.0685883,15.604202,-18.63826,-1.7880707,-2.1756744,-0.5970001,-1.3154005,9.118788,-20.091324
1570715205,0.331604,4.546585,0.19812012,-1.5132294,-1.9104156,-0.78022766,-2.0998063,-0.93901014,-2.4847786
1570715205,2.1649628,-3.2591095,-0.5901642,0.16668701,-1.7985687,-0.4894104,0.5900446,-9.554272,-4.9352474
1570715205,1.7956543,-6.2590485,1.977005,0.9358063,-0.9420929,-0.31471252,0.73181415,-12.13805,-1.1547484
1570715205,2.0644073,-7.632721,0.79067993,1.4876251,0.074157715,0.05067444,0.6626947,-14.533371,-1.8504813
1570715205,2.3415222,-4.7453003,1.458664,2.12677,1.2938995,0.5630646,0.76415503,-12.616734,-0.9565854
1570715205,3.1208344,-0.50756836,2.103302,2.0809631,1.9927063,0.23071289,1.611693,-8.227318,-0.37717652
1570715205,5.6640778,10.126877,-4.356247,0.5949249,1.7498322,-0.47769165,5.105817,2.4929848,-3.6697457
1570715205,5.6640778,10.126877,-4.356247,0.5949249,1.7498322,-0.47769165,5.105817,2.4929848,-3.6697457
1570715206,4.9548035,6.032196,-6.945572,0.4393921,3.5266876,1.1873169,4.720479,1.3122783,-7.535372
1570715206,4.9548035,6.032196,-6.945572,0.4393921,3.5266876,1.1873169,4.720479,1.3122783,-7.535372
1570715206,-0.087387085,17.119736,-10.836761,-0.47991943,-1.0624695,1.9479065,-1.171351,4.537055,-11.270128
1570715206,3.368637,19.612701,4.2108,3.8077698,-6.234329,0.24880981,0.9544358,12.311537,2.4004772
1570715206,3.368637,19.612701,4.2108,3.8077698,-6.234329,0.24880981,0.9544358,12.311537,2.4004772
1570715206,10.214859,11.368866,19.612701,6.8203278,10.546783,-1.3916931,4.999651,3.1127882,21.12651
1570715206,10.214859,11.368866,19.612701,6.8203278,10.546783,-1.3916931,4.999651,3.1127882,21.12651
1570715206,-2.5097198,1.9626465,7.013809,-0.76008606,-3.1770172,0.52685547,-7.8460484,-6.587669,4.466432
1570715206,-2.5097198,1.9626465,7.013809,-0.76008606,-3.1770172,0.52685547,-7.8460484,-6.587669,4.466432
1570715206,-3.316574,-0.31903076,-0.75297546,-1.0647583,-1.4608765,0.66000366,-5.398896,-7.774131,0.29778332
1570715206,-2.8880005,1.1564026,4.162323,-1.6304169,-1.3468933,-0.17303467,-4.88644,-5.994952,4.632143
1570715206,-2.8880005,1.1564026,4.162323,-1.6304169,-1.3468933,-0.17303467,-4.88644,-5.994952,4.632143
1570715206,0.9756317,1.4107819,0.47525024,-2.8554688,0.66539,-0.8643799,-0.7519711,-6.01781,1.7497739
1570715206,4.997299,19.612701,1.9411011,-4.0336456,-6.673218,-1.822052,2.2709785,12.298382,-2.3407948
1570715206,4.997299,19.612701,1.9411011,-4.0336456,-6.673218,-1.822052,2.2709785,12.298382,-2.3407948
1570715206,3.7379456,19.612701,7.9834595,-2.9033966,3.661972,0.22006226,-0.62393177,12.329725,6.6507096
1570715206,17.398071,19.612701,4.0306396,-1.4162903,4.2436066,0.0048675537,6.9618516,12.362027,3.5727801
1570715206,-2.0326843,14.345459,-6.3105164,-1.6655579,-3.7192383,-1.0401459,-1.9046664,7.521239,-14.396523
1570715206,-2.0326843,14.345459,-6.3105164,-1.6655579,-3.7192383,-1.0401459,-1.9046664,7.521239,-14.396523
1570715206,6.146515,2.573166,3.8361053,-0.65249634,-1.3820496,-0.50006104,4.6480484,-4.2530394,-0.8881061
1570715206,6.033386,-0.6715698,1.0773926,0.42662048,-1.1892395,-0.6055298,5.5534205,-6.601887,-0.034083128
1570715206,4.016876,-5.5431824,4.897339,1.8679199,-0.478714,-0.2891388,3.867908,-12.155546,1.5454423
1570715206,2.8197784,-6.522995,3.6343994,2.2226562,0.3713684,-0.17729187,2.4551933,-13.290916,1.5924206
1570715206,0.5704193,-0.27772522,2.668335,0.60983276,2.6489105,0.042160034,-0.19782257,-9.275599,0.15475821
1570715206,0.54766846,2.8754425,6.783371,-0.2849884,2.9205475,0.21792603,-0.44682607,-5.05428,5.062363
1570715206,0.54766846,2.8754425,6.783371,-0.2849884,2.9205475,0.21792603,-0.44682607,-5.05428,5.062363
1570715206,15.549149,19.612701,-10.462662,-0.090042114,2.1098785,0.3915558,19.072323,12.312344,-14.382349
1570715206,0.039505005,0.6374512,-2.015915,-0.5129547,1.9138794,1.7018433,0.16217822,-6.178996,-3.3167946
1570715206,-0.1478424,0.85173035,-2.8634644,-0.5065613,1.8488922,1.8009033,-0.47261167,-6.6041136,-3.7719843
1570715206,3.39917,19.612701,0.02154541,0.25297546,-4.555481,2.160965,1.7595013,12.491215,-4.4564743
1570715206,3.39917,19.612701,0.02154541,0.25297546,-4.555481,2.160965,1.7595013,12.491215,-4.4564743
1570715206,-1.6394348,14.431656,17.43338,6.7148743,-3.5445404,-0.49794006,-2.767504,8.760986,17.326637
1570715206,-1.7770996,13.77623,16.986267,7.1186066,-2.2587585,-0.6183014,-3.662347,7.343241,17.775288
1570715206,8.0546875,11.033081,11.997345,5.3161774,10.263412,-1.0774384,3.1573808,3.4064202,18.365932
1570715207,-8.432983,1.146225,-3.5368347,-0.4458313,-2.4515839,0.13163757,-13.566109,-6.0645494,-7.4028425
1570715207,-2.6827087,3.6230316,4.0934906,-0.7377167,-3.6595917,0.5939636,-7.9143744,-5.060807,1.0564986
1570715207,-1.1097107,-1.296463,0.5381012,-1.3119049,-0.83343506,-0.063308716,-3.0911536,-8.294001,1.7784687
1570715207,-0.7368164,-0.68533325,1.138443,-1.2905884,-1.2052155,-0.086746216,-2.997086,-8.482212,1.6730411
1570715207,0.14305115,2.206253,2.2834625,-2.285553,-0.45207214,-0.4627838,-2.1372032,-5.975209,3.4020343
1570715207,-0.26875305,19.559433,-5.9663544,-4.0954285,-2.901123,-1.4662628,-3.397821,7.3048964,-7.765461
1570715207,-0.26875305,19.559433,-5.9663544,-4.0954285,-2.901123,-1.4662628,-2.1078613,11.249115,-6.9158335
1570715207,0.026931763,19.612701,6.391327,-3.4253845,-4.713135,-3.161087,0.7971482,12.177605,6.1441507
1570715207,10.250778,15.659882,3.4961395,-1.2394562,1.1671295,-1.0050049,15.913116,12.270216,-0.6579442
1570715207,10.250778,15.659882,3.4961395,-1.2394562,1.1671295,-1.0050049,12.365698,10.753905,0.51663136
1570715207,-3.8989563,14.6124115,-12.067978,-1.5899353,-3.348526,-1.3799744,0.24333212,7.796666,-14.932699
1570715207,-1.6178894,5.1535187,2.0027466,-1.4067078,-0.6832428,-0.5586548,-4.3553295,0.8521495,2.2909956
1570715207,4.993103,-2.1966858,0.14364624,0.36802673,-1.118927,-0.5831604,4.769226,-8.331682,-3.569347
1570715207,2.3852234,-7.743454,1.909378,2.6743164,0.44914246,0.5279236,1.6931438,-15.248133,-0.48396993
1570715207,2.3852234,-7.743454,1.909378,2.6743164,0.44914246,0.5279236,1.6931438,-15.248133,-0.48396993
1570715207,0.26635742,-6.153702,2.5480347,2.4847107,1.7828522,0.44163513,0.74218947,-14.34036,0.2827561
1570715207,-1.6711578,6.3224945,9.596558,-1.1957855,4.359726,-0.37756348,-1.9075087,-0.67037916,7.420417
1570715207,4.293396,5.6389465,0.26037598,-1.3651581,3.2667694,-0.059051514,2.48635,-1.944149,-0.45334005
1570715207,4.0312347,19.612701,-8.318649,0.022872925,1.1777802,0.22218323,4.8930817,9.032385,-11.1796875
1570715207,-1.7836761,2.616867,-11.6017,-0.24023438,-2.1596985,2.1183624,-2.5001347,-5.83055,-12.888596
1570715207,-1.7836761,2.616867,-11.6017,-0.24023438,-2.1596985,2.1183624,-2.5001347,-5.83055,-12.888596
1570715207,5.676651,19.612701,6.605606,2.9757996,-3.7863464,0.696228,2.0438218,12.324594,3.3852239
1570715207,5.676651,19.612701,6.605606,2.9757996,-3.7863464,0.696228,3.1234303,12.299816,4.4739103
1570715207,-0.58477783,11.455658,19.161987,7.9931946,6.513687,-0.9346924,-2.959693,5.731643,14.674021
1570715207,-0.58477783,11.455658,19.161987,7.9931946,6.513687,-0.9346924,-2.959693,5.731643,14.674021
1570715207,-6.795349,1.5670013,10.517136,-0.7536926,-1.3362427,0.5193939,-8.790414,-5.8795166,10.106855
1570715207,-5.3743896,1.5670013,10.517136,-0.7536926,-1.3362427,0.5193939,-8.790414,-5.8795166,10.106855
1570715207,-2.6743164,2.043457,1.0606384,-1.8136444,-0.3817749,0.8070221,-4.5838246,-5.351652,2.0603185
1570715207,-3.5924988,0.81103516,1.4173737,-2.0405426,-0.70028687,0.5907593,-4.8392625,-5.758731,2.1581376
1570715207,-1.5921478,1.5813751,2.185913,-2.5976715,-1.2233276,-0.1133728,-3.7234635,-5.938132,2.5360782
1570715207,-1.7226257,2.2230225,-0.07901001,-2.987564,-1.1157379,-0.28381348,-3.4027543,-5.3484335,0.55342203
1570715207,-1.5747833,9.74321,-4.331711,-4.0006256,-1.8752747,-0.47982788,-3.282971,0.5050316,-4.277314
1570715207,0.053268433,19.612701,9.020752,-4.3670807,-3.9003296,-3.414627,0.5347595,12.356249,5.938928
1570715208,2.6509857,19.612701,11.211441,-2.241867,5.2470856,-0.11869812,-1.203618,12.434319,9.285923
1570715208,8.423996,11.953644,4.869812,-0.79737854,-0.32850647,-1.7517548,10.591632,6.016027,1.8446045
1570715208,-3.0729523,10.953476,-18.890854,-1.0413208,-2.4111023,-1.580246,1.4925342,5.5527425,-10.526642
1570715208,-6.8839264,8.57962,4.372406,-2.0416107,-3.8630524,-0.83029175,-8.105292,1.2358284,-3.454835
1570715208,4.593277,-2.3451233,1.2928619,0.8399353,-2.0670166,-0.5394745,3.9710577,-8.6219425,-2.4185708
1570715208,4.593277,-2.3451233,1.2928619,0.8399353,-2.0670166,-0.5394745,3.9710577,-8.6219425,-2.4185708
1570715208,4.6698914,-5.4144897,2.1990814,2.1768494,1.1607361,0.41819763,4.0443807,-12.742878,0.31480694
1570715208,4.6698914,-5.4144897,2.1990814,2.1768494,1.1607361,0.41819763,4.0443807,-12.742878,0.31480694
1570715208,-0.49499512,2.8389282,7.692566,-0.19763184,2.6808624,0.25520325,-0.14720213,-4.6580215,4.739944
1570715208,-0.49499512,2.8389282,7.692566,-0.19763184,2.6808624,0.25520325,-0.14720213,-4.6580215,4.739944
1570715208,1.7184448,6.0459595,-3.0526123,0.37121582,3.133606,0.5236511,3.2572815,-2.599566,-4.6349325
1570715208,2.6749268,19.54866,-9.534912,-0.062347412,4.296875,1.7700195,-0.2609364,10.39477,-9.824054
1570715208,0.63446045,4.505295,-4.913498,-0.47566223,0.34048462,1.3609467,1.0997243,-1.4463744,-7.5596457
1570715208,0.63446045,4.4220886,-4.767456,-0.5299988,0.17962646,1.4184723,1.0997243,-1.4463744,-7.5596457
1570715208,0.6183014,19.601929,-5.5593414,0.89427185,-6.329132,1.2150116,-0.34979188,12.478813,-8.967411
1570715208,0.14604187,19.612701,2.9400787,2.9459686,-7.1344757,0.99876404,-2.116033,12.38381,0.878754
1570715208,-0.03352356,19.612701,13.802567,6.6679993,1.0137329,-0.8409424,-2.0228124,12.159319,16.05144
1570715208,8.944733,10.635635,19.608505,6.4496155,9.941711,-1.4406891,0.300941,3.6387658,21.106441
1570715208,6.9629364,7.4172363,-3.5392303,1.010376,10.144104,-2.1363068,10.556937,2.3555036,2.630664
1570715208,-9.03392,1.201294,-6.235092,-0.7302704,0.20306396,-1.327774,-7.5170326,-4.801199,-5.863835
1570715208,-1.1336517,1.4706421,8.789719,-0.29457092,-0.5681915,0.6376343,-2.1944752,-5.593501,11.382211
1570715208,-2.889206,0.3938446,-0.010772705,-0.73664856,-0.89949036,0.59928894,-4.6121798,-7.0393076,1.1397069
1570715208,-2.945465,1.3156128,2.2661133,-1.1968536,-1.6590271,0.21366882,-4.7939224,-6.397437,2.4599543
1570715208,0.64404297,1.5131378,2.300827,-2.6392212,-0.4222412,-0.4425354,-1.9868593,-6.0376472,3.5369647
1570715208,-2.2583313,17.790115,-8.87291,-4.260544,-3.156784,-0.5586548,-4.6930623,6.9484043,-9.046225
1570715208,-2.2583313,17.790115,-8.87291,-4.260544,-3.156784,-0.5586548,-4.6930623,6.9484043,-9.046225
1570715208,-1.5628204,19.612701,13.205811,-4.0453644,-0.24967957,-1.9861145,-2.444096,12.330036,9.969852
1570715208,2.442688,19.612701,11.823166,-2.8203125,4.1008606,-0.7738342,-1.3359227,12.356398,11.656119
1570715208,5.1283875,15.0433655,1.7675171,-0.9209442,-1.4225311,-1.2265778,6.0606213,8.52906,-2.9001906
1570715208,-6.628952,12.462418,-5.1487274,-1.4269409,-2.6880646,-1.0060577,-6.2326107,6.975597,-10.242
1570715208,4.2365417,4.7028046,2.6755219,-0.44477844,-1.3362427,-0.55758667,0.9681385,-2.1857333,-3.9081602
1570715208,4.6992188,-0.04788208,1.608902,0.7611084,-1.278717,-0.7738342,4.648179,-5.371761,0.10488176
1570715208,4.8997345,-3.7349548,0.8744812,1.3033295,-1.4342499,-0.39033508,4.3314314,-10.404915,-1.9869459
1570715209,3.241745,-6.2135468,3.1777039,2.0426178,0.4416809,0.15933228,2.99373,-13.100957,1.998496
1570715209,2.719818,-5.7927704,-0.4728546,1.2266235,0.69947815,0.58117676,2.3356152,-13.46409,-3.1807466
1570715209,-0.6566162,7.2520294,13.575119,-1.0477142,2.910965,0.0155181885,-0.2801695,-2.013101,5.1907463
1570715209,-0.6566162,7.2520294,13.575119,-1.0477142,2.910965,0.0155181885,-0.2801695,-2.013101,5.1907463
1570715209,19.612701,19.612106,-19.086578,-0.55448914,4.92218,2.543396,11.672003,12.443842,-20.494303
1570715209,19.612701,19.612106,-19.086578,-0.55448914,4.92218,2.543396,11.672003,12.443842,-20.494303
1570715209,2.9909515,11.42334,-16.278778,1.6133118,-6.1725464,2.2600403,0.5172432,-2.4050398,-14.480147
1570715209,2.9909515,11.42334,-16.278778,1.6133118,-6.1725464,2.2600403,0.5172432,-2.4050398,-14.480147
1570715209,4.289215,19.612701,12.589905,3.25383,-4.877182,-0.0664978,3.6641693,12.341492,3.6454082
1570715209,4.289215,19.612701,12.589905,3.25383,-4.877182,-0.0664978,3.6641693,12.341492,3.6454082
1570715209,0.16281128,19.612701,19.612701,4.337204,-3.7085876,-0.35412598,2.5494242,12.31554,9.329976
1570715209,0.16281128,19.612701,19.612701,4.337204,-3.7085876,-0.35412598,2.5494242,12.31554,9.329976
1570715209,0.16281128,19.612701,19.612701,4.337204,-3.7085876,-0.35412598,2.5494242,12.31554,9.329976
1570715209,0.16281128,19.612701,19.612701,4.337204,-3.7085876,-0.35412598,2.5494242,12.31554,9.329976
1570715209,0.16281128,19.612701,19.612701,4.337204,-3.7085876,-0.35412598,2.5494242,12.31554,9.329976
1570715209,0.16281128,19.612701,19.612701,4.337204,-3.7085876,-0.35412598,2.5494242,12.31554,9.329976
1570715209,0.16281128,19.612701,19.612701,4.337204,-3.7085876,-0.35412598,2.5494242,12.31554,9.329976
1570715209,0.16281128,19.612701,19.612701,4.337204,-3.7085876,-0.35412598,2.5494242,12.31554,9.329976
1570715209,4.8524475,19.612701,0.5560608,-3.5659943,-4.483032,-3.3283386,3.0975199,12.399919,-0.44236767
1570715209,-3.1064758,19.597733,2.0979156,-3.71727,-3.3197632,-2.440979,-3.031543,12.313499,-0.7918453
1570715209,8.685562,12.332535,2.8083954,-0.7856598,0.1434021,-1.72406,9.313265,5.696595,0.69398785
1570715209,3.5960846,10.8654785,0.4794464,-1.2426605,0.3426056,-1.4737091,3.8840199,3.7972393,-1.0376165
1570715209,1.7675171,3.9073334,-0.32081604,-1.5675659,-1.9722137,-0.562912,0.37794763,-2.805708,-2.7486882
1570715209,1.7675171,3.9073334,-0.32081604,-1.5675659,-1.9722137,-0.562912,0.37794763,-2.805708,-2.7486882
1570715209,4.7261505,-4.1365814,2.3259735,0.27108765,-1.4949646,-0.32110596,3.4351084,-10.697571,-2.2278109
1570715209,4.92128,-5.9501953,3.6481628,0.7557831,-0.59802246,-0.30192566,3.962124,-12.70657,0.68107605
1570715209,4.1282043,-7.885895,2.8491058,1.854065,0.9402313,-0.25398254,3.385788,-14.719231,0.41835952
1570715209,-0.23223877,7.8320312,10.283691,0.09425354,3.0750122,0.027236938,-0.060635805,-1.5431719,5.27147
1570715209,-0.23223877,7.8320312,10.283691,0.09425354,3.0750122,0.027236938,-0.060635805,-1.5431719,5.27147
1570715209,15.747269,19.612701,-15.862778,-0.10069275,4.629242,1.7561646,9.673128,12.541994,-13.891518
1570715209,15.747269,19.612701,-15.862778,-0.10069275,4.629242,1.7561646,9.673128,12.541994,-13.891518
1570715209,-1.8171997,8.649048,-15.370178,-0.03465271,-1.8124237,2.350586,-2.7945662,-0.25354767,-17.786013
1570715209,-1.8171997,8.649048,-15.370178,-0.03465271,-1.8124237,2.350586,-2.7945662,-0.25354767,-17.786013
1570715209,0.85832214,19.60791,-7.451355,-0.24662781,-5.717682,1.889328,-0.68982697,12.538097,-12.790771
1570715210,3.1669312,19.612701,3.3297424,3.0567474,-4.653473,0.47251892,0.99716496,12.562977,2.8061204
1570715210,-3.933075,12.720993,19.124283,6.5625305,0.6611328,-1.2745056,-5.880773,5.533265,19.290945
1570715210,9.270355,11.469421,19.612701,8.002777,7.6801605,-1.6249847,6.420413,4.246436,20.670315
1570715210,-7.435791,2.8437195,1.5807648,-0.567276,-3.3218994,0.19023132,-11.77963,-5.1699166,0.55596423
1570715210,-7.435791,2.8437195,1.5807648,-0.567276,-3.3218994,0.19023132,-11.77963,-5.1699166,0.55596423
1570715210,-2.953247,0.84754944,-0.7769165,-1.3342743,0.09440613,0.69836426,-4.628264,-6.37392,0.67753065
1570715210,-2.8880005,0.20350647,0.089782715,-1.9052429,-1.2169342,0.78570557,-4.8475122,-6.9578886,0.9904196
1570715210,-1.0696106,0.12031555,3.6116486,-2.0149689,-1.451294,0.29356384,-2.8575673,-6.965568,4.287135
1570715210,-2.2714996,10.916962,-6.233902,-3.5382996,-0.7993469,-0.22842407,-3.985649,0.90191984,-4.5289416
1570715210,-3.2190094,12.081741,-8.811264,-3.6267242,-1.069931,-0.3179016,-4.476851,4.3186674,-7.6855564
1570715210,-0.25079346,19.571396,5.8059387,-3.3007507,-4.4372253,-3.5179596,-1.0881565,12.258369,4.550535
1570715210,2.6437988,19.612701,7.914032,-2.7915497,1.0115967,1.0392456,-2.485953,12.287634,5.66214
1570715210,6.211151,19.612701,7.455551,-2.5188446,1.399353,1.366272,3.653683,12.303812,5.6057944
1570715210,2.2277985,14.383759,3.1723175,-1.8285522,0.034744263,-0.5874176,1.6860418,6.5676613,2.429838
1570715210,2.0679932,16.828842,-10.446503,-1.6378632,-1.2116089,-0.7972717,0.95016825,8.5291195,-10.804619
1570715210,5.7053833,-0.802063,2.3690643,-0.79737854,-1.3042908,-0.7770386,5.32836,-6.6897526,-0.12015653
1570715210,3.4955292,-8.093002,2.3828278,0.8623047,0.44914246,-0.2625122,2.9458828,-14.927324,-0.66064787
1570715210,3.197464,-8.290527,1.7914581,0.9411316,0.5290375,-0.21989441,2.9458828,-14.927324,-0.66064787
1570715210,3.174118,-7.964905,1.5011597,1.0860138,0.42782593,0.60035706,2.2842758,-15.210209,-1.8290892
1570715210,-1.2258301,2.2409668,6.6038055,1.549408,2.8662262,0.1337738,-1.6547226,-4.975037,4.011775
1570715210,-1.2258301,2.2409668,6.6038055,1.549408,2.8662262,0.1337738,-1.6547226,-4.975037,4.011775
1570715210,14.418488,19.572601,-13.087906,0.77601624,6.3805237,1.5186157,8.442723,12.541683,-9.9777975
1570715210,14.418488,19.572601,-13.087906,0.77601624,6.3805237,1.5186157,8.442723,12.541683,-9.9777975
1570715210,-0.8996277,-0.509964,-12.032654,0.7664337,-3.0012512,2.1598969,-1.6959109,-8.039635,-12.845405
1570715210,-0.8996277,-0.509964,-12.032654,0.7664337,-3.0012512,2.1598969,-1.6959109,-8.039635,-12.845405
1570715210,0.7769165,19.612701,19.612701,3.7236023,-3.000183,0.10501099,0.7028289,12.450808,16.79801
1570715210,0.49620056,19.612701,19.500778,4.3648987,-2.261963,-0.016433716,-1.5217936,12.422924,18.988945
1570715210,0.64224243,10.025116,19.591751,6.138565,8.747543,-1.3267059,-3.3143654,2.682075,20.79894
1570715210,0.64224243,10.025116,19.591751,6.138565,8.747543,-1.3267059,-3.3143654,2.682075,20.79894
1570715210,-3.9061432,3.1142578,8.633484,-0.6098938,-2.565567,0.44589233,-5.8834066,-4.127296,9.173468
1570715210,-3.9061432,3.1142578,8.633484,-0.6098938,-2.565567,0.44589233,-5.8834066,-4.127296,9.173468
1570715210,-4.5483856,2.5821533,0.22505188,-1.5100403,-1.3266602,0.97958374,-6.3917456,-4.6585836,1.0908344
1570715210,-4.5483856,2.5821533,0.22505188,-1.5100403,-1.3266602,0.97958374,-6.3917456,-4.6585836,1.0908344
1570715211,-0.7254486,0.7631531,-0.72006226,-3.1111298,-0.73223877,-0.5831604,-2.673388,-6.4093657,-0.026501417
1570715211,-0.7254486,0.7631531,-0.72006226,-3.1111298,-0.73223877,-0.5831604,-2.673388,-6.4093657,-0.026501417
1570715211,4.1276093,19.612701,1.2186432,-5.204376,-5.3661346,-2.2492218,1.3599626,12.413622,-3.9972162
1570715211,3.131012,19.612701,5.5749054,-4.84964,-5.7602844,-3.1547089,2.208662,12.411865,3.8712997
1570715211,19.524109,19.612701,-1.8752594,-1.1457214,4.237213,0.07518005,18.769722,12.534675,-4.471652
1570715211,19.524109,19.612701,-1.8752594,-1.1457214,4.237213,0.07518005,18.769722,12.534675,-4.471652
1570715211,1.6448212,10.192123,1.2114716,-1.2479858,-2.1575623,-1.134964,1.7438172,3.5068083,-1.8419678
1570715211,-5.0930634,9.7444,4.6830597,-2.0575867,-4.1240387,-0.6481323,-4.936461,4.3944244,-4.878324
1570715211,6.353012,3.5045166,2.3965912,-0.4138794,-1.8550262,-0.54800415,4.66643,-2.7260647,-1.8783431
1570715211,4.4179077,-5.1768646,3.7008362,2.3558044,0.18281555,-0.39672852,3.5916624,-12.105782,0.9434538
1570715211,4.3101654,-5.154709,3.3399048,2.4325104,0.362854,-0.38182068,3.5916624,-12.105782,0.9434538
1570715211,3.1094666,-5.909485,-0.25917053,2.157669,0.9327698,-0.12402344,2.2047973,-13.3008995,-4.1379595
1570715211,2.7766724,-2.1799164,1.7663269,1.5430145,2.689392,0.048553467,2.2772312,-9.674635,0.17131615
1570715211,0.07362366,2.4295197,4.260483,0.01222229,2.4230804,0.20513916,-0.31420332,-4.9139605,1.977958
1570715211,15.597031,19.612701,-10.709259,0.41383362,4.534424,1.9788055,7.5592184,12.539999,-10.477258
1570715211,15.597031,19.612701,-10.709259,0.41383362,4.534424,1.9788055,7.5592184,12.539999,-10.477258
1570715211,-0.9463043,4.142563,-10.360901,-0.803772,2.0406494,1.5654907,-1.2293006,-2.821642,-12.045577
1570715211,-0.9463043,4.142563,-10.360901,-0.803772,2.0406494,1.5654907,-1.2293006,-2.821642,-12.045577
1570715211,-3.569748,19.612701,15.012238,4.021881,-6.596527,0.92951965,-4.7497063,12.484632,14.185154
1570715211,-3.569748,19.612701,15.012238,4.021881,-6.596527,0.92951965,-4.7497063,12.484632,14.185154
1570715211,-5.5036774,10.522522,19.145828,6.7521515,6.1962433,-1.9360352,-7.266458,3.6533341,19.443556
1570715211,-5.5036774,10.522522,19.145828,6.7521515,6.1962433,-1.9360352,-7.266458,3.6533341,19.443556
1570715211,-5.9196625,3.743332,-2.1278534,-0.696167,-1.1775208,-1.3096619,-5.933037,-2.780355,-2.501823
1570715211,-4.853653,2.9723969,3.8325195,-0.8431854,-2.7200165,-0.1687622,-6.7751384,-4.357534,4.1849937
1570715211,-3.2172089,0.66259766,-1.6537933,-0.8783417,-0.21878052,1.1628113,-4.7439914,-7.055065,-0.0075792074
1570715211,-2.6701355,1.075592,1.5927429,-1.9265594,-2.457962,0.81340027,-4.669194,-6.123138,2.0378873
1570715211,-2.355896,1.2395935,2.7252045,-1.9617157,-2.3631592,0.4309845,-4.044792,-5.78899,3.517817
1570715211,-0.6500244,2.4331055,0.25198364,-2.8746338,-1.5801849,-0.0068511963,-2.8140106,-5.1161857,1.222435
1570715211,5.1876373,19.612701,-0.20231628,-4.68985,-4.601288,-2.2279205,1.982038,12.397881,-2.7396863
1570715211,5.11821,19.612701,2.8048096,-4.560959,-4.941101,-2.902237,3.9643545,12.401297,-0.5706878
1570715211,11.44368,19.612701,7.321472,-1.9084473,5.2438965,1.1170044,8.058519,12.465046,6.8828297
1570715211,9.818619,15.75444,1.4239502,-0.5299988,-0.38815308,-2.139511,11.453991,9.868418,-2.0103502
1570715211,0.5404968,11.867462,-0.10534668,-1.1638184,-1.6291962,-1.2073975,0.8362052,5.193063,-1.8836348
1570715212,0.68473816,6.5247955,0.6069336,-1.5111084,-1.770874,-0.38182068,-0.27823782,0.022416115,-1.0344617
1570715212,5.6742554,3.2070312,2.0787659,-0.4660797,-2.564499,-0.675827,5.2265453,-2.6348605,-2.4883375
1570715212,5.7269287,-3.6343994,3.6768951,0.7046509,-1.2435608,-0.60765076,4.978454,-10.294504,0.2384789
1570715212,3.8127594,-6.551132,1.0211334,2.0863037,1.1479492,-0.13574219,3.146949,-13.638697,-1.720649
1570715212,3.8127594,-6.551132,1.0211334,2.0863037,1.1479492,-0.13574219,3.146949,-13.638697,-1.720649
1570715212,1.9177551,-3.154953,0.80145264,1.3896179,2.448639,0.24136353,1.3738871,-10.512834,-1.3583496
1570715212,-0.03352356,1.8183899,6.0064545,0.5832062,3.1154938,0.37132263,0.1539467,-6.141461,3.3272333
1570715212,2.786255,4.5908813,3.5990906,-0.15182495,3.3296204,0.5641327,1.5943917,-2.1464176,2.340778
1570715212,6.163269,18.139664,-7.858368,-0.05807495,3.4478607,0.67811584,10.955195,12.464867,-9.735043
1570715212,1.8866272,10.156799,-12.267883,-0.4884491,2.6350555,1.3140869,2.0642653,5.4125395,-12.598449
1570715212,-1.5400696,4.553177,-10.013748,-1.3672943,-0.4414215,1.9255371,-2.0680885,-2.6337776,-11.606853
1570715212,-3.1328125,19.612701,6.9461823,5.136154,-6.150177,0.46826172,-4.406306,12.497308,6.469657
1570715212,-3.1328125,19.612701,6.9461823,5.136154,-6.150177,0.46826172,-4.406306,12.497308,6.469657
1570715212,2.206253,17.897263,9.867706,5.693283,1.9511566,-1.722992,0.30344868,10.812588,10.456013
1570715212,1.7202301,9.07402,19.612701,6.5295105,7.5864105,-1.8912964,-2.772776,2.3779006,20.540401
1570715212,-5.37558,2.8167725,-5.6425323,-0.6748657,0.025161743,-1.3810425,-6.463953,-4.3010077,-4.2356887
1570715212,-1.0402832,0.28790283,11.088745,-0.6450348,-1.2659302,0.40008545,-2.919692,-6.9883113,11.99685
1570715212,-3.9480438,1.138443,-0.8343811,-0.9667511,-0.45207214,1.0744019,-5.3200507,-6.0489016,0.7098874
1570715212,-3.6667175,1.7154388,1.0307007,-1.4642334,-1.9040375,0.57691956,-5.533038,-5.436881,1.8133314
1570715212,-0.46746826,5.6868286,-3.478775,-3.5265808,-1.4299927,-0.3882141,-2.0010438,-1.8207669,-3.085803
1570715212,-0.46746826,5.6868286,-3.478775,-3.5265808,-1.4299927,-0.3882141,-2.0010438,-1.8207669,-3.085803
1570715212,-1.9955597,14.203003,-7.578247,-4.4277954,-3.5115204,-0.6555939,-4.627848,4.9175525,-9.165018
1570715212,-4.415512,19.612701,6.4823,-3.5894318,0.3585968,-0.47769165,-5.6670313,12.322609,3.400229
1570715212,-4.415512,19.612701,6.4823,-3.5894318,0.3585968,-0.47769165,-5.6670313,12.322609,3.400229
1570715212,19.612701,19.612701,-2.2421722,-0.2796631,1.3130646,-1.0124512,18.717402,12.37979,-5.5457087
1570715212,-0.49620056,16.239868,-12.337326,-1.6463928,-2.7285461,-1.0902252,-0.73382574,9.021538,-15.52335
1570715212,-5.5216217,8.661026,7.092224,-1.9883423,-2.2758026,-1.24469,-6.2816744,2.065878,3.6273975
1570715212,4.2161865,-5.3869476,3.877411,0.42341614,-1.2382355,-0.67370605,3.7690332,-12.181849,0.5284972
1570715212,4.2161865,-5.3869476,3.877411,0.42341614,-1.2382355,-0.67370605,3.7690332,-12.181849,0.5284972
1570715212,2.0506287,-7.843399,0.9235687,1.4141083,1.4600677,0.48423767,1.5310235,-14.877818,-1.4929566
1570715212,2.0506287,-7.843399,0.9235687,1.4141083,1.4600677,0.48423767,1.5310235,-14.877818,-1.4929566
1570715212,4.182068,3.4416656,5.0589447,0.50756836,3.566101,0.6099396,3.0260475,-4.8684564,2.528813
1570715212,4.743515,4.6627045,5.755066,0.5278168,3.43721,0.5375061,4.0490637,-2.8706317,3.1600497
1570715213,19.510345,19.612701,-18.978241,-0.20509338,7.27536,1.5782623,19.217257,12.44398,-21.088507
1570715213,17.756592,19.612701,-16.397888,-0.28604126,6.7416534,1.2054291,19.217257,12.44398,-21.088507
1570715213,-3.3710327,1.8806458,-16.030975,0.27427673,-0.68429565,2.271759,-3.7507982,-5.405774,-17.569683
1570715213,2.565979,19.612701,-7.933182,-1.1766052,-7.0364685,2.3772125,1.1104902,12.17779,-12.865034
1570715213,3.831314,19.612701,15.471329,1.3874817,-6.8425903,0.8112793,2.1774108,12.504505,12.947023
1570715213,-2.7814636,19.402008,10.836761,6.4197845,-3.7352142,-0.9826355,-4.314747,12.21208,11.444663
1570715213,1.1139069,10.621872,16.989258,6.6392365,4.4779663,-1.6090088,-0.7175633,3.687667,17.386106
1570715213,6.5786743,6.308716,-2.1649628,1.6143799,8.544083,-1.962677,5.8064013,-0.4398818,0.4144169
1570715213,-6.961136,-1.0420837,2.80661,-0.696167,-1.421463,0.29888916,-10.107723,-7.998922,2.2477949
1570715213,-0.34117126,1.067215,9.362518,-0.33291626,-0.21559143,0.7910309,-1.8749313,-6.0021877,11.004569
1570715213,-3.2225952,1.9183502,2.2188263,-1.5366669,-2.408966,0.3329773,-4.9251604,-5.143123,2.5271082
1570715213,-3.2225952,1.9183502,2.2188263,-1.5366669,-2.408966,0.3329773,-4.9251604,-5.143123,2.5271082
1570715213,-2.1452026,2.3624725,1.774704,-2.2440033,-1.0944366,-0.012176514,-3.9531841,-4.8027935,3.1223478
1570715213,-1.7154388,12.515091,-6.4571686,-4.467209,-1.5471649,-0.5970001,-2.9157128,3.542244,-5.4551797
1570715213,4.8051605,19.612106,6.5595093,-4.632324,-2.9309387,-3.0279388,2.6971257,12.370688,3.530434
1570715213,-2.9550476,16.854584,1.9003906,-2.5625153,-1.7208099,-3.317688,-2.7094572,9.6798115,2.104712
1570715213,5.3552246,17.076645,10.010757,-2.9598541,-2.7146912,-0.71951294,6.546816,10.45506,6.237334
1570715213,5.3552246,17.076645,10.010757,-2.9598541,-2.7146912,-0.71951294,6.546816,10.45506,6.237334
1570715213,-0.78289795,17.100586,-1.4143677,-1.4120331,0.08055115,-0.5213623,-0.7175119,10.408728,-1.7303622
1570715213,-1.7375946,7.4333954,-10.300461,-2.1364136,-3.5583801,-0.70458984,-2.5474033,1.8993788,-11.048523
1570715213,4.8638153,1.0642242,3.8648376,-0.95077515,-1.9082947,-0.6119232,3.7281365,-5.374627,0.7843962
1570715213,5.1373596,-4.6387634,3.5356445,0.42767334,-0.060058594,-0.6129761,4.432833,-10.85544,0.9438119
1570715213,3.1316223,-7.7015533,-0.4333496,1.742218,1.1554108,-0.17622375,2.465953,-14.609667,-3.292162
1570715213,2.5234833,-1.8734589,1.3820496,1.0284882,1.9255981,0.40647888,1.9173505,-9.477243,-2.0249279
1570715213,2.4444733,-1.5675964,1.9440918,0.94007874,2.020401,0.3894348,1.8383579,-8.676495,-0.56937337
1570715213,0.80145264,2.3343506,9.767151,0.20503235,3.406311,0.13163757,0.13523465,-4.649101,7.5966234
1570715213,2.8700562,10.249573,-3.5194702,1.4780273,2.8491821,0.12844849,4.1990147,-0.17814255,-5.677189
1570715213,11.215637,19.612701,-7.732071,0.6215515,5.968277,0.8432312,16.838142,12.496502,-11.207633
1570715213,-0.8355713,5.3977203,-13.260284,0.23486328,1.8552856,1.7242126,-1.067989,-1.9030519,-13.820172
1570715213,1.9614563,19.612701,12.323547,0.34777832,-8.304138,1.5899811,0.26625252,12.520735,7.8075914
1570715213,1.9614563,19.612701,12.323547,0.34777832,-8.304138,1.5899811,0.26625252,12.520735,7.8075914
1570715213,-3.1363983,19.612701,7.455551,5.6996765,-4.8175354,-0.3445282,-4.5829096,12.355192,7.8662066
1570715213,1.3066406,17.782928,11.68071,4.899658,2.8704834,-1.5898285,-0.4196105,10.056835,12.131032
1570715213,12.433685,5.788574,18.358139,5.4962006,12.39502,-1.9179382,9.509248,-1.4408922,21.145523
1570715214,-2.1954803,3.525467,-7.0413513,-0.8325348,4.2872925,-1.726181,-0.03142464,-2.2538676,-7.5952053
1570715214,-2.0296783,3.6463623,6.933609,-0.8889923,-2.7200165,1.2799988,-3.9960036,-3.818492,7.9276085
1570715214,-3.5589752,3.272873,2.6820984,-1.1851349,-0.6352997,0.77719116,-5.498973,-4.208454,3.969415
1570715214,-1.407196,1.8183899,2.4001923,-2.0863495,-0.78230286,-0.24333191,-3.0167916,-4.9217377,3.6580415
1570715214,1.0013733,0.5602417,1.5227051,-2.8245697,-0.6448822,-0.4414673,-0.44899154,-6.6282268,1.9964701
1570715214,-2.2230225,2.8329468,-3.111267,-3.481842,-0.7471466,-0.3360138,-3.3127441,-4.672688,-2.9517474
1570715214,-1.3407593,19.612701,8.746613,-3.9644012,-5.274521,-3.6820068,-1.9117193,12.480164,6.3252993
1570715214,-3.5583801,19.612701,8.087616,-3.7598724,-2.5730133,-3.3123627,-3.876162,12.494904,5.9588237
1570715214,19.612701,19.612701,-6.672638,-0.18910217,0.19241333,-0.7621155,19.202332,12.514787,-9.439007
1570715214,16.387115,17.883484,-0.056869507,-1.0562286,-1.4129486,-1.7389679,19.117577,12.393711,-7.5058537
1570715214,2.0392609,5.0433807,0.18435669,-1.328949,-1.9328003,-0.38075256,-1.6544163,-1.7576027,-2.773704
1570715214,2.0392609,5.0433807,0.18435669,-1.328949,-1.9328003,-0.38075256,-1.6544163,-1.7576027,-2.773704
1570715214,7.15567,-6.704956,4.6986237,1.0988007,0.25738525,-0.36264038,6.4772983,-13.439962,1.6778693
1570715214,7.15567,-6.704956,4.6986237,1.0988007,0.25738525,-0.36264038,6.4772983,-13.439962,1.6778693
1570715214,4.2089996,-8.156448,-0.9115906,1.4343567,1.239563,-0.42549133,3.795742,-14.92325,-3.7765577
1570715214,2.7365723,-3.7900238,2.1374207,1.5153198,2.3101501,0.47891235,2.6460118,-11.4420805,-0.82490253
1570715214,-0.873291,-0.6685791,4.679474,1.3949432,2.4379883,0.8762512,-0.36095437,-8.288002,1.7818103
1570715214,-0.7691345,4.9386444,7.0575104,1.343811,1.8680725,1.1617432,-1.2560382,-2.165669,4.960307
1570715214,3.9396515,16.578049,-6.072891,-0.012268066,3.4563751,0.52685547,4.5195518,10.930805,-7.9348364
1570715214,2.1021118,13.864822,-6.742676,0.08572388,3.1655579,0.6525574,4.5195518,10.930805,-7.9348364
1570715214,-0.39743042,2.731781,-9.026138,-0.6706085,-1.2531586,1.9457855,-1.2708626,-4.2298403,-10.393132
1570715214,3.24234,15.581467,-4.636963,0.74513245,-9.512146,0.6674652,1.6768888,6.415207,-8.806699
1570715214,-1.8950043,19.612701,8.282745,1.964859,-6.6998444,-0.16343689,-3.7018504,12.653453,5.7326684
1570715214,1.608902,15.796936,8.419205,4.7292175,1.8488922,-1.5386963,-0.42770016,9.600199,10.403059
1570715214,0.50756836,11.630432,7.189789,4.927353,4.8987427,-2.2438965,-0.88620806,4.6002083,7.259783
1570715214,13.361435,7.1377106,3.9210968,4.054901,13.221664,-1.4279022,11.954092,-1.3967371,14.836768
1570715214,-10.567413,2.4564514,0.50816345,-1.7444,-2.5719452,0.965744,-12.802131,-5.16944,-1.4954598
1570715214,-3.640976,5.309143,7.711731,-1.2117615,-3.0577087,1.6613617,-6.48993,-2.6232715,8.441596
1570715214,-4.806961,1.0528564,0.15441895,-1.3119049,-0.95062256,0.38090515,-6.558133,-5.852212,1.0929024
1570715214,-0.19392395,1.1354523,0.4584961,-3.0866241,-0.90800476,-0.60446167,-1.9584489,-6.1095448,0.5742277
1570715214,-0.19392395,1.1354523,0.4584961,-3.0866241,-0.90800476,-0.60446167,-1.9584489,-6.1095448,0.5742277
1570715214,-4.273651,9.660599,-5.8017426,-3.7108765,-2.9373322,-0.95173645,-5.1214867,2.4092293,-6.0646715
1570715214,-4.28981,19.612701,8.040329,-3.530838,-3.2100525,-2.6859894,-4.621149,12.556999,6.154743
1570715214,-4.28981,19.612701,8.040329,-3.530838,-3.2100525,-2.6859894,-4.621149,12.556999,6.154743
1570715215,9.586975,15.964539,1.8501129,-0.5257263,0.7910919,-1.726181,12.4274025,11.591324,-2.5060725
1570715215,2.8682556,13.512878,-4.8913574,-0.72706604,-1.8656769,-1.2265778,3.0084205,6.389841,-5.3923373
1570715215,2.90477,5.020645,-0.35972595,-0.5491638,-0.95274353,-0.3956604,1.9155623,-1.931695,-3.310862
1570715215,2.90477,5.020645,-0.35972595,-0.5491638,-0.95274353,-0.3956604,1.9155623,-1.931695,-3.310862
1570715215,5.5641174,-4.597473,1.8088226,1.1723022,-0.39561462,-0.4350891,5.4292326,-10.796659,-0.67743826
1570715215,5.0260315,-5.9633636,3.4183197,1.789093,0.012374878,-0.36584473,4.7928357,-12.741011,0.8271768
1570715215,2.2816772,-6.0770874,0.82839966,2.030899,1.8531494,0.27012634,2.018783,-13.156757,-1.246597
1570715215,1.5526428,-2.4139557,3.3177643,1.1105194,2.7831268,0.30633545,1.3291739,-9.627001,1.2323346
1570715215,-0.058059692,0.5087738,7.786545,0.8111725,3.6768951,0.27545166,0.37985194,-6.9876676,4.9520674
1570715215,0.61172485,5.1379547,4.70401,0.5107727,4.3043365,0.6078186,-0.071395084,-2.3161902,4.988953
1570715215,2.936493,12.80957,-3.6104584,0.17414856,1.668869,0.6333771,3.231207,6.5224032,-5.005562
1570715215,2.936493,12.80957,-3.6104584,0.17414856,1.668869,0.6333771,3.231207,6.5224032,-5.005562
1570715215,2.1613617,19.531296,-9.275742,-0.28604126,-7.2442017,1.9745483,0.45253086,9.143227,-13.623345
1570715215,2.1613617,19.531296,-9.275742,-0.28604126,-7.2442017,1.9745483,0.45253086,9.143227,-13.623345
1570715215,-1.4365234,19.612701,19.322998,5.1606445,0.58761597,-0.7589264,-3.2653446,12.430519,19.3087
1570715215,-1.4365234,19.612701,19.322998,5.1606445,0.58761597,-0.7589264,-3.2653446,12.430519,19.3087
1570715215,-0.6428375,14.774017,12.825134,7.505295,3.9240265,-1.9115448,-2.1790605,7.937994,13.267187
1570715215,-7.9960327,4.720764,-0.933136,-0.78352356,-1.3277283,0.6152649,-9.692356,-2.7333121,0.053441525
1570715215,-7.9960327,4.720764,-0.933136,-0.78352356,-1.3277283,0.6152649,-9.692356,-2.7333121,0.053441525
1570715215,-4.604645,0.78230286,5.21756,0.102767944,0.17004395,1.2118225,-5.7883277,-6.08441,8.047712
1570715215,-5.379776,1.869873,2.0805664,-1.0136261,-0.60227966,0.138031,-7.1396437,-5.0180163,3.4337525
1570715215,-4.680069,0.5883789,0.45968628,-2.0970001,-0.50852966,-0.50431824,-6.8227377,-6.0225997,1.8910272
1570715215,0.9223633,1.2216339,-0.48243713,-3.7151337,-0.8121338,-0.74720764,-0.96444345,-5.987983,0.20488524
1570715215,-1.8872223,12.137405,-10.485413,-4.785721,-4.144287,-1.2425537,-2.691156,4.778663,-10.286223
1570715215,3.918106,19.612701,0.030532837,-5.2906647,-7.025818,-2.058548,2.4159942,12.49552,-1.8524582
1570715215,-3.281845,19.612701,10.411789,-4.0773315,0.80493164,0.0826416,-4.6085343,12.570572,8.266293
1570715215,17.566864,18.398834,-2.3582916,-0.6088257,2.0513,-2.0074158,18.965883,12.6430645,-3.3369422
1570715215,-5.020645,7.673416,9.879074,-1.6964569,-2.8095093,-0.9826355,-5.5999036,1.2371354,7.530324
1570715215,-5.020645,7.673416,9.879074,-1.6964569,-2.8095093,-0.9826355,-5.5999036,1.2371354,7.530324
1570715215,3.0089111,2.688095,-0.89842224,-0.33717346,-2.0627594,-0.84521484,1.8910425,-3.1923814,-3.9895306
1570715215,4.711792,-6.3739624,1.8554993,1.1137085,-0.35939026,0.6344452,3.9105797,-13.01799,-1.4539177
1570715215,4.9200897,-6.118988,2.0177155,1.2596436,-0.073913574,0.6951599,4.063262,-12.81274,-0.96413493
1570715216,0.11671448,2.079361,7.376541,1.3193054,3.8089752,-0.74295044,-0.18846428,-5.1948924,4.7797604
1570715216,0.11671448,2.079361,7.376541,1.3193054,3.8089752,-0.74295044,-0.18846428,-5.1948924,4.7797604
1570715216,1.9117737,5.170273,2.1380157,0.37654114,4.0657043,-0.020690918,0.9776904,-2.0199022,0.5801811
1570715216,19.612701,19.612701,-8.640076,0.004776001,4.519516,1.6517639,18.4494,12.664158,-11.66626
1570715216,19.612701,19.612701,-8.640076,0.004776001,4.519516,1.6517639,18.4494,12.664158,-11.66626
1570715216,2.8706512,4.632782,-6.498459,-0.3595581,2.6478424,1.0253906,3.0364645,0.1397314,-8.385414
1570715216,2.0332794,19.612701,-0.89723206,0.7706909,-5.351227,2.1673584,0.5696138,12.701759,-3.2720199
1570715216,2.0332794,19.612701,-0.89723206,0.7706909,-5.351227,2.1673584,0.5696138,12.701759,-3.2720199
1570715216,-3.9863434,18.446732,17.678192,6.4975586,0.48109436,-0.17729187,-5.9938207,11.710715,18.762568
1570715216,-1.7992401,18.668793,9.849747,7.2304535,3.1889954,-0.818573,-4.182767,11.717447,12.929793
1570715216,-3.5164795,7.1526794,-3.7427368,-0.09536743,3.4787445,-1.4747772,-3.8441534,0.5505681,-3.109798
1570715216,-5.9585724,5.981308,-3.5140839,-0.2689972,2.1610107,-1.37677,-3.8441534,0.5505681,-3.109798
1570715216,-0.33099365,0.6458435,4.28862,-0.09536743,0.6089325,0.39794922,-1.738987,-6.489769,5.929244
1570715216,-0.7338257,0.7338257,3.6176453,-0.22958374,0.43849182,0.41073608,-1.738987,-6.489769,5.929244
1570715216,-3.091507,1.0971375,2.087738,-1.8285522,-1.2467651,0.5886383,-4.7450557,-6.5404835,3.6912558
1570715216,-0.16819763,8.570038,-2.6851044,-3.5244446,-1.5897827,-0.3125763,-1.5115025,-0.7335329,-2.276694
1570715216,-0.16819763,8.570038,-2.6851044,-3.5244446,-1.5897827,-0.3125763,-1.5115025,-0.7335329,-2.276694
1570715216,-1.2449799,19.612701,4.610031,-3.452011,-4.479843,-2.5549622,-2.1544986,12.401738,3.5711224
1570715216,-1.2449799,19.612701,4.610031,-3.452011,-4.479843,-2.5549622,-2.1544986,12.401738,3.5711224
1570715216,19.612701,19.612701,6.758835,-1.2714233,2.2121582,-0.94215393,18.75175,12.48567,4.70675
1570715216,19.612701,19.612701,6.758835,-1.2714233,2.2121582,-0.94215393,18.75175,12.48567,4.70675
1570715216,-2.403778,12.5533905,-19.612701,-1.2426605,-1.0976257,-1.31073,-2.160074,5.5068617,-22.134712
1570715216,-3.6080627,9.464874,7.570465,-1.9553223,-1.4321136,-1.7922363,-4.001504,3.143292,4.4832625
1570715216,4.668091,-0.19812012,-6.463745,-0.07299805,-2.090454,-1.6154022,5.2124343,-5.4342346,-9.479934
1570715216,2.8634644,-10.25975,1.1336517,0.5437927,-1.5386505,-0.5394745,2.7863941,-16.4188,-3.1024787
1570715216,3.712204,-10.433929,5.6401367,1.5398102,1.5644684,0.08369446,3.947959,-17.527828,4.3272038
1570715216,3.4536285,-6.1836243,1.5394745,1.8647156,3.2688904,0.7420349,3.5864234,-13.356028,-0.8961952
1570715216,4.4687805,18.367722,15.3594055,-0.756897,3.644928,0.92100525,3.5201082,10.575697,13.680208
1570715216,11.917145,19.612701,-13.406326,1.1435394,6.0694733,1.555893,8.03357,12.5646305,-10.223452
1570715216,19.612701,19.612106,-19.612701,0.9240875,6.2494965,1.6784058,14.359853,12.547153,-17.84759
1570715216,3.6864777,9.294296,-5.977127,-0.998703,3.3189545,1.7061005,3.8511934,3.0300822,-7.968539
1570715216,3.1304169,19.612701,-10.727219,-0.20082092,-5.71875,2.52742,2.3257704,11.454064,-16.911066
1570715216,3.059784,19.612701,-10.727219,-0.20082092,-5.71875,2.52742,2.3257704,11.454064,-16.911066
1570715216,1.2545624,19.612701,5.930435,3.5243988,-5.990387,6.1035156E-4,0.15559292,12.459869,3.2960255
1570715217,-6.448181,13.611633,19.612701,9.239548,3.688614,-0.4393463,-10.6528845,6.882634,19.511074
1570715217,-8.603561,3.158554,-11.647186,-0.311615,2.5338593,-1.6164551,-6.5667562,-2.0808716,-9.531217
1570715217,-9.982025,2.5761566,-10.3112335,-0.44477844,0.64302063,-1.374649,-11.050073,-4.286268,-9.531217
1570715217,-0.46687317,-0.383667,5.7927704,0.24765015,0.89442444,0.6333771,-1.4534143,-7.1426797,8.784489
1570715217,-4.266464,0.4980011,0.32202148,-1.2692871,-0.40626526,0.8613434,-5.676332,-6.900032,2.022859
1570715217,-3.6463623,-0.28909302,5.240906,-1.3576965,-2.0307922,0.19448853,-5.3666363,-7.2793617,5.889789
1570715217,-3.7864227,-0.2819214,5.831085,-1.4141693,-1.7911072,0.17211914,-5.3666363,-7.2793617,5.889789
1570715217,-0.4740448,2.7054443,1.8357544,-2.713791,0.6600647,-0.40312195,-2.2441297,-4.248031,2.9724736
1570715217,-1.719635,15.540756,-11.948257,-5.105301,-3.301651,-0.92404175,-4.357324,4.867732,-13.448112
1570715217,-4.38678,19.612701,7.961319,-3.7577515,-0.8068085,-0.7077942,-5.0456314,12.443193,5.0953755
1570715217,-4.38678,19.612701,7.961319,-3.7577515,-0.8068085,-0.7077942,-5.0456314,12.443193,5.0953755
1570715217,19.612701,19.082977,3.837906,-0.01121521,3.0803375,-1.740036,18.98198,12.48752,4.304511
1570715217,2.9789886,9.649826,-2.8622742,-0.7643585,1.717865,-0.8697052,3.8716679,2.3542924,-2.7356591
1570715217,7.179611,1.1970978,-0.6859436,-0.38830566,-0.43395996,-0.72802734,6.8860617,-5.5477967,-4.006568
1570715217,7.1604614,0.5698242,0.0018005371,-0.29031372,-0.46592712,-0.7184448,6.8860617,-5.5477967,-4.006568
1570715217,5.4922943,-3.85466,2.1613617,0.62687683,-0.06645203,-0.20498657,5.31555,-10.672762,-0.6224797
1570715217,0.917572,-5.7526703,-0.47824097,1.4876251,0.8869629,0.5918274,0.81009686,-12.745699,-2.4876955
1570715217,0.7523804,-5.7933655,-0.4985962,1.4535217,0.8731079,0.62379456,0.81009686,-12.745699,-2.4876955
1570715217,-3.5553894,3.802597,9.131485,-0.6833954,3.0814056,0.21260071,-4.5446353,-2.626288,8.169324
1570715217,-3.5553894,3.802597,9.131485,-0.6833954,3.0814056,0.21260071,-4.5446353,-2.626288,8.169324
1570715217,4.213196,19.612701,-9.17099,-0.35421753,2.718155,0.6078186,3.7355065,12.706188,-10.796953
1570715217,3.727768,12.407349,-7.167038,-0.36061096,2.5210724,0.9976959,3.815077,5.8640094,-8.759358
1570715217,1.0893555,2.8927917,-7.340622,-1.1744843,0.8635254,1.3353882,1.1452783,-3.3770194,-9.655709
1570715217,-0.029327393,4.7459106,-11.942871,-1.0711517,-2.5005798,1.6325989,-0.69064736,-2.9055834,-13.769064
1570715217,1.9105682,19.612701,2.8568878,1.9595337,-6.2407227,1.4429779,0.50762975,12.732334,-0.5399711
1570715217,-1.4610596,16.70076,14.966156,5.5526733,0.52796936,-0.8942108,-2.0871089,10.124844,13.482549
1570715217,-1.4610596,16.70076,14.966156,5.5526733,0.52796936,-0.8942108,-2.0871089,10.124844,13.482549
1570715217,-6.320694,4.7297516,-5.1595,-0.92733765,1.0339661,-1.27771,-5.3733573,-1.7427597,-4.427994
1570715217,-6.320694,4.7297516,-5.1595,-0.92733765,1.0339661,-1.27771,-5.3733573,-1.7427597,-4.427994
1570715217,-2.5779572,2.403183,4.0970764,-0.6737976,0.6589966,0.72817993,-4.2197475,-4.5813017,5.4951925
1570715217,-2.5779572,2.403183,4.0970764,-0.6737976,0.6589966,0.72817993,-4.2197475,-4.5813017,5.4951925
1570715217,-3.3578644,-1.1994934,-0.8349762,-1.713501,-2.2246704,0.020843506,-5.0497694,-8.325883,-0.38680544
1570715217,-3.3883972,-1.0390778,-0.94091797,-1.7902069,-2.2779388,0.0155181885,-5.0497694,-8.325883,-0.38680544
1570715218,1.3868408,18.119919,-6.0064545,-4.679199,-4.378647,-1.058258,-0.6300069,9.847749,-6.9525623
1570715218,-1.8088226,18.896835,5.349243,-3.6949005,-3.5743713,-3.380539,-2.5439563,11.846461,4.0815935
1570715218,-2.3313599,18.902817,5.0613403,-3.6490936,-3.2760925,-3.2228851,-2.5439563,11.846461,4.0815935
1570715218,6.44339,11.928513,1.4389191,-1.1126862,-1.531189,-1.3480072,9.015144,6.8216195,-2.4158342
1570715218,6.44339,11.928513,1.4389191,-1.1126862,-1.531189,-1.3480072,9.015144,6.8216195,-2.4158342
1570715218,-3.0178986,8.681381,3.49852,-1.6186981,-2.341858,-0.7599945,-3.6942015,2.10879,1.5584712
1570715218,-3.0178986,8.681381,3.49852,-1.6186981,-2.341858,-0.7599945,-3.6942015,2.10879,1.5584712
1570715218,3.8510742,-4.0491943,2.2876587,0.5885315,-0.67897034,-0.42337036,3.022839,-10.80675,-0.8649912
1570715218,3.8510742,-4.0491943,2.2876587,0.5885315,-0.67897034,-0.42337036,3.022839,-10.80675,-0.8649912
1570715218,2.3205872,-5.234329,1.2683258,1.9819031,1.9394379,0.3968811,1.701978,-12.296085,-1.2693865
1570715218,2.3205872,-5.234329,1.2683258,1.9819031,1.9394379,0.3968811,1.701978,-12.296085,-1.2693865
1570715218,0.20889282,1.6053162,4.1377716,0.89320374,2.8598328,-0.09739685,0.65259445,-5.8078513,1.2718604
1570715218,2.7521362,2.9664154,1.7405853,0.091049194,3.2742157,0.5193939,2.0873895,-4.182625,0.2050507
1570715218,5.8795624,13.120819,-3.1010895,0.5235596,2.7160187,0.4394989,5.68914,4.608709,-4.7373676
1570715218,8.482651,19.612701,-6.463745,0.18266296,3.3083038,0.86987305,9.515285,12.556555,-8.356668
1570715218,-0.33338928,5.110428,-5.439621,-0.756897,1.8052216,1.9319305,-0.9092628,-1.5671353,-7.528185
1570715218,-0.25737,19.612701,-1.2186432,-0.82081604,-4.4532013,1.2895813,-1.5845805,12.684618,-4.728702
1570715218,-4.799774,18.642456,5.126587,5.8733063,-6.517685,-0.45639038,-6.2190266,11.791053,4.1571054
1570715218,-4.799774,18.642456,5.126587,5.8733063,-6.517685,-0.45639038,-6.2190266,11.791053,4.1571054
1570715218,-2.652176,10.994766,19.612701,7.667221,4.4832916,-1.9807739,-4.518843,4.0806875,20.43117
1570715218,8.292923,7.90625,-8.503006,0.5619049,8.963791,-1.4779816,9.866686,2.5124803,-6.068821
1570715218,-8.134308,2.4881744,-4.2706604,-1.0711517,-1.6483612,-0.8611908,-7.526586,-4.188889,-4.6039968
1570715218,-0.3824768,3.1124573,11.6418,-0.64398193,-1.2297211,1.0072784,-1.4837457,-3.864481,13.357878
1570715218,-3.7421417,-0.03352356,0.62368774,-1.8807526,-1.5844574,0.08369446,-5.5744624,-6.7517285,1.6861289
1570715218,-3.7421417,-0.03352356,0.62368774,-1.8807526,-1.5844574,0.08369446,-5.5744624,-6.7517285,1.6861289
1570715218,-1.5640106,8.533539,-5.6790466,-4.3063507,-2.5932617,-0.6907501,-2.20997,0.3695755,-3.9354222
1570715218,0.38127136,12.938858,-4.4095154,-4.752701,-3.6894073,-1.0561371,-1.4334223,5.0141215,-5.5409384
1570715218,-3.4590302,19.215866,4.7141876,-3.318863,-2.9511871,-2.6582947,-3.928716,12.011583,3.577118
1570715218,19.612701,19.612701,-3.6379852,-2.1438751,3.1240234,1.5026398,16.719814,12.445575,-0.21527576
1570715218,0.76194763,11.742355,2.6515808,-2.095932,-1.6504974,-0.35198975,0.49546027,4.7762794,-1.4119961
1570715218,0.76194763,11.742355,2.6515808,-2.095932,-1.6504974,-0.35198975,0.49546027,4.7762794,-1.4119961
1570715218,3.9127197,3.8474884,-1.822586,-0.70362854,-1.7911072,-0.7109833,3.201563,-2.6278152,-4.842505
1570715218,3.9127197,3.8474884,-1.822586,-0.70362854,-1.7911072,-0.7109833,3.201563,-2.6278152,-4.842505
1570715219,2.7138214,-6.712143,3.6846771,1.868988,-0.115448,-0.68222046,2.1541853,-13.513603,0.56730413
1570715219,2.7138214,-6.712143,3.6846771,1.868988,-0.115448,-0.68222046,2.1541853,-13.513603,0.56730413
1570715219,0.88764954,-5.621582,-0.30047607,2.8756561,2.0864563,0.31700134,0.41773337,-12.780718,-2.4332602
1570715219,2.6072845,-0.1885376,1.8190002,2.0053406,2.2206726,0.30633545,1.4700885,-9.105888,-0.98544693
1570715219,-0.34477234,5.6946106,7.45076,-0.803772,3.6310883,-0.20179749,-1.0539641,-1.1880355,6.240069
1570715219,5.1966095,13.949219,-4.6788635,0.22528076,4.2414856,0.54922485,5.004372,5.4380484,-6.0603485
1570715219,19.612701,19.612701,-13.5685425,0.72062683,4.2904816,1.8999786,18.03367,12.471804,-15.23991
1570715219,0.9534912,2.127243,-2.8245544,-0.57899475,1.940506,1.7668152,0.7816566,-4.543455,-4.7679486
1570715219,-2.063797,3.6852722,-9.996384,-0.9763336,0.7154541,2.2632294,-2.214289,-5.0111217,-9.807455
1570715219,2.2277985,19.612701,-14.687225,-0.5683441,-4.684372,2.6488647,0.91616404,12.494179,-16.971972
1570715219,1.8770599,19.612701,3.617035,3.1185303,-6.167221,0.46507263,0.6185274,12.485935,2.5306056
1570715219,-2.999939,17.208923,10.515335,7.2901154,2.1375885,-1.5791779,-5.532479,10.003936,13.509974
1570715219,-1.1528015,9.120117,19.543869,7.3998413,6.6276703,-2.0436249,-3.9964418,3.5896525,17.718483
1570715219,-5.7179565,3.4835663,-6.8450165,-0.51828,2.5562286,-1.7048798,-4.206003,-2.9096575,-4.953062
1570715219,-8.865723,2.514511,-0.20170593,-0.7451782,-4.4425507,-0.0388031,-11.009885,-5.0144515,0.1259315
1570715219,-2.3193817,2.4779968,6.1375427,-0.09643555,0.0059814453,0.7739868,-3.294084,-4.4400177,10.437411
1570715219,-4.1994324,0.49499512,-0.7661438,-0.963562,-1.1317139,0.44589233,-5.6431594,-6.5821433,0.5869267
1570715219,-4.305374,1.4772186,4.399353,-1.7720947,-1.3586121,-0.5384064,-5.791889,-5.8122916,5.6328087
1570715219,1.5789795,7.7769623,-3.5045166,-4.0325775,-1.3586121,-1.4034119,0.5647037,-0.10641527,-3.293477
1570715219,1.9692383,19.582169,-6.695984,-5.0946503,-5.767746,-1.7901001,-0.7734552,12.326169,-10.298246
1570715219,-2.276291,19.612701,1.924942,-3.7151337,-4.7088776,-1.357605,-2.5148313,12.343475,1.7985489
1570715219,19.612701,19.612701,9.201523,-2.1374817,5.429245,-0.70991516,19.07624,12.504175,7.7065725
1570715219,19.612701,19.612701,9.201523,-2.1374817,5.429245,-0.70991516,19.07624,12.504175,7.7065725
1570715219,-6.00885,12.322357,2.1302338,-1.8541107,-3.9578552,-0.45425415,-5.625563,5.6604924,-1.9070995
1570715219,-7.0251923,11.316788,3.8822021,-1.8903351,-3.6734314,-0.4851532,-5.625563,5.6604924,-1.9070995
1570715219,5.3235016,-3.1806946,1.4993744,0.89746094,-1.2180023,-0.37542725,5.062248,-9.664975,-1.7785931
1570715219,5.3235016,-3.1806946,1.4993744,0.89746094,-1.2180023,-0.37542725,5.062248,-9.664975,-1.7785931
1570715219,2.1793213,-6.265625,0.38426208,2.8873749,1.5623322,0.6333771,2.0585108,-13.300693,-1.5063257
1570715219,2.1793213,-6.265625,0.38426208,2.8873749,1.5623322,0.6333771,2.0585108,-13.300693,-1.5063257
1570715219,-0.69311523,-0.30825806,2.9514465,1.709198,1.7711334,0.5918274,-1.0203129,-7.9642496,0.64025736
1570715219,3.8397064,18.635864,-13.962387,0.052703857,3.599121,0.38729858,4.2058973,6.6514153,-12.2640705
1570715219,3.0621796,19.612701,-14.788986,0.04524231,3.2816772,0.5321808,4.2058973,6.6514153,-12.2640705
1570715219,6.989868,15.869965,-3.9366608,-0.4607544,0.96365356,0.14442444,8.195772,9.8517685,-6.092799
1570715219,1.2240295,5.491699,-5.1636963,-0.39683533,0.7069397,1.2320557,1.1134998,-0.4628501,-6.391596
1570715220,2.9227142,19.612701,1.3293762,1.359787,-5.0231323,1.4706726,1.7502527,12.510599,-0.35023093
1570715220,2.9227142,19.612701,1.3293762,1.359787,-5.0231323,1.4706726,1.7502527,12.510599,-0.35023093
1570715220,3.731369,19.612701,-0.1771698,4.0570374,-4.3775787,0.6802521,2.1216562,12.364438,-1.2022984
1570715220,-3.5667572,11.630432,19.612701,8.501312,2.8044434,-0.87823486,-5.193419,5.5042915,20.134768
1570715220,6.0154266,8.741226,-8.364151,1.4471436,10.710831,-0.98475647,4.992994,2.137816,-6.2587304
1570715220,-2.29245,4.5507812,-7.952347,-0.53318787,4.9903564,-1.5546722,-2.9758759,-2.201985,-6.3958554
1570715220,-0.32740784,4.7536926,12.872421,-0.740921,-1.3713989,0.3649292,-1.9813311,-2.446527,14.058894
1570715220,-1.3263855,1.2479706,1.6537933,0.05696106,0.2882843,0.36813354,-2.6235232,-5.8781075,3.564558
1570715220,-2.937088,1.2114716,0.38008118,-1.1403961,-1.5386505,0.27331543,-4.5202417,-5.988707,1.1086117
1570715220,-1.845932,-0.07720947,5.1493225,-1.7710266,-1.534378,-0.22096252,-3.4416237,-7.37231,6.1587825
1570715220,0.7954712,9.416992,-4.052185,-4.118866,-1.1807098,-1.0540009,-0.50280905,1.4525671,-3.565251
1570715220,-0.12928772,19.612701,-2.5821533,-5.006241,-4.285965,-1.5930328,-1.6098768,12.25238,-3.944302
1570715220,-1.288681,19.612701,4.5082855,-3.3636017,-4.444687,-1.9211273,-1.7882392,12.210503,3.497358
1570715220,9.27095,19.612701,8.147461,-2.973709,2.339981,1.6624298,2.9611068,12.272833,5.108103
1570715220,1.5514374,13.2561035,1.5723877,-1.6368103,0.4555359,-0.60339355,3.4641342,7.47397,-1.4315741
1570715220,-3.0502167,16.090225,-4.938034,-1.0839233,-1.3341217,-0.92510986,-2.7102513,10.114305,-6.878005
1570715220,-2.3205872,6.3787537,-8.2204895,-1.5057831,-2.4632874,-0.816452,-3.0147197,-0.21646786,-10.219924
1570715220,5.7413025,1.9692383,3.4757843,-0.6823273,-2.298172,-0.818573,4.8131704,-4.201233,-0.6246939
1570715220,4.194046,-5.119995,3.6433716,0.92515564,-0.1388855,-0.67263794,3.6928058,-11.582978,0.8362899
1570715220,2.6671448,-7.4543457,-1.1629791,1.5366211,0.8667145,-0.21777344,2.2861009,-14.413763,-3.5362961
1570715220,2.4127502,-5.35643,1.209671,1.90094,1.9458313,0.04109192,2.0944486,-12.524075,-1.108094
1570715220,0.57699585,-1.1420288,4.518463,1.4077301,2.771408,-0.04838562,1.2843006,-8.913778,1.4878685
1570715220,-1.6238708,4.534012,12.641388,-0.0090789795,2.926941,0.19342041,-2.004133,-2.514419,11.009234
1570715220,4.912903,5.981308,-3.7445374,0.75471497,3.9922028,0.74417114,4.283492,-2.0463562,-3.4590163
1570715220,-0.49679565,5.2983704,-7.3944855,0.05909729,3.4968567,1.7476501,-0.5287876,-0.85255957,-8.196061
1570715220,-0.49679565,5.2983704,-7.3944855,0.05909729,3.4968567,1.7476501,-0.5287876,-0.85255957,-8.196061
1570715220,0.26156616,19.612701,-3.20224,-0.17738342,-8.844223,1.1180725,-0.73688245,12.450846,-6.0161858
1570715220,-0.48483276,19.612701,2.237381,0.5395355,-9.5355835,1.0253906,-1.5789299,12.441169,-0.8485693
1570715220,-1.7705078,19.612701,19.104538,5.465317,-7.4316864,-0.7067261,-3.139235,12.258805,18.02462
1570715220,9.9951935,7.873337,19.571396,6.1779785,8.489761,-2.2130127,5.715302,1.7008047,21.086987
1570715220,9.9951935,7.873337,19.571396,6.1779785,8.489761,-2.2130127,5.715302,1.7008047,21.086987
1570715220,-2.514511,2.5175018,7.1999664,-1.1371918,-2.4462433,1.1138153,-4.081879,-4.492549,8.152003
1570715220,-2.514511,2.5175018,7.1999664,-1.1371918,-2.4462433,1.1138153,-4.081879,-4.492549,8.152003
1570715221,-3.8043823,1.5699921,2.691681,-1.7081757,-0.49575806,-0.16664124,-5.4240875,-5.7063656,3.7109082
1570715221,-3.8043823,1.5699921,2.691681,-1.7081757,-0.49575806,-0.16664124,-5.4240875,-5.7063656,3.7109082
1570715221,-2.976593,10.210068,-6.60141,-4.084778,-3.4603882,-0.8835602,-3.7564197,2.7889285,-6.56159
1570715221,-2.976593,10.210068,-6.60141,-4.084778,-3.4603882,-0.8835602,-3.7564197,2.7889285,-6.56159
1570715221,4.7848053,19.612701,2.794632,-4.1241913,-6.418625,-1.9083405,3.6493826,12.274027,1.151335
1570715221,19.612701,19.612701,6.2135468,-2.4794312,4.0358887,1.9500427,17.708128,12.378913,4.145303
1570715221,19.612701,19.612701,6.7312927,-2.205658,4.263855,1.3961029,17.708128,12.378913,4.145303
1570715221,3.2070312,9.170395,1.6304474,-0.8740692,0.60147095,-1.3778381,5.519588,3.2959127,-3.1886022
1570715221,0.7523804,12.197266,-9.580994,-0.81121826,-1.91362,-0.5032654,0.48464233,4.7801366,-12.337387
1570715221,5.0308228,-0.8738861,-0.42736816,0.1581726,0.16471863,-0.7898102,4.85393,-7.633223,-3.0325208
1570715221,5.0308228,-0.8738861,-0.42736816,0.24765015,0.15299988,-0.77809143,4.85393,-7.633223,-3.0325208
1570715221,3.6894684,-5.467163,1.5759888,1.1051941,0.16577148,-0.22096252,3.3360837,-12.441259,-1.2918096
1570715221,0.10952759,-4.9045258,1.3449402,1.4215698,1.8190613,0.489563,-0.3366694,-12.955493,-1.332262
1570715221,0.4800415,-2.624649,2.8173828,1.1137085,2.1077576,0.39369202,0.2604617,-10.091434,0.5256252
1570715221,4.213791,2.4917603,0.893631,-0.27645874,4.7687836,0.68344116,2.5894556,-5.406023,0.47021127
1570715221,8.829224,15.285187,-2.0218964,0.4670868,4.807129,0.4128723,8.61231,6.3036,-4.186945
1570715221,1.5370789,7.849991,-10.366898,0.091049194,2.3314667,2.0672302,2.0830903,2.492097,-10.693723
1570715221,0.80384827,6.6361237,-10.420761,-0.064468384,1.9650116,2.129013,1.0783887,0.02298069,-12.070698
1570715221,3.509903,19.612701,-7.6955566,-0.2562256,-9.125458,1.8051758,2.4690914,12.147071,-10.565678
1570715221,-5.973526,17.375916,13.737335,5.5217743,-1.7197418,-0.34986877,-9.332552,11.017094,13.838882
1570715221,-5.973526,17.375916,13.737335,5.5217743,-1.7197418,-0.34986877,-9.332552,11.017094,13.838882
1570715221,0.16879272,9.293686,16.886307,6.219528,6.219681,-2.0638733,-2.740156,3.2868462,13.991525
1570715221,-4.878189,1.3575134,-6.2997437,-1.0605011,-0.10267639,-1.197815,-3.478703,-4.966544,-5.9495773
1570715221,-4.878189,1.3575134,-6.2997437,-1.0605011,-0.10267639,-1.197815,-3.478703,-4.966544,-5.9495773
1570715221,-2.6312256,2.6378174,8.344986,-0.52893066,-1.2211914,1.4759979,-3.6572852,-4.5729027,10.814468
1570715221,-4.968567,2.4079742,0.061050415,-0.6695404,-1.0092163,0.8890381,-6.588711,-4.8666015,1.2822113
1570715221,-4.313156,1.9063873,2.565979,-0.87620544,-1.2435608,0.18916321,-5.954076,-5.252732,3.597323
1570715221,2.80661,3.909134,-3.680481,-4.1391144,-0.5628662,-1.2031403,1.4998758,-3.710507,-3.3556507
1570715221,2.80661,3.909134,-3.680481,-4.1391144,-0.5628662,-1.2031403,1.4998758,-3.710507,-3.3556507
1570715221,-1.2713165,19.612701,6.264435,-3.4392242,-5.447098,-1.7719879,-1.1341172,12.3009815,6.4528875
1570715221,-1.2713165,19.612701,6.264435,-3.4392242,-5.447098,-1.7719879,-1.1341172,12.3009815,6.4528875
1570715221,3.7187958,17.11795,2.0733795,-1.2799377,1.9298553,-1.5291138,6.7189617,12.009415,0.035173178
1570715221,3.7187958,17.11795,2.0733795,-1.2799377,1.9298553,-1.5291138,6.7189617,12.009415,0.035173178
1570715222,-5.3863525,9.8533325,-1.3491364,-1.7348022,-2.0052338,-0.7354889,-7.064815,3.3816643,-4.837879
1570715222,1.2940674,8.471283,1.6741486,-1.4131012,-1.7303925,-0.80259705,0.5490872,1.6849875,-1.466558
1570715222,5.3779755,3.0268707,-2.0548248,-0.08578491,-2.6518402,-1.4311066,5.2307634,-2.5264826,-4.8695254
1570715222,2.842514,-8.772354,3.094513,2.0415497,1.5825806,0.30314636,2.7452326,-15.771572,0.7713213
1570715222,2.7365723,-8.677185,2.0937347,2.107605,1.7221222,0.3617401,2.7452326,-15.771572,0.7713213
1570715222,1.2862854,0.19332886,1.1551971,1.1893463,2.6968536,0.14335632,1.2732214,-6.953808,-0.937649
1570715222,0.9750366,0.3501587,0.8750763,1.1552582,2.6904602,0.11991882,1.2732214,-6.953808,-0.937649
1570715222,-0.6973114,2.5043335,6.7408752,0.8441925,2.5796661,0.12098694,-0.64638215,-5.368678,4.003966
1570715222,-0.027526855,5.31752,3.3871918,0.39785767,3.0558472,0.38304138,-0.11141484,-1.5505981,2.3838596
1570715222,5.5042725,13.262085,-0.24839783,0.34352112,1.3237152,0.90289307,7.479501,10.736179,-2.929877
1570715222,5.5042725,13.262085,-0.24839783,0.34352112,1.3237152,0.90289307,7.479501,10.736179,-2.929877
1570715222,3.3429108,16.804901,-2.1338348,-1.5270844,-4.36586,1.1734619,1.8774819,8.835861,-5.4957204
1570715222,4.4466248,19.021332,0.3866577,-1.1670227,-4.926193,1.1287231,1.8774819,8.835861,-5.4957204
1570715222,1.154602,19.612701,3.3476868,4.2200165,-4.6438904,-0.5586548,0.18704104,12.269789,2.334597
1570715222,1.154602,19.612701,3.3476868,4.2200165,-4.6438904,-0.5586548,0.18704104,12.269789,2.334597
1570715222,13.51886,8.06427,7.1688385,5.6368256,12.308731,-0.7354889,12.035241,-0.41769743,18.974321
1570715222,13.51886,8.06427,7.1688385,5.6368256,12.308731,-0.7354889,12.035241,-0.41769743,18.974321
1570715222,-2.7539368,2.072174,6.486496,-1.0903168,-2.39299,1.2810516,-4.776742,-5.260126,8.352701
1570715222,-2.7539368,2.072174,6.486496,-1.0903168,-2.39299,1.2810516,-4.776742,-5.260126,8.352701
1570715222,-0.42736816,-0.6829529,1.5346832,-2.431488,0.3585968,-0.55332947,-2.21985,-7.8150034,2.3994875
1570715222,-0.42736816,-0.6829529,1.5346832,-2.431488,0.3585968,-0.55332947,-2.21985,-7.8150034,2.3994875
1570715222,2.4774017,2.3445282,-0.29867554,-3.3028717,-0.6044159,-0.8888855,1.1028131,-4.9810615,0.026338965
1570715222,0.41360474,19.612701,-3.612854,-4.4405823,-5.2873077,-1.2073975,-1.5437124,12.39481,-5.7727003
1570715222,-0.165802,19.612701,8.541916,-4.7154236,1.8052216,-1.6068726,-1.0781307,12.411253,5.558124
1570715222,-0.165802,19.612701,8.541916,-4.7154236,1.8052216,-1.6068726,-1.0781307,12.411253,5.558124
1570715222,11.619659,18.69812,-1.5035553,-1.1244049,0.62065125,-1.3735809,13.647623,12.499706,-4.518359
1570715222,-6.4290314,6.5445557,12.245743,-1.7763519,-1.5471649,-0.95280457,-7.463254,1.6520896,9.728903
1570715222,-6.4290314,6.5445557,12.245743,-1.7763519,-1.5471649,-0.95280457,-7.463254,1.6520896,9.728903
1570715222,4.8279114,2.1924896,-0.74220276,0.052703857,-0.9293213,-1.0007324,4.787499,-4.2892957,-4.16695
1570715222,5.321106,-4.296997,0.93792725,1.1435394,-1.3309174,-0.5916748,5.457817,-10.776174,-2.393786
1570715222,2.601303,-6.578064,1.4640503,2.7968292,1.7881775,0.50660706,2.5734568,-13.658007,-0.73695445
1570715222,2.3516998,-6.518219,1.1396332,2.6998901,1.8712616,0.49276733,2.5734568,-13.658007,-0.73695445
1570715222,-1.0606384,2.6156616,8.611938,-0.29563904,3.5384064,0.18383789,-1.0717883,-4.6380806,6.425329
1570715222,4.3574524,11.533463,10.570404,-0.5534363,3.296585,0.4629364,3.79915,3.2842445,8.136074
1570715223,-2.7096405,19.612701,-7.7464447,1.2596436,2.9322662,0.92419434,1.073354,11.148174,-6.892293
1570715223,-0.6398468,2.2445679,-5.8610077,-0.57366943,1.2736511,1.1063538,-0.31770638,-4.499425,-7.8851323
1570715223,-0.6398468,2.2445679,-5.8610077,-0.57366943,1.2736511,1.1063538,-0.31770638,-4.499425,-7.8851323
1570715223,0.5782013,18.95729,-3.5218658,0.79200745,-4.542694,2.1726837,-0.39597565,9.559219,-4.4891243
1570715223,2.2966309,19.612701,1.8237762,4.7451935,-4.7248535,-0.12402344,0.983598,12.3086815,0.97780013
1570715223,2.2966309,19.612701,1.8237762,4.7451935,-4.7248535,-0.12402344,0.983598,12.3086815,0.97780013
1570715223,10.29567,6.1369324,19.597137,8.9327545,10.81842,-0.87716675,8.292973,-1.3060865,21.459494
1570715223,10.29567,6.1369324,19.597137,8.9327545,10.81842,-0.87716675,8.292973,-1.3060865,21.459494
1570715223,-0.10774231,3.0304565,11.177338,-0.67593384,-1.817749,0.77719116,-2.462029,-4.0270405,11.584543
1570715223,-0.10774231,3.0304565,11.177338,-0.67593384,-1.817749,0.77719116,-2.462029,-4.0270405,11.584543
1570715223,-3.9869385,1.0767975,-2.3433228,-1.0541077,-0.29867554,0.8932953,-5.710824,-5.8596478,-0.61155295
1570715223,-1.2371979,1.4077911,1.1115112,-2.5753021,-0.087753296,-0.37223816,-3.0459032,-5.7200813,2.335146
1570715223,-1.2371979,1.4077911,1.1115112,-2.5753021,-0.087753296,-0.37223816,-3.0459032,-5.7200813,2.335146
1570715223,-3.308792,16.676819,-10.439911,-4.7100983,-3.7970123,-0.945343,-4.519055,7.609688,-11.096888
1570715223,-4.297592,19.612701,2.5995026,-4.0581512,-2.7189636,-2.600769,-3.6482043,12.288342,0.11666489
1570715223,-4.297592,19.612701,2.5995026,-4.0581512,-2.7189636,-2.600769,-3.6482043,12.288342,0.11666489
1570715223,7.557892,19.612701,8.234863,-3.0908966,3.8803558,0.93377686,4.712138,12.369086,5.979618
1570715223,8.807068,13.976746,-2.8760376,-0.50868225,-1.0550079,-1.423645,10.114142,7.464079,-5.974931
1570715223,0.9038086,13.940842,0.31843567,-1.6368103,-0.8387604,-0.3839569,0.08168438,5.49346,-1.9690237
1570715223,-1.3269806,6.843231,-2.3223724,-1.1659546,-1.4172058,-1.041214,-2.3495457,-0.20507336,-5.370964
1570715223,3.9306793,-5.7017975,3.9163208,0.53100586,-1.2094727,-0.5863495,3.6990547,-12.511905,0.6841402
1570715223,4.0013123,-5.905304,4.3813934,0.6300812,-1.0187988,-0.560791,3.6990547,-12.511905,0.6841402
1570715223,2.0769653,-7.2472534,0.12150574,1.6442108,1.4238586,0.21685791,2.0966852,-14.283096,-2.153844
1570715223,0.94750977,-1.18573,5.0415955,0.26150513,1.8180084,0.8400421,0.9301514,-8.349951,2.5885653
1570715223,0.94750977,-1.18573,5.0415955,0.26150513,1.8180084,0.8400421,0.9301514,-8.349951,2.5885653
1570715223,10.219055,11.351501,8.267181,0.1847992,2.6446533,0.72499084,9.036337,3.3345108,6.082991
1570715223,19.612701,19.612701,-19.612701,1.3075867,6.4273987,2.1588287,19.331165,12.49932,-20.828173
1570715223,5.950928E-4,8.5646515,-11.920731,0.3296814,3.214569,1.3907776,0.08622414,2.4117732,-13.319992
1570715223,-2.0272827,11.237778,-13.448822,-0.40748596,-5.3799896,2.9460602,-3.7534726,1.1793756,-16.158188
1570715223,-0.7511749,19.612701,0.4016266,-0.05595398,-7.473236,2.4656372,-2.1862106,12.505449,-3.2931097
1570715223,-6.8683624,16.3488,5.4294434,4.94014,-0.8110657,-0.72909546,-8.347567,10.908109,5.593395
1570715223,1.036087,15.440201,11.555023,5.3215027,2.5221405,-1.214859,-1.2042321,8.923084,11.416301
1570715223,8.822037,8.124725,13.604446,5.089279,9.242889,-1.7677307,7.261342,1.0259352,17.23245
1570715224,-5.3540344,0.5195465,1.8507233,-1.1829987,-0.74928284,-0.818573,-6.3748345,-6.4865756,1.749446
1570715224,-1.5496521,0.93673706,1.964447,-0.39897156,-1.0848389,0.9465637,-2.1171143,-6.505529,4.929714
1570715224,-2.4402924,1.2461853,0.667984,-0.59710693,-1.2414398,1.0158081,-3.0758438,-6.1724377,2.9217415
1570715224,-1.6825256,0.809845,3.3626556,-2.889557,0.39801025,-0.5693054,-3.1435807,-6.3363457,4.1695447
1570715224,-1.6825256,0.809845,3.3626556,-2.889557,0.39801025,-0.5693054,-3.1435807,-6.3363457,4.1695447
1570715224,-4.178482,19.604324,-4.0779266,-4.5215454,-5.23938,-1.5876923,-4.9937,12.392499,-6.5194044
1570715224,-4.178482,19.604324,-4.0779266,-4.5215454,-5.23938,-1.5876923,-4.9937,12.392499,-6.5194044
1570715224,2.0602112,19.612701,9.910202,-3.720459,3.1485138,-0.3914032,0.9524468,12.531242,7.3264036
1570715224,2.0602112,19.612701,9.910202,-3.720459,3.1485138,-0.3914032,0.9524468,12.531242,7.3264036
1570715224,-0.65600586,13.035233,-0.79067993,-1.1968536,-1.9359894,-0.6087189,0.33524027,5.504805,-2.547649
1570715224,-0.65600586,13.035233,-0.79067993,-1.1968536,-1.9359894,-0.6087189,0.33524027,5.504805,-2.547649
1570715224,5.6987915,3.9534302,-1.3712769,-0.28285217,-2.631607,-1.008194,5.1067586,-1.6655064,-3.8314838
1570715224,5.6987915,3.9534302,-1.3712769,-0.28285217,-2.631607,-1.008194,5.1067586,-1.6655064,-3.8314838
1570715224,5.8053436,-6.0770874,4.1204224,1.186142,-1.4928436,-0.67370605,5.6710773,-12.299734,0.2529173
1570715224,4.03183,-7.3831177,5.577896,2.1012115,0.98283386,-0.19752502,4.3534627,-14.064171,3.1426253
1570715224,2.8838196,-4.5005035,-0.22206116,1.9542084,3.276352,0.9167328,2.8128448,-12.222691,-2.9513044
1570715224,2.9299011,-1.0079651,2.01651,1.4876251,3.5447998,0.9785156,2.9136236,-8.296474,-0.6456475
1570715224,-0.02154541,7.127533,3.918106,0.3350067,3.309372,0.5353699,-0.085041195,-0.06299448,1.9850118
1570715224,11.577164,19.612701,-8.020569,-0.026123047,2.928009,1.4142151,11.379199,12.462325,-10.139275
1570715224,11.0390625,19.612701,-7.7512207,-0.09643555,2.7831268,1.2533569,11.379199,12.462325,-10.139275
1570715224,0.6589966,4.688446,-4.534012,-0.3393097,1.3759155,1.5143585,0.9086521,-1.1149654,-5.975856
1570715224,3.313568,19.612701,-8.32164,0.13366699,-7.3975983,2.162033,1.9196951,12.204151,-11.184397
1570715224,-4.513672,19.612701,15.225327,4.3297424,-4.606613,0.16040039,-5.5367017,12.3157015,13.113034
1570715224,-4.64415,19.612701,18.689133,4.6035156,-3.8311005,0.08369446,-5.5367017,12.3157015,13.113034
1570715224,-2.0344696,16.141708,5.1559143,7.44458,3.7471924,-2.2194061,-2.5891166,9.008749,5.892692
1570715224,-4.728546,4.739319,-2.478592,-0.7686157,-0.4456787,-1.022049,-5.500819,-2.3270564,-1.1706787
1570715224,-5.764633,4.3071747,-1.6256561,-0.7686157,-0.4456787,-1.022049,-5.500819,-2.3270564,-1.1706787
1570715224,-1.8429413,0.11552429,2.676117,-0.11773682,1.1841736,0.9700012,-3.1077332,-6.9908943,4.7126713
1570715224,-2.9903564,1.5508423,1.7166443,-1.4599762,-1.657959,0.6578827,-4.6913786,-5.6755905,2.8731794
1570715224,-2.9903564,1.5508423,1.7166443,-1.4599762,-1.657959,0.6578827,-4.6913786,-5.6755905,2.8731794
1570715224,-2.2260132,0.37409973,2.8006134,-1.4653015,-1.4939117,0.0634613,-4.017289,-6.645576,4.172172
1570715224,-3.5206757,16.731873,-10.73381,-4.3830566,-1.6664734,-0.47555542,-4.2613945,7.5023704,-8.195028
1570715224,4.3736115,19.612701,6.5224,-3.7417603,-2.3343964,-3.6404572,3.3674645,12.251205,5.3971353
1570715225,2.4678192,19.612701,0.6889343,-2.1342773,-1.5663452,0.3148651,-0.01798144,12.169249,-2.5395422
1570715225,5.067932,19.612701,2.2595215,-2.0906067,-1.3000336,0.65148926,3.4050076,12.1706295,-0.0468328
1570715225,-1.8130035,11.299438,9.748596,-2.2045898,-0.014251709,-0.29766846,-1.478245,4.4402437,7.713957
1570715225,-0.30885315,15.507843,1.1103058,-1.0679474,0.4171753,-0.6673126,-0.94886076,8.166615,-1.290786
1570715225,5.3504486,3.5039215,1.2078705,-1.221344,-2.0499725,-0.87184143,4.804094,-3.4022474,-1.6422062
1570715225,5.3504486,3.5039215,1.2078705,-1.221344,-2.0499725,-0.87184143,4.804094,-3.4022474,-1.6422062
1570715225,4.194641,-4.498703,3.3662415,-0.18910217,-1.3511658,-0.83561707,3.5952668,-10.9934025,-0.35745668
1570715225,2.557602,-8.432373,1.7968445,1.0476685,0.21264648,-0.40205383,2.3059378,-15.388123,-0.5647092
1570715225,2.3175812,-3.0783386,3.4715881,0.4915924,1.1479492,0.42671204,1.98956,-10.339815,0.9798517
1570715225,1.7621307,0.76135254,5.024231,-0.9454498,2.593521,0.7462921,0.43261924,-6.6700835,3.701088
1570715225,2.5588074,1.1025238,4.34787,-0.90071106,2.6520996,0.78570557,1.8564888,-6.012329,2.2800362
1570715225,3.20224,7.752426,0.073028564,0.118759155,3.0760803,0.26159668,5.781234,-0.18959188,-2.7040236
1570715225,5.509659,17.309479,-7.9349823,0.6822815,3.8238983,0.66000366,10.301412,12.468533,-11.350213
1570715225,0.48960876,4.7854156,-9.822815,0.07827759,1.129837,1.7444458,0.55490935,-0.37615728,-13.40092
1570715225,0.69192505,17.792511,-16.179413,-0.12838745,-5.7421722,2.066162,-0.5579504,9.289253,-18.179459
1570715225,2.5312653,19.612701,19.612701,2.7531586,-6.759506,0.5939636,0.078822136,12.487458,10.843703
1570715225,-0.54289246,13.482346,11.738174,6.026703,3.9581146,-2.0159302,-1.5993375,6.6431046,11.098845
1570715225,-0.54289246,13.482346,11.738174,6.026703,3.9581146,-2.0159302,-1.5993375,6.6431046,11.098845
1570715225,11.766907,8.495224,8.368927,3.2357178,13.103409,-1.7347107,10.131856,1.2531848,11.4104805
1570715225,-8.738831,0.28370667,-2.8365326,-0.67274475,-1.7761993,-0.7173767,-9.964237,-6.7457952,-2.2766771
1570715225,-2.5588074,1.782486,-2.1332397,-1.8381348,0.31918335,1.01474,-3.402913,-5.115949,-0.21632326
1570715225,-2.5588074,1.782486,-2.1332397,-1.8381348,0.31918335,1.01474,-3.402913,-5.115949,-0.21632326
1570715225,-3.4895477,1.7058716,3.4667969,-1.8967285,-1.1785889,-0.045196533,-5.258492,-5.2410736,4.4344916
1570715225,-2.9466705,1.1288605,2.043457,-2.0863495,-0.9655304,-0.19540405,-4.76305,-5.8545423,3.0364265
1570715225,-0.76075745,17.66742,-7.2083435,-3.991043,-4.1570587,-0.8835602,-2.7733312,9.1885605,-8.077238
1570715225,0.48661804,19.612701,-5.9657593,-4.0485687,-4.507538,-1.0433502,-2.7733312,9.1885605,-8.077238
1570715225,-1.0348969,19.612701,8.306091,-3.3742523,1.7285156,0.14016724,-3.8694153,12.409861,5.7335796
1570715225,-1.0348969,19.612701,8.306091,-3.3742523,1.7285156,0.14016724,-3.8694153,12.409861,5.7335796
1570715225,19.479218,19.567215,-3.6816864,-0.7963104,-0.17404175,-1.359726,18.927385,12.432114,-6.661829
1570715225,1.1587982,16.378128,-2.181717,-1.282074,-3.3389435,-0.8111267,0.46927387,8.065903,-6.6913643
1570715225,2.4702148,5.701187,1.0564423,-0.8133545,-1.6078949,-0.62150574,1.3725,-1.1741934,-2.2497334
1570715225,5.2008057,3.5793304,1.8207855,0.03353882,-1.402298,-0.9219055,4.774968,-3.0586896,-1.0596454
1570715225,5.023636,-3.842102,2.0667877,0.9688263,-0.5394287,-0.513916,4.5807114,-10.686272,-0.6508193
1570715226,2.557602,-6.2476654,0.65242004,1.3821564,1.4504852,0.30207825,2.5250978,-13.530222,-1.2656229
1570715226,2.557602,-6.2476654,0.65242004,1.3821564,1.4504852,0.30207825,2.5250978,-13.530222,-1.2656229
1570715226,2.0919342,-0.030532837,7.5519104,-0.22000122,3.6470642,0.5076752,0.7123264,-7.4811673,5.625045
1570715226,2.0919342,-0.030532837,7.5519104,-0.22000122,3.6470642,0.5076752,0.7123264,-7.4811673,5.625045
1570715226,19.139252,19.612701,-15.452179,1.0583191,4.9083405,2.7117157,17.243835,12.528788,-18.27998
1570715226,19.139252,19.612701,-15.452179,1.0583191,4.9083405,2.7117157,17.243835,12.528788,-18.27998
1570715226,-1.8285675,6.494873,-10.688309,-0.15715027,2.179123,2.2195587,-2.364483,-0.74548864,-12.086594
1570715226,-1.7256165,19.612701,10.862488,3.0567474,-8.505478,0.24029541,-1.9074194,12.515799,9.210892
1570715226,-2.8305511,19.612701,9.94072,3.47966,-8.349945,0.08796692,-3.995078,12.480764,9.210892
1570715226,2.1218567,16.199173,10.02034,4.6983185,-0.9378357,-1.4630585,0.4404819,9.007786,10.627046
1570715226,2.7024536,9.245804,17.809875,4.977417,6.4742737,-2.1288605,0.91978514,2.3786516,18.627949
1570715226,11.807007,4.854843,18.63527,4.8868713,11.876236,-1.8231201,9.331271,-1.6798954,21.43137
1570715226,3.5434113,3.8325195,-12.993332,0.5011902,7.765381,-1.63031,3.3145404,-2.8025331,-10.302664
1570715226,-10.082581,-1.067215,1.1564026,-1.7784882,-1.9615479,0.3883667,-11.541361,-8.209769,1.9183819
1570715226,-4.809952,3.0346527,1.0648193,-1.348114,-2.7157593,1.2054291,-6.298843,-3.8455815,2.8532853
1570715226,-0.26576233,0.9439087,2.0302887,-2.9119263,0.10079956,-0.8089905,-2.7693563,-6.0595646,3.203147
1570715226,0.33877563,0.73921204,1.7860718,-3.0418854,0.15725708,-0.84947205,-1.4041297,-6.3081493,2.702613
1570715226,2.2487488,6.205765,-0.41360474,-3.8227234,-1.212677,-1.2670593,1.1771501,-1.537344,0.28634262
1570715226,1.2114716,19.612701,8.723877,-3.799286,-5.653763,-2.2257996,2.0541654,12.392229,7.5715585
1570715226,1.2114716,19.612701,8.723877,-3.799286,-5.653763,-2.2257996,2.0541654,12.392229,7.5715585
1570715226,19.612701,19.612701,10.603912,-2.8820953,5.855362,-0.072891235,18.942616,12.52404,8.9009
1570715226,4.802765,13.785812,0.24780273,-1.4759521,2.3453064,-1.406601,6.1569495,9.124252,-2.9742692
1570715226,-5.751465,13.174088,-4.000717,-1.2916565,-4.430832,-1.5152588,-5.469432,6.6679664,-9.930365
1570715226,-2.1296387,4.799179,2.8371277,-1.0370636,-0.92292786,-0.62789917,-2.9850225,-2.0383887,0.56481075
1570715226,5.4264526,-2.585144,2.613266,0.52568054,-1.2606049,-0.43721008,4.788408,-8.404657,-1.8025086
1570715226,5.05954,-6.62236,3.0436249,1.4098511,-0.3157196,0.027236938,4.9892406,-13.333849,-0.07471442
1570715226,3.3309326,-6.5912323,4.091095,2.4857635,1.1554108,0.7686615,3.1508014,-13.593997,1.4050653
1570715226,2.1218567,-4.3658295,0.3938446,2.5912323,1.432373,0.6536102,2.1777585,-11.941368,-2.2459586
1570715226,-0.77033997,5.431839,9.253586,-0.5619507,3.9868774,-0.0345459,-1.7796277,-2.7886596,6.6828136
1570715226,2.2631226,10.261551,10.2005005,-0.7728729,3.8228302,0.029373169,1.7237872,2.2294664,8.007292
1570715226,6.4092712,19.612701,-14.947006,-0.092163086,4.471573,1.7401886,4.7352686,12.51459,-15.336175
1570715226,-1.1127014,0.24839783,-7.186203,-0.16461182,0.1306305,1.5154114,-0.9671656,-6.762302,-9.09931
1570715226,-1.1127014,0.24839783,-7.186203,-0.16461182,0.1306305,1.5154114,-0.9671656,-6.762302,-9.09931
1570715227,4.0773315,19.612701,0.8277893,1.5941467,-5.797577,1.4259338,2.5481722,12.525155,-0.8957453
1570715227,4.0773315,19.612701,0.8277893,1.5941467,-5.797577,1.4259338,2.5481722,12.525155,-0.8957453
1570715227,-1.6262665,15.408478,19.612701,6.237625,-4.475586,-0.97410583,-3.257514,8.449895,19.2449
1570715227,13.623001,11.336548,4.071335,3.9782104,14.690659,-1.3181915,11.381287,3.738451,10.254528
1570715227,12.875412,10.726624,1.7328033,3.223999,14.707703,-1.4811707,11.477282,3.9036646,4.6229534
1570715227,-10.766129,-0.07481384,-6.9683228,-0.50549316,-0.5213165,-1.2574615,-11.620622,-6.5668693,-7.552582
1570715227,-2.1374207,1.5209198,6.396103,-0.43092346,-3.4657135,1.0584106,-4.8977776,-6.2224727,7.699986
1570715227,-2.2517395,1.4891968,2.4211426,-1.6059113,-2.501648,0.81874084,-3.7485452,-5.4234605,3.866304
1570715227,-0.21247864,2.348114,2.6216583,-2.6125793,-1.0145416,-0.30725098,-1.834791,-4.7814193,3.4769702
1570715227,-0.7374115,3.9707794,-1.6286621,-3.0088654,-0.64701843,-0.35731506,-2.573374,-3.7253246,-1.382472
1570715227,5.4821167,19.58876,-4.2305603,-3.9814453,-5.2052917,-1.5791779,3.6500425,12.386171,-5.850905
1570715227,3.094513,19.612701,5.0427856,-3.7737274,-5.8252716,-2.7030334,2.423505,12.355207,3.9434137
1570715227,-3.126831,19.612701,0.97683716,-4.197693,-3.7160492,-1.2084656,-3.1058042,12.335821,-2.5476751
1570715227,19.612701,19.612701,8.406036,-2.6775665,2.7288055,1.4919739,10.417989,12.45163,7.201648
1570715227,-0.885849,15.343842,-3.7253723,-1.2724762,-3.218567,-0.91018677,-0.69157225,8.8702965,-11.39658
1570715227,-0.885849,15.343842,-3.7253723,-1.2724762,-3.218567,-0.91018677,-0.69157225,8.8702965,-11.39658
1570715227,4.394562,-0.10714722,-1.4347229,0.2167511,-0.087753296,-0.7344208,3.8058414,-6.4665756,-3.934254
1570715227,4.394562,-0.10714722,-1.4347229,0.2167511,-0.087753296,-0.7344208,3.8058414,-6.4665756,-3.934254
1570715227,2.3301544,-6.6463013,-1.2036896,1.4918823,1.5250549,-0.15492249,2.175158,-13.758846,-2.9110394
1570715227,2.3301544,-6.6463013,-1.2036896,1.4918823,1.5250549,-0.15492249,2.175158,-13.758846,-2.9110394
1570715227,-1.7681122,2.2415771,9.207504,-0.25090027,0.8592682,0.0037994385,-1.5394337,-5.493603,4.964012
1570715227,-1.7681122,2.2415771,9.207504,-0.25090027,0.8592682,0.0037994385,-1.5394337,-5.493603,4.964012
1570715227,6.5206146,9.051285,7.625534,-0.07086182,3.3999176,0.37557983,5.746252,1.8434753,6.7637987
1570715227,-0.33398438,3.3022003,-9.797668,0.38293457,1.3833771,1.7849274,-0.3587348,-3.05657,-11.778713
1570715227,-0.33398438,3.3022003,-9.797668,0.38293457,1.3833771,1.7849274,-0.3587348,-3.05657,-11.778713
1570715227,-0.1478424,10.752365,-11.1258545,0.65031433,-5.2500305,2.782013,-1.2467164,2.79665,-12.772632
1570715227,-1.6807251,19.612701,19.612701,5.3342896,-2.2299957,-0.39672852,-2.8627205,12.413941,18.746397
1570715227,-1.6807251,19.612701,19.612701,5.3342896,-2.2299957,-0.39672852,-2.8627205,12.413941,18.746397
1570715227,2.3331451,9.989807,18.030136,6.122589,9.459152,-1.5056763,0.042419314,2.8890896,19.46223
1570715227,3.9073334,10.090958,16.866547,5.7007446,10.340118,-1.4747772,0.042419314,2.8890896,19.46223
1570715227,-3.7690735,2.7150269,4.218582,-0.4607544,-4.0409546,0.20407104,-5.8030567,-4.7231417,4.9461746
1570715227,-2.6940765,2.8850098,5.685623,-0.45329285,-3.9482727,0.30421448,-5.8030567,-4.7231417,4.9461746
1570715227,-2.5833435,0.04069519,-0.75357056,-1.5089722,-1.2510223,0.6536102,-4.1289244,-7.046668,0.09075427
1570715227,-2.738968,0.0095825195,-0.26934814,-1.5430603,-1.454483,0.6450958,-4.1289244,-7.046668,0.09075427
1570715228,-2.2086487,5.883148,-3.573349,-3.4498901,-1.4875183,-0.3328247,-3.9288204,-1.6326795,-3.0192456
1570715228,-2.2086487,5.883148,-3.573349,-3.4498901,-1.4875183,-0.3328247,-3.9288204,-1.6326795,-3.0192456
1570715228,1.0408783,19.612701,2.9891663,-3.6831818,-5.5834503,-2.6060944,-0.11975789,12.308334,1.713556
1570715228,-2.3930054,19.612701,0.0574646,-3.2538757,-4.443619,-2.1107483,-3.1546268,12.24118,-0.67195594
1570715228,19.612701,19.612701,-0.34776306,-0.39257812,0.9061432,-0.34347534,18.616024,12.319601,-2.9717348
1570715228,19.612701,19.612701,-0.34776306,-0.39257812,0.9061432,-0.34347534,18.616024,12.319601,-2.9717348
1570715228,-0.37828064,9.464279,0.34835815,-2.0884705,-3.6926117,-0.9890137,-1.1119921,2.6554036,-2.8288631
