time,ax,ay,az,gx,gy,gz,la_x,la_y,la_z,fox,foy,foz
1570727084,-3.6547546,-0.3357849,10.309433,0.13668823,-0.63604736,-0.10246277,-0.09555006,-0.7288251,0.4068203
1570727084,-3.6547546,-0.3357849,10.309433,0.13668823,-0.63604736,-0.10246277,-0.09555006,-0.7288251,0.4068203
1570727084,-3.6547546,-0.3357849,10.309433,0.13668823,-0.63604736,-0.10246277,-0.09555006,-0.7288251,0.4068203
1570727084,-3.6547546,-0.3357849,10.309433,0.13668823,-0.63604736,-0.10246277,-0.09555006,-0.7288251,0.4068203
1570727084,-1.7244263,-0.4806366,9.650421,0.33483887,-0.1492157,0.13508606,0.805722,-1.1211857,-0.44832897
1570727084,-2.214035,-0.5464783,9.849152,0.21125793,-0.037368774,0.1105957,0.3063624,-1.3206651,-0.4784689
1570727084,-2.2445679,-0.5452728,10.007767,0.19102478,-0.03843689,0.1340332,0.21769023,-1.4156737,-0.24084663
1570727084,-2.2445679,-0.5452728,10.007767,0.19102478,-0.03843689,0.1340332,0.21769023,-1.4156737,-0.24084663
1570727084,-2.2445679,-0.5452728,10.007767,0.19102478,-0.03843689,0.1340332,0.21769023,-1.4156737,-0.24084663
1570727084,-2.2445679,-0.5452728,10.007767,0.19102478,-0.03843689,0.1340332,0.21769023,-1.4156737,-0.24084663
1570727084,-1.9375153,-0.31843567,10.205887,-0.004989624,0.16397095,0.08822632,0.54712915,-1.2188404,-0.2916689
1570727084,-2.1278534,-0.025741577,10.796051,0.112197876,0.4675598,0.026443481,0.62476134,-0.8719667,0.68447113
1570727084,-2.3499146,0.06703186,10.405792,0.14414978,0.35890198,0.0061950684,0.5767839,-0.8514193,0.30841923
1570727084,-2.5354614,0.25019836,10.223236,0.11645508,0.3056488,0.06690979,0.39160347,-0.7022195,0.13774967
1570727084,-2.5354614,0.25019836,10.223236,0.11645508,0.3056488,0.06690979,0.39160347,-0.7022195,0.13774967
1570727084,-2.5354614,0.25019836,10.223236,0.11645508,0.3056488,0.06690979,0.39160347,-0.7022195,0.13774967
1570727084,-2.5354614,0.25019836,10.223236,0.11645508,0.3056488,0.06690979,0.39160347,-0.7022195,0.13774967
1570727084,-2.0500336,0.18554688,10.047272,0.14414978,-0.09170532,-0.072631836,1.2038007,-0.6205204,0.17908764
1570727084,-2.5097198,0.20051575,9.601944,-0.1051178,-0.098083496,0.082901,0.256114,-0.5895255,-0.6702976
1570727084,-1.7950592,0.4812317,9.628281,-0.16690063,-0.041625977,0.067977905,1.0156705,-0.3357519,-0.4784279
1570727084,-1.743576,0.49978638,9.655823,-0.16690063,-0.02458191,0.0637207,1.0156705,-0.3357519,-0.4784279
1570727084,-1.743576,0.49978638,9.655823,-0.16690063,-0.02458191,0.0637207,1.0156705,-0.3357519,-0.4784279
1570727084,-1.743576,0.49978638,9.655823,-0.16690063,-0.02458191,0.0637207,1.0156705,-0.3357519,-0.4784279
1570727085,-1.743576,0.49978638,9.655823,-0.16690063,-0.02458191,0.0637207,1.0156705,-0.3357519,-0.4784279
1570727085,0.4046173,-1.4095917,5.2522736,0.8269806,3.7901306,-0.49447632,4.8033266,-2.1825407,-3.8644848
1570727085,1.3539276,-2.5779572,4.7255554,1.0400391,4.916107,-1.3669281,7.0117407,-3.437222,-3.861083
1570727085,1.921341,-4.036026,3.948639,1.2019653,5.535034,-2.2212677,8.279655,-4.782465,-4.2990694
1570727085,1.7878723,-4.0575714,4.36882,1.26268,5.6394196,-2.4971771,8.497482,-5.0319433,-4.1476617
1570727085,1.7878723,-4.0575714,4.36882,1.26268,5.6394196,-2.4971771,8.497482,-5.0319433,-4.1476617
1570727085,1.7878723,-4.0575714,4.36882,1.26268,5.6394196,-2.4971771,8.497482,-5.0319433,-4.1476617
1570727085,-3.4039612,-8.580826,1.4616547,1.3020935,5.78537,-5.2125397,7.335865,-6.7595477,-3.0240102
1570727085,-13.504501,-13.691238,2.4001923,1.8954468,1.4018097,-5.4149323,-4.4939384,-8.389032,0.8290894
1570727085,-13.67868,-13.493118,3.4769745,1.0549469,-0.15667725,-5.0175934,-6.168618,-6.8992143,1.1346169
1570727085,-14.619598,-14.557938,4.0569763,0.96972656,-0.9620209,-4.9707184,-7.5393205,-7.2808285,2.3952315
1570727085,-15.611389,-12.803589,5.3025513,0.6980896,-1.4211426,-4.2580566,-9.655192,-5.1513014,2.2344682
1570727085,-14.884155,-9.041702,5.479126,1.2179413,-0.48371887,-1.4308472,-11.311548,-0.11164665,2.3435588
1570727085,-14.884155,-9.041702,5.479126,1.2179413,-0.48371887,-1.4308472,-11.311548,-0.11164665,2.3435588
1570727085,-12.858658,-6.6145782,4.8320923,0.83018494,-0.4006195,0.4855652,-9.08631,2.537713,0.72394466
1570727085,-12.858658,-6.6145782,4.8320923,0.83018494,-0.4006195,0.4855652,-9.08631,2.537713,0.72394466
1570727085,-9.838974,-5.562332,2.277481,0.22297668,-0.3260498,1.2632141,-5.5718436,3.5869741,-2.3723335
1570727085,-7.048523,-8.221695,-2.309204,-1.7520142,-1.8696289,0.7412262,-2.3953896,0.80882263,-7.506673
1570727085,-7.048523,-8.221695,-2.309204,-1.7520142,-1.8696289,0.7412262,-2.3953896,0.80882263,-7.506673
1570727085,-0.7170563,-5.9286346,6.767807,-1.5144653,-2.3383484,0.5185852,1.8225017,1.1909742,2.5353994
1570727085,-3.408142,-9.609131,4.7297516,-1.1629333,0.61883545,-0.5775757,-0.31656742,-0.77206707,0.27696705
1570727085,-3.408142,-9.609131,4.7297516,-1.1629333,0.61883545,-0.5775757,-0.31656742,-0.77206707,0.27696705
1570727085,-5.4007263,-10.204086,4.42807,-1.016983,1.0854187,-0.6009979,-0.8293369,-0.95153236,1.066726
1570727085,-10.05983,-10.45607,4.613632,-0.634552,0.5293579,0.594223,-7.3407545,-2.8370867,0.42986774
1570727085,-10.05983,-10.45607,4.613632,-0.634552,0.5293579,0.594223,-7.3407545,-2.8370867,0.42986774
1570727085,-5.278015,-9.878479,3.2327728,-1.013794,0.14479065,0.5782471,-0.2769189,-0.21791649,0.8713987
1570727085,-5.4845123,-9.245209,3.1142578,-0.9882202,0.15544128,0.5420227,-0.2769189,-0.21791649,0.8713987
1570727085,-9.839569,-9.68454,4.423294,-0.7101898,0.86491394,1.3825226,-4.4994426,-0.11106014,1.9671059
1570727085,-8.295914,-9.42598,3.4500427,-0.64201355,1.2441406,1.8459015,-2.8747616,0.17390823,1.3290305
1570727085,-8.289322,-10.156204,4.574127,0.16758728,1.505127,2.0578918,-1.2346439,-1.4310637,3.2240572
1570727085,-8.289322,-10.156204,4.574127,0.16758728,1.505127,2.0578918,-1.2346439,-1.4310637,3.2240572
1570727085,-0.5237274,-8.532333,-2.07518,-0.46731567,1.9621277,1.281311,7.4511485,-1.0849333,-2.746542
1570727085,-0.5237274,-8.532333,-2.07518,-0.46731567,1.9621277,1.281311,7.4511485,-1.0849333,-2.746542
1570727086,-4.9164886,-7.210144,-1.8902283,-1.7658691,-0.8171387,1.6925049,2.689836,0.9902005,-1.5330479
1570727086,-4.3221283,-10.144836,4.581299,-1.3930206,0.3748932,1.2834473,4.3438473,-3.6267715,4.8566732
1570727086,-5.3905487,-10.183136,4.1725006,-1.0926208,0.6337433,1.2589417,3.658474,-3.5525112,5.3992176
1570727086,-9.446915,-2.348114,2.103302,-0.76452637,1.0726318,0.95640564,-0.59403133,3.178513,3.7137551
1570727086,-9.636063,-2.6306305,1.1785431,-0.7698517,1.2899475,0.9393616,-0.71904945,3.5351934,3.947668
1570727086,-5.917862,-2.2948456,1.0241241,-0.8167114,3.4748077,0.016845703,2.3370733,3.3949494,2.4481373
1570727086,-14.03302,-15.409088,-8.500015,-0.73576355,5.0854797,-0.9866333,-3.4183817,-8.58257,-2.7831135
1570727086,-12.290039,-11.449066,-9.627686,-0.20631409,2.9474945,1.2909088,-6.7552176,-8.334669,-7.8434753
1570727086,-6.9940643,-5.9873047,-2.1128845,-0.23402405,1.9376373,1.5188751,-0.03986454,-0.23560572,3.2175565
1570727086,-3.0729523,-3.4500427,-2.6539764,0.18676758,0.9096527,1.6616211,3.609058,0.6086173,2.719305
1570727086,-3.0729523,-3.4500427,-2.6539764,0.18676758,0.9096527,1.6616211,3.609058,0.6086173,2.719305
1570727086,-3.2740784,-2.6874847,-2.5641937,0.833374,1.2430725,0.45787048,5.3256993,2.2162309,3.569828
1570727086,-2.7982178,-4.009094,-5.0619354,1.0751953,0.46543884,0.45361328,4.4026446,0.7023077,0.90350485
1570727086,-2.3044128,-3.6990356,-5.392334,0.8014221,-0.03630066,0.4078064,4.7136927,1.0898905,0.7323408
1570727086,-4.024048,-0.8271942,-6.16687,0.4285736,-0.5689392,-0.28248596,3.9747286,3.1282601,0.2983942
1570727086,-6.5397644,-2.1793213,-5.644333,-0.26704407,-1.0003662,-1.2604065,1.4260807,4.4640527,1.2997317
1570727086,-9.807251,-8.12233,-8.726868,-1.413269,-2.589737,-1.4553528,-3.1058536,-3.8897133,-6.1603785
1570727086,-8.285141,-8.215103,-1.877655,-1.0883636,-2.3213043,-2.0071564,-0.46521902,-1.8239899,3.3236442
1570727086,-5.656296,-7.7823486,-3.0585938,-0.2542572,-2.4406128,-2.1797333,1.2873921,-2.0609736,2.8378558
1570727086,-5.9992676,-8.050507,-2.5707703,0.047210693,-2.1998596,-2.5525665,1.4391174,-2.4408789,1.1888719
1570727086,-5.8400574,-5.8155212,1.3383636,0.5766449,-1.1132812,-2.529129,0.6426964,0.36359596,4.64707
1570727086,-4.1641083,-4.9224854,4.0456085,1.3106232,-0.344162,-2.9019775,1.7942128,1.8592954,5.4630556
1570727086,-2.047638,-4.0378265,1.9027863,1.5289917,1.1802216,-4.3027954,3.5753694,5.1389446,4.1417456
1570727086,-4.0108795,-8.976456,1.5251007,2.0807953,1.3165741,-5.1518097,0.80694675,0.97420883,4.3820324
1570727086,-2.0901337,-11.467026,-0.6404419,1.3393707,0.263031,-4.200531,-1.461367,-0.73697853,-0.78008103
1570727086,-2.0901337,-11.467026,-0.6404419,1.3393707,0.263031,-4.200531,-1.461367,-0.73697853,-0.78008103
1570727086,-1.5316925,-10.397415,0.41838074,1.630188,-0.3494873,-2.7922516,-1.5973569,-0.8432684,1.9812835
1570727086,-0.24899292,-7.917618,2.1703491,1.4118195,-0.2387085,-1.7238007,-1.0533617,2.190157,2.4122007
1570727086,-1.6675568,-10.79126,6.0531464,1.4767914,1.4316254,-0.88648987,-2.5824413,1.5390072,4.5441704
1570727086,1.9979553,-19.612701,0.13168335,1.0592194,2.954956,-1.3115387,0.21963096,-9.366922,1.142788
1570727086,2.4648285,-7.7829437,-2.8365326,0.58303833,-1.7119598,0.2629242,1.4177654,2.7288952,-5.784235
1570727086,2.012329,-8.350983,-0.75057983,0.43070984,-1.5969238,0.15213013,0.8739532,2.0913172,-3.112113
1570727086,2.2319946,-10.71286,2.731781,0.64482117,-0.8171387,-0.20898438,0.7293112,-0.15923882,1.2530835
1570727086,0.2166748,-12.084137,1.3455353,0.35188293,0.044662476,-0.5157776,-1.0909818,-1.9816189,-0.22279382
1570727087,-1.272522,-12.573746,0.93074036,0.12710571,0.61776733,-0.5179138,-2.6215029,-2.1064987,-0.7453544
1570727087,-1.6214752,-13.93605,0.07901001,0.08023071,0.6582489,-0.3879547,-3.3414063,-3.6162682,-1.4090263
1570727087,2.4570465,-15.495865,-3.8612518,-1.1224518,0.7338867,0.4940796,0.42441797,-5.7011766,-5.3188457
1570727087,2.7730865,-15.149902,-3.8995514,-1.1948853,0.72428894,0.5100708,0.42441797,-5.7011766,-5.3188457
1570727087,4.648941,-12.393585,-5.1170044,-2.8300629,-0.9130249,0.15107727,3.2930813,-2.0498552,-4.983825
1570727087,4.648941,-12.393585,-5.1170044,-2.8300629,-0.9130249,0.15107727,3.2930813,-2.0498552,-4.983825
1570727087,3.7762604,-12.930481,0.4812317,-3.1134338,-2.700531,0.06585693,2.7070844,-2.5261612,-0.63136184
1570727087,-1.2186432,-13.341095,4.9266663,-2.3155518,-1.2166138,0.09674072,-2.2548747,-3.270195,7.263068
1570727087,-4.0773315,-12.713806,0.39743042,-1.5485535,-1.2219391,0.6996765,-4.731517,-2.8341417,3.62288
1570727087,-1.5029602,-10.050858,2.4726105,-1.2705231,-0.2909088,1.8288574,-1.6494905,-0.1583023,5.564462
1570727087,-1.5029602,-10.050858,2.4726105,-1.2705231,-0.2909088,1.8288574,-1.6494905,-0.1583023,5.564462
1570727087,-1.2832947,-10.4578705,-0.028137207,-1.4899597,0.61351013,1.9854584,-1.2805886,-0.5720215,3.8468716
1570727087,0.58358765,-9.256577,-0.22505188,-1.5592041,1.0023346,2.0802612,1.297513,0.13929558,3.9618144
1570727087,0.6099243,-6.712738,0.47105408,-1.0840912,1.2739716,2.0483093,2.2484274,2.086115,5.1608186
1570727087,0.6099243,-6.712738,0.47105408,-1.0840912,1.2739716,2.0483093,2.2484274,2.086115,5.1608186
1570727087,0.36810303,-4.616623,0.37109375,-0.57702637,1.9802399,1.2397766,2.5087757,4.0622263,5.778581
1570727087,1.9375153,-4.2108,-0.43095398,0.45840454,1.8289795,0.52072144,3.835045,4.221424,4.9262977
1570727087,1.9375153,-4.2108,-0.43095398,0.45840454,1.8289795,0.52072144,3.835045,4.221424,4.9262977
1570727087,2.1158752,-3.3381195,-3.1441803,2.3769531,-0.13963318,-0.44654846,3.8934722,5.6316147,2.19237
1570727087,0.81103516,-12.792221,-2.5198975,2.727417,-1.5117035,-0.967453,2.694674,-0.75997066,1.1930401
1570727087,0.81103516,-12.792221,-2.5198975,2.727417,-1.5117035,-0.967453,2.694674,-0.75997066,1.1930401
1570727087,3.4350739,-19.603119,-6.438614,2.7732239,-1.3721466,-1.3541412,4.7185163,-9.113781,-1.3032386
1570727087,-0.11911011,-19.5307,-2.5516205,1.4725342,-2.25206,-1.412735,0.5607544,-9.604576,-1.4381146
1570727087,3.0735626,-5.6628876,1.7926636,1.311676,-1.743927,-1.5448303,3.3515816,4.661813,3.4924831
1570727087,3.6912537,-5.4420166,1.1504211,1.4128876,-1.8493805,-2.0071564,4.0203476,4.6420174,2.7477207
1570727087,3.4566345,-10.636246,1.6394348,0.5031433,-1.5138245,-2.7965088,3.3996763,0.7942085,2.6705713
1570727087,-2.3223724,-15.355209,2.8096008,1.2403107,3.5696106,-1.4606781,-3.5575814,-6.1611433,4.448238
1570727087,-2.3223724,-15.355209,2.8096008,1.2403107,3.5696106,-1.4606781,-3.5575814,-6.1611433,4.448238
1570727087,-3.158554,-10.04068,-1.6909027,1.9721375,3.1392517,-0.7405548,-5.027047,-0.24186516,-0.83857435
1570727087,-2.2403717,-9.48703,-2.0769653,0.4008789,-0.4112854,0.32151794,-4.171177,0.8974047,-2.6778197
1570727087,-2.364273,-9.64444,-1.8818359,0.3529358,-0.53697205,0.35772705,-4.171177,0.8974047,-2.6778197
1570727087,-3.1196442,-9.809647,4.0898895,0.6799774,-0.4006195,0.6762543,-4.8061304,0.49906254,2.6168222
1570727087,-3.8666382,-11.250946,1.0348969,1.6759949,-1.1132812,1.2727966,-5.741399,-1.0525723,0.25900578
1570727088,8.702927,-9.48703,-1.0330963,0.54255676,-0.95562744,0.18409729,8.105399,0.96155167,-3.7058592
1570727088,8.702927,-9.48703,-1.0330963,0.54255676,-0.95562744,0.18409729,8.105399,0.96155167,-3.7058592
1570727088,-1.4263458,-11.433517,2.190094,0.4988861,-0.1726532,-0.43269348,-2.5292675,-1.5633736,0.24147582
1570727088,-0.06463623,-13.172302,0.14245605,0.11538696,0.52401733,-0.42311096,-1.7389197,-2.8678017,-1.7677824
1570727088,-0.06463623,-13.172302,0.14245605,0.11538696,0.52401733,-0.42311096,-1.7389197,-2.8678017,-1.7677824
1570727088,0.042495728,-14.796173,-1.0965424,-0.18075562,0.6316223,-0.3091278,-1.5248375,-4.582567,-3.3269846
1570727088,-0.806839,-15.565903,-3.4638062,-1.6763916,0.13946533,0.33216858,-2.8875713,-5.7673035,-5.44449
1570727088,-0.806839,-15.565903,-3.4638062,-1.6763916,0.13946533,0.33216858,-2.8875713,-5.7673035,-5.44449
1570727088,2.2433624,-13.428482,-1.8417358,-1.8180695,-0.20141602,0.6165924,0.021793485,-3.5554047,-3.4437141
1570727088,4.162323,-12.063187,-2.921524,-2.210083,-0.14283752,0.54948425,2.680038,-1.8631077,-3.6530561
1570727088,2.9981384,-14.140747,-0.7775116,-2.9088898,-1.5457916,0.13082886,2.1557314,-3.538846,-1.2299142
1570727088,-0.50697327,-12.961014,2.4606476,-1.8031464,-1.314621,0.83709717,-1.1396415,-3.1893253,4.673674
1570727088,-0.50697327,-12.961014,2.4606476,-1.8031464,-1.314621,0.83709717,-1.1396415,-3.1893253,4.673674
1570727088,-2.4396973,-12.916122,3.2555084,-1.4558716,-1.1111603,1.0831757,-1.5545175,-1.783843,4.143363
1570727088,0.2639618,-7.778763,-3.47818,-2.5861206,2.9261932,1.1982269,4.6243863,3.4128323,17.095137
1570727088,0.2639618,-7.778763,-3.47818,-2.5861206,2.9261932,1.1982269,4.6243863,3.4128323,17.095137
1570727088,-1.2306213,-9.591766,1.7974396,-1.0872955,0.11709595,2.2134247,0.19255376,-0.06140232,6.6079473
1570727088,-1.2306213,-9.591766,1.7974396,-1.0872955,0.11709595,2.2134247,0.19255376,-0.06140232,6.6079473
1570727088,0.63027954,-5.1996,0.5105591,-0.90193176,1.6105957,1.7159424,2.7891445,3.3164635,5.110107
1570727088,3.2190094,-2.545044,1.1318665,-0.60046387,1.9216461,0.72099304,5.273657,5.920968,6.3324585
1570727088,3.3931885,-2.431305,1.1222839,-0.5653076,1.9291077,0.6581421,5.273657,5.920968,6.3324585
1570727088,2.8562775,-3.6338043,-5.173279,1.1433716,0.4398651,-0.36026,4.8788605,5.287608,1.1519012
1570727088,2.8562775,-3.6338043,-5.173279,1.1433716,0.4398651,-0.36026,4.8788605,5.287608,1.1519012
1570727088,2.4097595,-13.205215,-2.1056976,2.1021118,-1.125,-0.57011414,4.197298,-4.076929,2.1786952
1570727088,2.4097595,-13.205215,-2.1056976,2.1021118,-1.125,-0.57011414,4.197298,-4.076929,2.1786952
1570727088,0.044296265,-14.550156,-2.6515808,1.661087,-2.7410126,-1.2710571,1.3132541,-5.7087145,-0.45719552
1570727088,-1.1300659,-13.0585785,0.47225952,1.3990326,-1.8163605,-1.5501556,0.47130775,-2.7344599,2.5734005
1570727088,-1.1300659,-13.0585785,0.47225952,1.3990326,-1.8163605,-1.5501556,0.47130775,-2.7344599,2.5734005
1570727088,0.97802734,-10.203491,1.0055695,1.0208588,-1.0696106,-2.047638,1.4978325,-0.37209606,1.9461151
1570727088,0.97802734,-10.203491,1.0055695,1.0208588,-1.0696106,-2.047638,1.4978325,-0.37209606,1.9461151
1570727088,-3.3111877,-15.676041,3.7942047,0.50527954,2.7333832,-2.1456451,-3.4125042,-5.4543095,5.5607285
1570727088,-3.5978851,-15.507248,3.3500824,0.6203308,2.8708038,-2.1019592,-4.14596,-5.373698,4.9102077
1570727089,-1.7028809,-9.247009,-2.2744904,1.16893,1.9024811,-0.6137848,-3.649459,0.739645,-2.320228
1570727089,-1.7028809,-9.247009,-2.2744904,1.16893,1.9024811,-0.6137848,-3.649459,0.739645,-2.320228
1570727089,-1.7818909,-9.17218,0.126297,0.753479,0.7700958,0.36412048,-3.5781012,0.87636566,-0.7317939
1570727089,-1.640625,-9.17218,0.126297,0.753479,0.7700958,0.36412048,-3.5781012,0.87636566,-0.7317939
1570727089,-4.034836,-10.419571,0.8816681,1.7910461,-2.1604462,0.97665405,-5.3105507,-0.11957264,-0.9448496
1570727089,-4.034836,-10.419571,0.8816681,1.7910461,-2.1604462,0.97665405,-5.3105507,-0.11957264,-0.9448496
1570727089,4.993103,-10.91037,-2.3026276,0.5958252,0.033996582,-0.4806366,5.8137383,-0.65320873,-4.8036385
1570727089,4.993103,-10.91037,-2.3026276,0.5958252,0.033996582,-0.4806366,5.8137383,-0.65320873,-4.8036385
1570727089,-2.2002716,-11.872253,0.8379669,0.24961853,-0.28344727,-0.41246033,-3.7900321,-1.7104692,-1.9623675
1570727089,-2.2002716,-11.872253,0.8379669,0.24961853,-0.28344727,-0.41246033,-3.7900321,-1.7104692,-1.9623675
1570727089,-2.2116394,-16.3488,-0.31782532,-0.11364746,1.0726318,-0.43588257,-3.461266,-6.0728827,-2.3469138
1570727089,-2.458847,-16.433197,-0.49679565,-0.1285553,1.1003265,-0.41990662,-3.461266,-6.0728827,-2.3469138
1570727089,-1.751358,-14.947601,-2.6617584,-1.0287018,0.35890198,0.9425659,-4.04739,-5.1012697,-4.638817
1570727089,-1.751358,-14.799164,-2.3702545,-1.0532074,0.22787476,0.98516846,-4.04739,-5.1012697,-4.638817
1570727089,6.232712,-12.422913,-3.478775,-1.5187225,0.4111023,0.8946228,5.218682,-2.1266394,-4.306376
1570727089,4.558563,-12.82933,-7.211334,-2.7288666,0.48355103,0.14787292,5.025961,-1.9788599,-7.221307
1570727089,0.42796326,-15.06192,2.079361,-3.210373,-0.68504333,0.008331299,0.32458323,-4.5376654,1.535971
1570727089,-1.7872772,-14.239517,9.2721405,-2.8598938,-1.122879,0.20220947,-1.0575562,-3.5844078,4.898233
1570727089,-1.5508423,-11.255737,0.12988281,-2.033249,-0.5625458,0.77531433,-2.4889867,-1.310648,2.8889096
1570727089,-4.359848,-12.739548,0.77093506,-1.38237,-0.7116852,1.5252686,-4.7154384,-2.6111135,5.4179335
1570727089,-0.5787964,-10.642822,0.0029907227,-1.8713226,-0.9545593,1.9023743,-0.22508067,-0.8067446,1.8844409
1570727089,-0.683548,-9.227249,1.0384827,-1.7126007,0.9458618,1.9247437,0.91593456,0.59354687,4.5919466
1570727089,-0.683548,-9.227249,1.0384827,-1.7126007,0.9458618,1.9247437,0.91593456,0.59354687,4.5919466
1570727089,-1.0576324,-9.499588,1.5233154,-1.7296448,1.1876831,2.0845337,0.7529793,0.022620201,5.8926597
1570727089,1.9788055,-4.7411194,1.280899,-1.3908997,2.1155243,1.3686676,4.033425,3.5166006,6.2574787
1570727089,2.1260529,-4.4412384,1.3443451,-1.3642578,2.1517487,1.3153992,4.2752123,3.8776293,6.544554
1570727089,2.2523499,-1.9267273,-0.6081238,0.56599426,0.99061584,0.25334167,4.310892,6.541135,5.5993166
1570727089,2.2523499,-1.9267273,-0.6081238,0.56599426,0.99061584,0.25334167,4.310892,6.541135,5.5993166
1570727089,0.9397278,-10.459076,-4.7099915,2.250183,-1.9378052,-0.64468384,2.9096832,-0.31142235,-0.61276245
1570727089,0.9397278,-10.459076,-4.7099915,2.250183,-1.9378052,-0.64468384,2.9096832,-0.31142235,-0.61276245
1570727089,-0.38067627,-17.581818,-2.5677795,1.5183411,-2.4267578,-1.2540131,0.840585,-8.986337,-0.635829
1570727089,-0.38067627,-17.581818,-2.5677795,1.5183411,-2.4267578,-1.2540131,0.840585,-8.986337,-0.635829
1570727089,0.96784973,-6.6313477,1.450882,1.6791992,-1.8653564,-1.5000916,2.0773065,3.3527813,3.840432
1570727089,1.375473,-7.339432,1.3712769,1.8752136,-1.9761505,-1.6598816,2.5870454,3.309989,3.4906986
1570727089,2.4857788,-10.69191,1.7561493,2.2736206,-2.380951,-2.4705505,3.0941372,0.14982891,3.9020553
1570727090,-2.4211426,-16.889893,3.0430298,0.6565399,0.76264954,-1.7269897,-3.067678,-7.275815,4.8171005
1570727090,-2.8317413,-15.583267,1.4179688,0.8727875,1.1610565,-1.6194,-2.7421691,-5.6912794,2.6404152
1570727090,-2.525879,-10.153809,-0.4405365,0.8749237,1.7469482,-0.7458801,-4.0836163,-0.0726099,-0.48849097
1570727090,-2.525879,-10.153809,-0.4405365,0.8749237,1.7469482,-0.7458801,-4.0836163,-0.0726099,-0.48849097
1570727090,-0.79067993,-9.39006,0.22865295,0.87171936,0.5602417,0.03388977,-2.1256857,1.09797,-0.410439
1570727090,-0.79067993,-9.39006,0.22865295,0.87171936,0.5602417,0.03388977,-2.1256857,1.09797,-0.410439
1570727090,-0.49679565,-10.083786,0.20948792,0.8461609,0.99487305,0.22137451,-1.9316778,0.16273308,-0.54730797
1570727090,-3.3632507,-10.653595,-1.490982,1.1465607,-1.3891907,0.6261749,-3.2620916,0.058642387,-3.0583715
1570727090,3.2196045,-8.796295,-0.12808228,1.0485535,-2.794281,0.9830475,-0.29930657,0.51245975,-3.388783
1570727090,0.68473816,-10.131058,1.9434967,0.6000824,-0.24615479,-0.55093384,0.2672503,0.08584595,-0.033590198
1570727090,0.68473816,-10.131058,1.9434967,0.6000824,-0.24615479,-0.55093384,0.2672503,0.08584595,-0.033590198
1570727090,-1.391037,-12.422913,-0.38067627,0.09727478,0.532547,-0.6116638,-3.0259018,-2.0445604,-2.944341
1570727090,-1.391037,-12.422913,-0.38067627,0.09727478,0.532547,-0.6116638,-3.0259018,-2.0445604,-2.944341
1570727090,-2.4935608,-17.400467,-5.659897,-0.29367065,0.92456055,-0.13334656,-3.7383797,-7.700514,-6.9444036
1570727090,-2.4935608,-17.400467,-5.659897,-0.29367065,0.92456055,-0.13334656,-3.7383797,-7.700514,-6.9444036
1570727090,1.7178345,-15.013443,-3.408142,-2.1696014,0.33441162,0.6485443,0.08893502,-4.8325453,-5.4315863
1570727090,2.237381,-14.979324,-3.1118622,-2.3080902,0.41963196,0.6773071,0.7087512,-4.652832,-4.817588
1570727090,0.70150757,-14.971542,0.4519043,-2.41568,-0.8096924,0.95747375,-0.073803306,-4.3078346,0.3427454
1570727090,0.70150757,-14.971542,0.4519043,-2.41568,-0.8096924,0.95747375,-0.073803306,-4.3078346,0.3427454
1570727090,0.7362213,-11.455658,1.3748779,-1.3014069,-2.8336945,1.5710754,0.984427,-1.801878,2.8621998
1570727090,0.5991516,-11.294052,1.6226654,-1.2971497,-2.83049,1.5497589,1.1256732,-1.0963049,2.8548787
1570727090,-1.162384,-10.21785,2.4606476,-2.352829,0.59432983,1.7692108,0.886045,-0.11882877,2.969436
1570727090,-1.162384,-10.21785,2.4606476,-2.352829,0.59432983,1.7692108,0.886045,-0.11882877,2.969436
1570727090,0.084991455,-7.7254944,1.0983429,-1.5901031,1.2856903,1.8917084,2.4186912,2.0130167,4.1424627
1570727090,0.084991455,-7.7254944,1.0983429,-1.5901031,1.2856903,1.8917084,2.4186912,2.0130167,4.1424627
1570727090,0.77871704,-4.8045654,1.8028412,-1.079834,2.4223328,1.6286011,3.583411,3.9082098,6.234574
1570727090,0.77871704,-4.8045654,1.8028412,-1.079834,2.4223328,1.6286011,3.583411,3.9082098,6.234574
1570727090,2.5312653,-1.4873962,0.17837524,-0.24467468,2.6641388,0.36412048,5.100131,7.01528,5.47474
1570727090,2.4163513,-1.7280121,-5.834076,1.4256592,0.69873047,-0.67663574,5.0791698,7.756564,0.26694632
1570727090,2.4163513,-1.7280121,-5.834076,1.4256592,0.69873047,-0.67663574,5.0791698,7.756564,0.26694632
1570727090,9.260178,-17.438171,6.509842,1.1881104,-0.98864746,-1.1837006,9.638006,-9.040719,9.592378
1570727090,9.260178,-17.438171,6.509842,1.1881104,-0.98864746,-1.1837006,9.638006,-9.040719,9.592378
1570727091,-0.21847534,-8.494629,-1.3850403,1.6024933,-2.255249,-1.1549377,0.7168901,1.60954,1.943558
1570727091,-0.21847534,-8.494629,-1.3850403,1.6024933,-2.255249,-1.1549377,0.7168901,1.60954,1.943558
1570727091,0.66677856,-13.65712,1.8489227,1.8049011,-1.0301971,-1.9602814,2.005763,-2.1285276,3.6637933
1570727091,-0.2633667,-15.462357,1.4407043,1.5258026,-0.4890442,-2.1051636,0.52182096,-4.8915462,3.3520255
1570727091,-2.2038574,-12.660538,1.1659698,0.7684021,0.87768555,-1.7866516,-2.434988,-2.4247456,2.7656457
1570727091,-2.2038574,-12.660538,1.1659698,0.7684021,0.87768555,-1.7866516,-2.434988,-2.4247456,2.7656457
1570727091,-1.7489624,-9.822815,-0.925354,1.2658691,1.2452087,-0.49661255,-3.5457678,0.16091919,-0.08885574
1570727091,-1.7489624,-9.822815,-0.925354,1.2658691,1.2452087,-0.49661255,-3.5457678,0.16091919,-0.08885574
1570727091,-0.8050537,-8.330627,0.40402222,1.4757385,-0.18225098,0.040283203,-2.321836,1.878438,-0.049644917
1570727091,-0.8050537,-8.330627,0.40402222,1.4757385,-0.18225098,0.040283203,-2.321836,1.878438,-0.049644917
1570727091,-0.3106537,-8.24324,0.28251648,1.5002289,0.29925537,-0.056655884,-1.8051863,2.127346,-0.36216897
1570727091,0.3609314,-10.198105,-1.4993744,0.9484253,0.6827545,-0.22602844,-1.154831,0.2905674,-2.7508173
1570727091,-0.2675476,-10.424957,0.38726807,0.23257446,0.6720886,-0.26651,-1.714085,-0.2992401,-1.3909837
1570727091,-0.26275635,-10.321411,0.54408264,0.228302,0.66889954,-0.2569275,-1.714085,-0.2992401,-1.3909837
1570727091,-0.628479,-10.516525,1.9662323,0.31246948,-0.16520691,-0.07902527,-2.2725253,-0.3194132,0.04928255
1570727091,-0.20231628,-10.520721,2.3295593,0.53616333,-0.51460266,-0.04067993,-1.8953446,-0.43770123,0.51564467
1570727091,0.13168335,-10.031708,2.1009064,0.8046112,0.2587738,-0.08648682,-1.5537735,-0.002872467,-0.06983638
1570727091,0.13168335,-10.031708,2.1009064,0.8046112,0.2587738,-0.08648682,-1.5537735,-0.002872467,-0.06983638
1570727091,0.7362213,-10.721832,1.8836365,0.80674744,0.6859436,-0.23667908,-0.9534062,-0.63944244,-0.5652027
1570727091,0.66378784,-11.176132,1.3257904,0.81314087,0.82336426,-0.35386658,-0.9523436,-1.1426735,-1.3532498
1570727091,1.1330566,-11.795639,0.7655487,1.1529541,0.82762146,-0.06304932,-0.5724571,-2.2213364,-2.0703223
1570727091,1.1330566,-11.795639,0.7655487,1.1529541,0.82762146,-0.06304932,-0.5724571,-2.2213364,-2.0703223
1570727091,-2.9670105,-14.319122,-0.65600586,-1.6295166,2.1016846,-0.7874298,-3.736504,-4.595063,-5.4206977
1570727091,-2.9670105,-14.319122,-0.65600586,-1.6295166,2.1016846,-0.7874298,-3.736504,-4.595063,-5.4206977
1570727091,-3.7134094,-10.894821,2.803009,-1.8319092,1.8992767,0.4440155,-6.654105,-2.160699,1.1755033
1570727091,-3.7134094,-10.894821,2.803009,-1.8319092,1.8992767,0.4440155,-6.654105,-2.160699,1.1755033
1570727091,3.894165,-9.777924,-0.041305542,-0.997818,1.0918121,0.6655884,2.179594,1.1643152,-0.37827837
1570727091,5.190628,-11.64061,-3.9157104,-1.5986176,1.1557312,0.13296509,5.4462385,-0.65727043,-5.0221825
1570727091,0.06703186,-13.171707,3.5691528,-3.1730804,1.20047,-0.13761902,-0.22254628,-2.669178,2.4487112
1570727091,0.06703186,-13.171707,3.5691528,-3.1730804,1.20047,-0.13761902,-0.22254628,-2.669178,2.4487112
1570727091,-4.4538116,-12.261307,7.4453735,-2.1919708,3.2500305,-0.049194336,-4.4425716,-2.419507,8.47514
1570727091,-5.6227875,-11.665741,3.7690735,-0.7528076,0.20445251,0.79556274,-6.257009,-1.129817,4.4684258
1570727091,0.03352356,-13.1818695,3.6852722,0.4424286,1.0140533,1.886383,-1.3787508,-3.296152,6.014779
1570727091,0.50038147,-12.862854,3.3459015,0.42112732,1.1322937,1.8768005,-0.16657822,-2.8648396,4.930772
1570727092,0.7344208,-10.638641,0.47883606,-0.5983429,3.4194183,1.1194,1.6568968,0.024001122,2.227209
1570727092,0.7344208,-10.638641,0.47883606,-0.5983429,3.4194183,1.1194,1.6568968,0.024001122,2.227209
1570727092,2.3277588,-8.026566,-0.5590515,-0.68995667,2.3903656,0.6943512,3.349903,2.1471329,1.0728942
1570727092,2.3277588,-8.026566,-0.5590515,-0.68995667,2.3903656,0.6943512,3.349903,2.1471329,1.0728942
1570727092,2.308609,-6.934204,0.79667664,-0.52056885,1.8108673,0.47703552,3.6714733,3.2542658,2.91111
1570727092,2.0745697,-7.051529,0.86790466,-0.46731567,1.7778473,0.47491455,3.4684317,3.1932888,3.0139256
1570727092,-2.1009064,-10.574585,1.1845245,0.6277771,1.4923553,0.7657318,-0.37196398,-0.046682358,3.580023
1570727092,-2.8036041,-11.359283,0.63446045,0.9953003,1.695816,0.83283997,-1.3668623,-1.048543,3.1079242
1570727092,-2.921524,-11.4574585,-4.491516,0.24641418,1.582901,0.07437134,-2.0046115,-1.4038954,-3.46646
1570727092,-2.7491455,-11.413162,-3.9851532,0.21020508,1.5488129,0.067977905,-1.6134381,-1.2866507,-2.759548
1570727092,4.1832733,-8.526947,2.1954803,0.275177,-0.23550415,0.058395386,4.4653587,2.1357317,3.2702694
1570727092,4.1832733,-8.526947,2.1954803,0.275177,-0.23550415,0.058395386,4.4653587,2.1357317,3.2702694
1570727092,8.276154,-16.213531,0.96307373,1.9199524,-0.3729248,-1.236969,9.678348,-5.0531645,3.4055116
1570727092,-0.0018005371,-11.9123535,-2.0266876,0.16545105,-1.3061066,-0.9631958,0.7196149,-2.1876106,-1.831236
1570727092,0.3423767,-9.365524,2.2433624,-1.1022034,-1.2112885,-0.20898438,0.7533397,1.2570581,3.0409584
1570727092,0.3423767,-9.365524,2.2433624,-1.1022034,-1.2112885,-0.20898438,0.7533397,1.2570581,3.0409584
1570727092,-1.6274567,-11.9279175,7.242462,-0.93496704,2.2955627,-0.57437134,-0.82964444,-1.1772318,8.517627
1570727092,-1.6274567,-11.9279175,7.242462,-0.93496704,2.2955627,-0.57437134,-0.82964444,-1.1772318,8.517627
1570727092,-4.0485992,-13.394363,8.587997,0.26985168,5.788559,-0.21858215,-3.6880848,-2.937439,10.273803
1570727092,-7.0700836,-12.182892,-1.1414337,2.7039795,7.5569,0.5313721,-6.761845,-0.99858856,4.0671897
1570727092,-2.6982727,-11.121658,-9.54628,2.600647,-0.2940979,1.4975739,-3.8072054,-1.0441694,-10.419105
1570727092,2.0823517,-11.852493,-3.7648773,1.8965149,-3.2992096,1.5902405,0.5959814,-0.6208191,-6.0280905
1570727092,0.59495544,-10.255569,2.2583313,-0.22763062,0.8862152,0.6687927,0.14732516,-0.8447237,0.18576196
1570727092,0.23342896,-10.010162,2.897583,-0.063568115,0.5858154,0.6293793,1.3933489,-0.02486229,1.5112333
1570727092,2.0284882,-8.632294,5.945404,1.4448395,0.18739319,0.47917175,2.403678,1.470026,5.8185863
1570727092,-2.135025,-9.121902,1.6472168,0.88238525,0.8915405,-0.14506531,-1.0945182,0.8262501,-0.18041897
1570727092,-2.135025,-9.121902,1.6472168,0.88238525,0.8915405,-0.14506531,-1.0945182,0.8262501,-0.18041897
1570727092,-0.383667,-9.811432,2.5288696,0.7737274,0.59646606,-0.39967346,0.48463607,0.7084522,0.81698036
1570727092,-0.16400146,-12.077545,0.05267334,0.72792053,1.0587921,-0.6095276,1.0581635,-1.4342127,-1.0125121
1570727092,-4.2233734,-12.9640045,-2.565384,0.3444214,0.57621765,-0.6191101,-2.1422338,-2.3703585,-4.8906755
1570727092,-9.314041,-15.97052,5.8328705,-0.10725403,0.7924652,-0.12908936,-7.305149,-4.7838526,2.0756087
1570727092,0.39564514,-14.736908,-1.6711578,-0.15306091,1.569046,0.09461975,0.7394803,-4.027914,-3.311438
1570727092,-1.0091553,-15.220535,-0.80804443,-1.2662659,2.5373688,-0.13334656,0.06947899,-5.103117,-1.9078842
1570727092,-1.1163025,-13.344681,-3.5913086,-1.5922241,1.8481445,-0.23988342,0.18002689,-3.5338345,-3.9206934
1570727093,-2.8401184,-13.348267,-2.7413635,-2.8737488,-1.3774719,-0.35173035,-2.099742,-2.312395,-3.4796054
1570727093,-2.8401184,-13.348267,-2.7413635,-2.8737488,-1.3774719,-0.35173035,-2.099742,-2.312395,-3.4796054
1570727093,-2.8281555,-14.475937,3.8899841,-1.8244629,-0.07785034,0.65493774,-2.162928,-3.7324476,8.69339
1570727093,-2.514511,-12.513901,2.4211426,-2.4305878,0.802063,0.5782471,-0.7434045,-2.0571184,4.1293964
1570727093,-2.991562,-12.780853,3.115448,-2.4060974,0.7967377,0.5707855,-0.7434045,-2.0571184,4.1293964
1570727093,-5.0392,-15.003265,-2.0667877,-0.7293701,-0.15881348,2.6736145,-3.6556728,-4.799547,0.18957329
1570727093,-5.0392,-15.003265,-2.0667877,-0.7293701,-0.15881348,2.6736145,-3.6556728,-4.799547,0.18957329
1570727093,-0.25857544,-12.25592,1.7705078,-1.6454926,2.303009,2.6118317,2.7729619,-3.6161242,5.1141043
1570727093,-0.55426025,-8.834,2.7539368,-1.5794525,2.665207,2.3891907,2.443451,-0.64725494,6.975327
1570727093,-0.55426025,-8.834,2.7539368,-1.5794525,2.665207,2.3891907,2.443451,-0.64725494,6.975327
1570727093,1.4832153,-3.7606964,1.7052765,-1.0979462,3.0529633,1.5891724,5.158264,3.64538,7.861593
1570727093,1.4832153,-3.7606964,1.7052765,-1.0979462,3.0529633,1.5891724,5.158264,3.64538,7.861593
1570727093,0.6380615,-3.324356,0.080200195,-0.09979248,2.795166,0.8360443,3.921049,4.150017,7.090637
1570727093,0.24839783,-3.2800598,0.053863525,0.20593262,2.5821228,0.7891693,3.5377393,4.1804757,6.8724356
1570727093,0.049087524,-3.4656067,-1.3581085,1.1220703,1.7469482,0.703949,2.8191996,4.1272526,5.4991183
1570727093,0.7559662,-6.3943176,-3.8337097,2.2256775,-0.13644409,0.3662567,2.7349427,1.9148369,1.2460117
1570727093,6.391327,-8.878296,2.8245544,2.919159,-0.3452301,-0.07902527,7.6090956,0.096383095,8.427137
1570727093,-2.031479,-19.612701,-5.7502747,2.7295532,-2.5663147,-1.2103424,1.0403554,-10.399475,-2.5428429
1570727093,-2.031479,-19.612701,-5.7502747,2.7295532,-2.5663147,-1.2103424,1.0403554,-10.399475,-2.5428429
1570727093,-0.16160583,-10.749374,-2.1470032,1.3830566,-1.5127563,-0.97384644,2.2434769,-2.9571867,-0.04017639
1570727093,3.4356842,-9.718063,2.087143,0.88238525,-1.0823975,-2.0423126,5.16073,0.4914093,4.4817796
1570727093,3.4931335,-9.876678,1.9955597,0.87171936,-0.9897156,-2.0518951,5.16073,0.4914093,4.4817796
1570727093,-0.27053833,-14.218567,4.2467194,0.3263092,2.730194,-1.5810547,0.37909007,-3.953166,6.5149612
1570727093,-0.27053833,-14.218567,4.2467194,0.3263092,2.730194,-1.5810547,0.37909007,-3.953166,6.5149612
1570727093,-2.143402,-12.094315,-0.0861969,1.5108795,3.080658,-0.8641205,-2.3991208,-2.3051348,2.1547017
1570727093,-3.585312,-10.724823,-2.3846283,1.6323242,1.8428192,-0.6564026,-3.8582075,-0.5944319,-0.91950524
1570727093,-3.0364532,-10.417175,-1.3557129,0.8046112,0.8148346,0.2160492,-3.926533,0.06373119,-0.9443542
1570727093,-3.0364532,-10.417175,-1.3557129,0.8046112,0.8148346,0.2160492,-3.926533,0.06373119,-0.9443542
1570727093,-3.367447,-10.973816,-1.8525085,0.6554718,0.16397095,0.90740967,-3.8533013,-0.413311,-1.3522395
1570727093,0.56443787,-9.965271,0.0975647,1.9625549,-1.551117,1.3335114,0.5587475,0.06177044,0.64457834
1570727093,3.2094269,-8.765167,-3.4973297,1.4331207,-2.206253,1.4720001,0.48745415,0.6311884,-4.7276416
1570727093,6.5206146,-8.822632,-0.4303589,0.5319061,-1.0994415,0.070114136,8.295097,1.8480539,-1.8583212
1570727094,-2.0823517,-9.964066,0.77871704,0.7939606,0.16716003,-0.42311096,-2.0111659,0.24046803,0.10185516
1570727094,-2.0823517,-9.964066,0.77871704,0.7939606,0.16716003,-0.42311096,-2.0111659,0.24046803,0.10185516
1570727094,-1.7262268,-10.488403,0.18614197,0.5233917,-0.21633911,-0.51472473,-1.7857345,-0.06858158,-1.2147446
1570727094,0.49978638,-12.686279,0.44232178,0.28050232,0.38554382,-0.5615845,0.41920575,-2.1914291,-0.742095
1570727094,-2.4971466,-12.889786,0.57580566,0.15800476,0.216156,-0.42843628,-2.0277624,-2.3007097,-1.4395984
1570727094,-2.4971466,-12.889786,0.57580566,0.15800476,0.216156,-0.42843628,-2.0277624,-2.3007097,-1.4395984
1570727094,-3.1513672,-16.506226,1.7549438,-0.3799591,0.3280182,0.093551636,-3.6953425,-5.7828712,-0.28066933
1570727094,1.5406647,-14.210785,0.3256073,-0.42790222,2.1496124,0.30021667,0.7501413,-4.3975534,-0.0015867949
1570727094,0.64523315,-12.148178,-6.2398834,-0.99568176,1.4838257,-0.22816467,0.9300094,-1.5105972,-6.880665
1570727094,0.64523315,-12.148178,-6.2398834,-0.99568176,1.4838257,-0.22816467,0.9300094,-1.5105972,-6.880665
1570727094,0.6087189,-14.779404,-6.096237,-2.576538,0.18313599,-0.19940186,0.36223617,-3.4700022,-6.838869
1570727094,2.8730469,-12.894577,2.7940369,-2.7075653,-1.0664215,0.14042664,2.9407828,-3.0806398,3.8041162
1570727094,2.8730469,-12.894577,2.7940369,-2.7075653,-1.0664215,0.14042664,2.9407828,-3.0806398,3.8041162
1570727094,-5.2959747,-13.282425,3.8666382,-1.5943604,-1.2922516,0.563324,-2.1797366,-1.4177628,5.0910892
1570727094,-6.2482605,-13.795395,3.8600464,-1.5943604,-1.2922516,0.563324,-4.2697835,-2.474059,6.313778
1570727094,-6.344635,-14.468765,-4.1216125,-1.013794,-2.4001312,2.0408478,-7.583157,-4.7660465,-0.5409515
1570727094,-0.40821838,-9.121902,1.2479706,-2.2228699,0.8670349,1.8544312,1.7221923,0.50929165,5.5456824
1570727094,-0.28251648,-9.099762,1.1635895,-2.1919708,0.9096527,1.8618927,1.7221923,0.50929165,5.5456824
1570727094,-1.1252747,-8.887283,1.3946228,-2.0492249,1.5946198,1.853363,1.2534904,0.4355526,7.204032
1570727094,1.4263458,-3.4344788,1.9345093,-1.4942322,2.20607,1.2440338,4.4271746,4.53378,7.438067
1570727094,1.4263458,-3.4344788,1.9345093,-1.4942322,2.20607,1.2440338,4.4271746,4.53378,7.438067
1570727094,2.7934418,-0.5991516,-0.375885,0.5276489,1.26651,-0.14294434,4.7973723,6.825973,5.6539965
1570727094,2.7934418,-0.5991516,-0.375885,0.5276489,1.26651,-0.14294434,4.7973723,6.825973,5.6539965
1570727094,4.2622833,-1.2342072,-1.2749176,1.8762665,0.09472656,-0.6830292,5.9298763,7.6214256,5.1826124
1570727094,-2.2463531,-19.287094,-4.7734375,2.249115,-1.2560272,-0.4880829,-0.10730612,-7.693179,-7.362293
1570727094,1.6621704,-19.612701,-5.2355194,1.9220734,-2.0006561,-1.3403015,5.561087,-10.427573,1.8153687
1570727094,-0.8672943,-12.307999,-1.905777,1.5364532,-1.4829407,-1.0260468,1.0981753,-6.5455494,0.51034737
1570727094,-0.5105591,-8.525757,1.9261322,1.8485718,-2.8858948,-1.2614746,1.5275284,1.6359291,4.023989
1570727094,-0.81881714,-10.5686035,2.4881744,2.199051,-2.208374,-1.4638672,0.87144196,-0.2605543,5.6294665
1570727094,0.73561096,-16.115372,2.6851044,1.3532257,-1.4978485,-2.529129,2.1004484,-4.883458,4.4155655
1570727094,-1.8441315,-15.642517,3.6942596,0.20274353,0.44519043,-1.6929016,-1.4326758,-5.975438,5.056014
1570727094,-4.3825836,-11.876434,-2.103302,1.391571,1.774643,-1.0569305,-4.88952,-2.142992,-0.362332
1570727094,-2.6384125,-9.265564,-2.4259186,0.7502899,1.36026,-0.80126953,-3.4670212,0.9947233,-1.7769802
1570727094,-2.3696594,-9.135681,-1.5209198,0.626709,1.1727753,-0.6990051,-3.1916275,1.2567968,-1.1868768
1570727095,-1.2138672,-8.667603,1.0217285,0.60861206,1.648941,-0.23562622,-2.2770019,1.6519489,1.4046489
1570727095,-3.588913,-10.227432,-1.0690155,1.0954285,0.29818726,0.7007446,-4.2804956,0.43313217,-1.1774781
1570727095,-3.588913,-10.227432,-1.0690155,1.0954285,0.29818726,0.7007446,-4.2804956,0.43313217,-1.1774781
1570727095,-0.46148682,-10.225632,-0.3722992,2.1425934,-2.7420807,1.550827,-3.0449417,-0.21020222,-0.89704597
1570727095,6.040573,-9.687546,-1.2635345,2.1159515,-2.2925415,1.4357758,4.1102986,0.7681513,-2.0044706
1570727095,-2.866455,-11.002548,2.537857,0.497818,-0.07678223,-0.6042023,-2.4688377,-0.76317406,0.5859288
1570727095,-2.866455,-11.002548,2.537857,0.497818,-0.07678223,-0.6042023,-2.4688377,-0.76317406,0.5859288
1570727095,-2.0015564,-11.525085,1.9554596,0.26559448,0.12774658,-0.52749634,-2.4658387,-1.2076197,-0.40180886
1570727095,-1.9099731,-11.790848,2.5989075,0.29968262,0.10644531,-0.5211029,-2.382721,-1.4689016,0.49504542
1570727095,-1.6442108,-15.983688,0.56204224,0.60328674,1.2153778,-0.2654419,-2.5911498,-4.7918444,-0.9105618
1570727095,-1.5939331,-16.358383,0.29089355,0.56492615,1.2846222,-0.24627686,-2.3408766,-5.606104,-1.6121156
1570727095,1.1815338,-12.771866,-2.1571808,-0.7378845,1.0694427,0.27464294,-0.114173084,-3.2093954,-4.806238
1570727095,1.3694763,-12.855667,-1.8680725,-0.7794342,1.0737,0.25759888,0.677477,-2.5262127,-4.549563
1570727095,1.7016754,-12.112259,-0.55426025,-1.1298981,1.585022,0.021102905,1.6244553,-1.727788,-2.3207555
1570727095,1.1988983,-12.0907135,-1.8201904,-1.4356384,1.5285645,0.021102905,0.9900317,-1.6366053,-2.977622
1570727095,-0.20770264,-13.663712,1.5484467,-2.5690765,0.007369995,0.0104522705,0.08283797,-2.6504755,0.20152962
1570727095,0.17358398,-13.491333,1.2210388,-2.5562897,-0.10342407,0.052001953,-0.31319413,-3.0304918,1.2466508
1570727095,1.3048401,-12.6324005,1.648407,-1.9949036,-1.0706787,0.15852356,1.159587,-2.4335165,3.0361023
1570727095,-0.36990356,-12.192474,-1.656189,-2.1280518,-1.2922516,0.57611084,-0.10844371,-1.7125893,-0.98349535
1570727095,0.20111084,-12.983154,-1.6160889,-2.7586975,-0.9620209,1.9311218,-2.1306734,-3.9932308,5.679163
1570727095,0.20111084,-12.983154,-1.6160889,-2.7586975,-0.9620209,1.9311218,-2.1306734,-3.9932308,5.679163
1570727095,-1.1665802,-10.582367,1.296463,-2.832199,0.18527222,1.9598846,0.98419595,-0.8759756,4.5079045
1570727095,-1.1665802,-10.582367,1.296463,-2.832199,0.18527222,1.9598846,0.98419595,-0.8759756,4.5079045
1570727095,-2.4887695,-10.561417,1.2701263,-2.432724,0.8063202,2.076004,-0.37434173,-1.7761145,6.7084966
1570727095,-0.15441895,-5.762848,2.7072449,-1.8787842,2.0686646,1.5423126,2.174061,1.8579559,8.599975
1570727095,1.8465271,-1.2060852,0.07182312,-0.18182373,1.379425,0.14147949,4.2430162,7.1074977,7.0297947
1570727095,1.8465271,-1.2060852,0.07182312,-0.18182373,1.379425,0.14147949,4.2430162,7.1074977,7.0297947
1570727095,2.7575226,-0.383667,-1.4562683,1.9891968,-0.15774536,-0.26651,4.758282,7.470264,4.8663344
1570727095,-0.78948975,-13.268066,-13.784012,2.9053192,-0.519928,-0.3038025,3.628934,-1.400403,-1.5130248
1570727095,-0.78948975,-13.268066,-13.784012,2.9053192,-0.519928,-0.3038025,3.628934,-1.400403,-1.5130248
1570727095,-2.2972412,-15.267822,-3.6008759,1.3148804,-1.5809326,-0.87158203,0.043087006,-10.025048,-0.7528801
1570727095,-2.051239,-13.469772,-2.897583,1.2584229,-1.587326,-0.8097992,-0.36563492,-6.850299,-0.15910697
1570727095,1.2006989,-5.5401764,0.3471527,1.4288635,-2.6909485,-1.1773071,3.1598163,4.1025143,3.3271685
1570727095,1.371872,-8.628708,2.2714996,2.0019684,-2.507721,-1.8047485,3.152803,2.2777529,4.5821166
1570727096,-4.645355,-19.609116,2.8766327,1.0783844,-0.3644104,-1.9293823,-3.066083,-9.343011,4.782284
1570727096,-4.645355,-19.609116,2.8766327,1.0783844,-0.3644104,-1.9293823,-3.066083,-9.343011,4.782284
1570727096,-4.024658,-12.78923,-1.486206,0.4946289,1.1791687,-1.4894409,-4.206929,-3.0622034,-0.43040764
1570727096,-2.6162567,-10.487793,0.6494293,0.3252411,1.5509338,-1.1421661,-3.2934203,-0.5630274,1.0881879
1570727096,-2.2517395,-9.468475,-2.0769653,0.91326904,2.1634674,-0.4646454,-3.1049168,0.92287064,-1.5404322
1570727096,-2.2517395,-9.468475,-2.0769653,0.91326904,2.1634674,-0.4646454,-3.1049168,0.92287064,-1.5404322
1570727096,-4.7806244,-9.744995,-1.2072754,0.7779846,0.16716003,0.6176605,-5.2668676,0.27089405,-0.71803874
1570727096,-4.7459106,-9.373901,-0.45729065,1.2765198,-2.2136993,1.1460266,-5.519192,0.9991474,-1.018813
1570727096,1.0558472,-7.9870605,-0.59495544,1.9625549,-1.634201,1.5209961,-1.3852792,1.7716513,0.17749149
1570727096,6.2153473,-10.875061,0.7008972,0.7470856,-0.6211395,-0.503006,8.747043,0.07595253,-1.7116508
1570727096,6.2153473,-10.875061,0.7008972,0.7470856,-0.6211395,-0.503006,8.747043,0.07595253,-1.7116508
1570727096,-3.5350342,-11.823761,-0.34536743,0.45414734,-0.03843689,-0.5860901,-4.0422325,-1.555604,-2.458803
1570727096,-3.5350342,-11.823761,-0.34536743,0.45414734,-0.03843689,-0.5860901,-4.0422325,-1.555604,-2.458803
1570727096,-3.9085388,-16.28476,0.19332886,0.20381165,0.7871399,-0.18981934,-4.5459795,-5.3104334,-0.733148
1570727096,-3.9085388,-16.28476,0.19332886,0.20381165,0.7871399,-0.18981934,-4.5459795,-5.3104334,-0.733148
1570727096,0.5853882,-14.861404,-2.620453,-0.67503357,0.7349396,0.54522705,-0.52790165,-5.2241545,-4.1990123
1570727096,1.3227997,-14.279617,-1.6867218,-0.8625183,0.79992676,0.58143616,0.70251876,-4.215453,-3.9663656
1570727096,2.1140747,-13.049591,-3.3901825,-2.144043,1.0694427,0.044540405,2.3310041,-2.3142357,-3.8866827
1570727096,2.1140747,-13.049591,-3.3901825,-2.144043,1.0694427,0.044540405,2.3310041,-2.3142357,-3.8866827
1570727096,0.57640076,-14.701599,2.301422,-2.5690765,-0.52952576,0.14894104,0.51009446,-4.51309,1.8225033
1570727096,0.57640076,-14.701599,2.301422,-2.5690765,-0.52952576,0.14894104,0.51009446,-4.51309,1.8225033
1570727096,-0.9624634,-13.14357,1.059433,-1.5400391,-0.6882477,0.5984802,-0.63783205,-3.301196,5.4325576
1570727096,-4.2467194,-13.590683,3.7636871,-2.0428314,-1.3263397,1.0480194,-1.2105677,-1.9912872,3.3359187
1570727096,-4.2467194,-13.590683,3.7636871,-2.0428314,-1.3263397,1.0480194,-1.2105677,-1.9912872,3.3359187
1570727096,-0.93074036,-10.187332,1.6310425,-2.083313,0.20018005,1.9396515,0.36186016,-1.1806641,4.3887196
1570727096,-1.4131775,-9.533112,1.6496124,-2.1483002,0.83187866,1.8437805,0.687868,0.19686604,5.4460745
1570727096,-0.72125244,-8.495819,1.5251007,-1.7914276,1.0406799,1.9353943,2.1348372,0.90628815,5.780219
1570727096,-0.3866577,-7.7811584,1.1725616,-1.7243195,1.3613281,1.9119568,2.3134844,0.9039755,5.438599
1570727096,1.5526428,-2.8945923,1.1366425,-1.286499,2.3786469,0.8573456,4.064092,4.845007,7.3314466
1570727096,1.5526428,-2.8945923,1.1366425,-1.286499,2.3786469,0.8573456,4.064092,4.845007,7.3314466
1570727096,2.2104492,-1.9303284,-0.70988464,0.91326904,0.8713074,-0.039611816,4.262266,5.850923,5.601311
1570727096,2.2104492,-1.9303284,-0.70988464,0.91326904,0.8713074,-0.039611816,4.262266,5.850923,5.601311
1570727096,2.7407684,-4.2161865,-7.2909393,2.250183,-0.80223083,-0.4412079,5.4956765,5.505248,0.3047943
1570727097,0.53749084,-14.48732,-1.0839691,2.8605804,-2.2563171,-0.8343048,3.0433166,-5.000684,3.1168165
1570727097,0.25857544,-15.447388,-1.3796539,2.8925323,-2.6280975,-0.9919586,2.866372,-5.6950417,3.2140436
1570727097,-3.7744598,-19.612701,-4.432266,2.2384644,-3.0105286,-1.1304474,-0.7436781,-10.139331,-1.8713193
1570727097,0.02633667,-8.39946,-1.7489624,1.6483002,-2.0411377,-1.127243,1.3938634,-0.08068085,1.9574053
1570727097,3.3147736,-10.006561,0.32382202,1.5183411,-2.3894806,-2.87854,4.4852943,0.98556423,2.292727
1570727097,3.3147736,-10.006561,0.32382202,1.5183411,-2.3894806,-2.87854,4.4852943,0.98556423,2.292727
1570727097,-0.7302246,-17.775146,3.2285767,0.6192627,-1.41156,-2.6239471,0.9681272,-5.9556513,3.3438141
1570727097,-2.3301544,-12.151764,-1.161789,0.9942322,2.4819794,-1.1474915,-2.6148977,-2.1378393,-0.31204998
1570727097,-2.3301544,-12.151764,-1.161789,0.9942322,2.4819794,-1.1474915,-2.6148977,-2.1378393,-0.31204998
1570727097,-3.6338043,-9.777924,0.29988098,0.49568176,1.0342865,-0.69581604,-4.535878,0.6640301,-0.033348512
1570727097,-3.6338043,-9.777924,0.29988098,0.49568176,1.0342865,-0.69581604,-4.535878,0.6640301,-0.033348512
1570727097,-4.9703674,-9.968262,-0.8236084,0.63630676,0.54959106,0.7273865,-6.0779457,0.08198929,-0.54707325
1570727097,-4.9703674,-9.968262,-0.8236084,0.63630676,0.54959106,0.7273865,-6.0779457,0.08198929,-0.54707325
1570727097,1.036087,-9.5325165,0.31782532,2.0967865,-3.8062744,1.979065,-1.0303822,0.7776737,-0.74314964
1570727097,1.036087,-9.5325165,0.31782532,2.0967865,-3.8062744,1.979065,-1.0303822,0.7776737,-0.74314964
1570727097,12.034454,-9.202713,-3.4165192,2.0456543,-1.551117,1.4336548,9.808044,0.57019806,-2.94411
1570727097,-3.940857,-11.133041,2.7150269,0.450943,0.15864563,-0.7852936,-4.241378,-1.050107,1.7459866
1570727097,-3.940857,-11.133041,2.7150269,0.450943,0.15864563,-0.7852936,-4.241378,-1.050107,1.7459866
1570727097,-3.3728333,-14.950592,1.8016357,0.39448547,0.08833313,-0.36238098,-4.0769987,-4.774954,0.1079998
1570727097,-3.3728333,-14.950592,1.8016357,0.39448547,0.08833313,-0.36238098,-4.0769987,-4.774954,0.1079998
1570727097,1.945282,-15.245682,-3.071167,-0.76878357,0.32481384,0.25013733,0.7725718,-6.2432775,-4.985774
1570727097,1.945282,-15.245682,-3.071167,-0.76878357,0.32481384,0.25013733,0.7725718,-6.2432775,-4.985774
1570727097,0.37649536,-11.901581,-1.0175323,-1.5602722,1.0332184,0.09034729,-0.030033827,-1.7032919,-2.2425656
1570727097,0.38426208,-11.855484,-0.9636688,-1.5858307,1.0310974,0.06690979,-0.012809396,-1.5206013,-2.259047
1570727097,-0.66319275,-14.040802,-0.36691284,-2.0769196,0.14904785,0.30126953,-0.72759354,-3.1257849,-1.1236206
1570727097,-0.66319275,-14.040802,-0.36691284,-2.0769196,0.14904785,0.30126953,-0.72759354,-3.1257849,-1.1236206
1570727097,0.96006775,-13.020859,0.5135498,-1.9885101,-1.1761322,0.84562683,0.858887,-3.0464172,1.8383664
1570727097,0.96006775,-13.020859,0.5135498,-1.9885101,-1.1761322,0.84562683,0.858887,-3.0464172,1.8383664
1570727097,-4.855438,-13.569733,3.8271332,-2.0396423,0.11177063,1.4166107,-3.295439,-2.2411623,7.833558
1570727097,-4.855438,-13.569733,3.8271332,-2.0396423,0.11177063,1.4166107,-3.295439,-2.2411623,7.833558
1570727097,-0.8960266,-9.978439,1.2270355,-2.1759949,0.3791504,1.8235321,0.6768627,-0.34220886,4.089093
1570727097,-0.8960266,-9.978439,1.2270355,-2.1759949,0.3791504,1.8235321,0.6768627,-0.34220886,4.089093
1570727097,0.11192322,-8.355164,0.8487396,-1.7552185,1.1493378,2.0227356,2.3246205,0.6932459,5.2769923
1570727098,0.0,-7.2628174,1.1234741,-1.6231232,1.6542664,1.8725433,2.7596288,1.3792801,6.5384026
1570727098,1.3479309,-1.8578949,0.94810486,-1.1789093,2.4233856,0.87438965,3.7358475,6.0288496,7.0557175
1570727098,1.3479309,-1.8578949,0.94810486,-1.1789093,2.4233856,0.87438965,3.7358475,6.0288496,7.0557175
1570727098,2.0524292,-2.1697388,-1.616684,0.880249,1.2622528,0.048812866,4.016711,5.9246025,4.8480754
1570727098,2.0524292,-2.1697388,-1.616684,0.880249,1.2622528,0.048812866,4.016711,5.9246025,4.8480754
1570727098,-0.9576874,-15.348633,-8.109161,2.0456543,-1.2475128,-0.36665344,2.5642762,-2.9160957,-3.079483
1570727098,-0.9576874,-15.348633,-8.109161,2.0456543,-1.2475128,-0.36665344,2.5642762,-2.9160957,-3.079483
1570727098,1.398819,-18.251602,-1.8926239,2.3098297,-1.2997131,-0.9365692,3.7587113,-9.242994,2.9733667
1570727098,0.6643982,-6.4332275,-0.9002228,1.8581543,-2.4246216,-1.1655884,2.3555868,3.2674828,1.7195358
1570727098,0.6643982,-6.4332275,-0.9002228,1.8581543,-2.4246216,-1.1655884,2.3555868,3.2674828,1.7195358
1570727098,1.9357147,-11.171341,2.3026276,2.3066406,-2.6004028,-1.9166107,3.032251,0.33038425,3.8358197
1570727098,-1.7136536,-19.424164,4.260483,1.1912994,-1.1239471,-2.306488,0.32261306,-8.290134,4.929531
1570727098,-2.41156,-13.886963,-0.9133911,0.5681305,1.026825,-1.6130066,-2.0345702,-4.305497,0.86568296
1570727098,-3.0190887,-13.472168,-1.1498108,0.626709,1.0353546,-1.6556091,-2.3895612,-3.6264858,0.04498291
1570727098,-1.8495178,-10.597931,1.5119324,0.35188293,2.1932983,-1.0899658,-2.9314475,-0.29616356,1.9062357
1570727098,-1.1240845,-9.772537,1.3054352,0.78437805,2.7088776,-0.64042664,-2.330582,0.66364765,1.7961879
1570727098,-2.3726501,-8.925583,-1.2324219,0.5766449,2.313675,-0.36665344,-3.0624669,1.6631918,-1.3703742
1570727098,-2.7204132,-9.107544,-1.0588379,0.5532074,2.2561493,-0.36026,-3.5327973,1.4829845,-1.5097924
1570727098,-6.4362183,-10.314224,-1.6980896,0.9963684,-0.030975342,0.87545776,-7.592296,-0.04967785,-2.4255025
1570727098,4.8650208,-9.989807,-1.4526825,1.9870605,-1.9878693,2.046173,0.880751,-0.36467075,-1.2097149
1570727098,4.8650208,-9.989807,-1.4526825,1.9870605,-1.9878693,2.046173,0.880751,-0.36467075,-1.2097149
1570727098,13.519455,-7.9200134,-2.0218964,0.7225952,-0.4006195,0.4120636,13.35259,2.1814814,-4.361456
1570727098,-2.1607666,-10.41478,-0.3040619,0.75987244,-0.5273895,-0.39753723,-2.632986,-0.0038499832,-2.8101172
1570727098,-2.1607666,-10.41478,-0.3040619,0.75987244,-0.5273895,-0.39753723,-2.632986,-0.0038499832,-2.8101172
1570727098,0.5668335,-13.177689,4.5352173,0.4797058,0.39726257,-0.55625916,-0.067264915,-2.5940895,2.1640804
1570727098,0.17178345,-14.178467,4.218582,0.5393677,0.7967377,-0.5637207,-0.1472711,-3.408414,2.0599508
1570727098,0.21009827,-15.583267,-2.9813843,-0.18927002,0.49206543,-0.34960938,-0.772956,-5.7682743,-6.0376205
1570727098,0.21009827,-15.583267,-2.9813843,-0.18927002,0.49206543,-0.34960938,-0.772956,-5.7682743,-6.0376205
1570727098,1.3054352,-12.8927765,-0.50816345,-1.046814,0.7935333,-0.1876831,0.23848337,-2.9991732,-3.5424616
1570727098,1.5999298,-11.082169,-1.7621307,-1.7456207,0.9277649,-0.30273438,0.7964264,-0.72645664,-3.4408517
1570727098,1.5999298,-11.082169,-1.7621307,-1.7456207,0.9277649,-0.30273438,0.7964264,-0.72645664,-3.4408517
1570727098,-3.1795044,-12.871826,-3.4590302,-2.338974,0.31843567,-0.14294434,-3.3663833,-2.3601065,-3.3912168
1570727098,-3.1795044,-12.871826,-3.4590302,-2.338974,0.31843567,-0.14294434,-3.3663833,-2.3601065,-3.3912168
1570727099,-1.8387451,-8.166031,3.1118622,-2.3911743,-0.982254,0.338562,-3.4315965,1.9691248,3.369124
1570727099,-1.8387451,-8.166031,3.1118622,-2.3911743,-0.982254,0.338562,-3.4315965,1.9691248,3.369124
1570727099,1.8375549,-7.735672,12.381607,-0.7986145,1.0737,0.77957153,0.8148315,2.1238174,15.231556
1570727099,1.8375549,-7.735672,12.381607,-0.7986145,1.0737,0.77957153,0.8148315,2.1238174,15.231556
1570727099,-3.4284973,-12.0859375,-5.6395416,-0.0060577393,0.9884796,1.1865082,-2.969195,-1.4244461,-4.749161
1570727099,-3.4284973,-12.0859375,-5.6395416,-0.0060577393,0.9884796,1.1865082,-2.969195,-1.4244461,-4.749161
1570727099,1.9680328,-7.9158325,4.4376526,-0.58555603,0.6060486,1.2472229,2.193285,1.8825197,6.6576614
1570727099,1.9680328,-7.9158325,4.4376526,-0.58555603,0.6060486,1.2472229,2.193285,1.8825197,6.6576614
1570727099,1.7459717,-7.6273346,2.1242523,0.1260376,2.0409546,0.68263245,2.8613193,2.6037455,5.102599
1570727099,2.557602,-7.890091,1.1689758,0.25387573,2.0058136,0.3566742,2.9829037,2.0681295,3.6558163
1570727099,4.1683044,-6.3589935,-1.3096313,0.8269806,1.9195251,-0.12483215,4.973494,3.9249973,1.531044
1570727099,4.1683044,-6.3589935,-1.3096313,0.8269806,1.9195251,-0.12483215,4.973494,3.9249973,1.531044
1570727099,-5.8394623,-17.190964,-9.352356,1.0517578,1.5562592,-0.44015503,-5.3638735,-7.7056456,-8.192185
1570727099,-5.8394623,-17.190964,-9.352356,1.0517578,1.5562592,-0.44015503,-5.3638735,-7.7056456,-8.192185
1570727099,2.9388885,-12.126633,-1.5526428,-0.14985657,0.43347168,-0.791687,1.9067817,-0.25855255,0.038223267
1570727099,2.9388885,-12.126633,-1.5526428,-0.14985657,0.43347168,-0.791687,1.9067817,-0.25855255,0.038223267
1570727099,2.7407684,-8.7621765,0.29748535,0.06425476,1.20047,0.049865723,1.9868534,0.5904083,2.2760084
1570727099,2.7407684,-8.7621765,0.29748535,0.06425476,1.20047,0.049865723,1.9868534,0.5904083,2.2760084
1570727099,0.26275635,-8.552689,0.7475891,-0.7602539,0.41537476,-0.0854187,-0.5930396,2.309394,2.0688896
1570727099,0.26275635,-8.552689,0.7475891,-0.7602539,0.41537476,-0.0854187,-0.5930396,2.309394,2.0688896
1570727099,-0.2675476,-12.240952,4.4364624,-0.018829346,1.5530701,-0.12696838,-1.0757474,-1.8976612,6.455802
1570727099,-0.31843567,-12.287048,4.4172974,0.09194946,1.6777039,-0.12376404,-1.0757474,-1.8976612,6.455802
1570727099,-0.1765747,-11.189896,1.0103607,1.4714661,3.5152893,0.28955078,-1.4525039,-0.9439516,2.2890239
1570727099,-0.1765747,-11.189896,1.0103607,1.4714661,3.5152893,0.28955078,-1.4525039,-0.9439516,2.2890239
1570727099,-0.51893616,-11.224609,-3.5511932,0.89089966,1.0587921,0.305542,-1.4502228,-0.8007736,-3.7138283
1570727099,-0.51893616,-11.224609,-3.5511932,0.89089966,1.0587921,0.305542,-1.4502228,-0.8007736,-3.7138283
1570727099,0.4303589,-10.116699,1.0408783,0.2666626,0.5037842,0.55693054,-0.47674203,0.21388912,0.5978361
1570727099,0.4303589,-10.116699,1.0408783,0.2666626,0.5037842,0.55693054,-0.47674203,0.21388912,0.5978361
1570727099,0.5123596,-9.54628,1.5304871,0.5755768,0.28860474,0.21179199,0.04095429,0.8360834,1.0079991
1570727099,0.4740448,-9.574417,1.4927826,0.58517456,0.23747253,0.20646667,0.04095429,0.8360834,1.0079991
1570727099,1.6388245,-9.859329,2.4929657,0.88983154,-0.6882477,0.11166382,1.0733814,0.50212,1.4260186
1570727099,1.6388245,-9.859329,2.4929657,0.88983154,-0.6882477,0.11166382,1.0733814,0.50212,1.4260186
1570727099,1.1246796,-10.697891,3.4566345,1.0080872,1.791687,-0.5583954,0.8987374,-0.3827591,2.18576
1570727099,1.1246796,-10.697891,3.4566345,1.0080872,1.791687,-0.5583954,0.8987374,-0.3827591,2.18576
1570727100,-0.10594177,-12.7664795,2.13443,0.8291168,3.4897156,-0.5402832,-0.6245751,-2.2394352,-0.505805
1570727100,-0.09397888,-12.98555,2.3289642,0.880249,3.5514984,-0.536026,-0.6733962,-2.534957,-0.17601824
1570727100,1.467041,-11.795029,-11.985977,-0.018829346,0.35464478,-0.82896423,1.2029305,-1.4628611,-15.692529
1570727100,-6.1836243,-16.114777,2.7359772,-2.9451141,0.91604614,-0.67237854,-6.3535776,-5.969824,-0.8147309
1570727100,-6.1836243,-16.114777,2.7359772,-2.9451141,0.91604614,-0.67237854,-6.3535776,-5.969824,-0.8147309
1570727100,-6.8336487,-12.052414,5.6586914,-2.1642761,2.8633423,-0.026824951,-8.219382,-2.4676504,3.9978638
1570727100,0.70628357,-9.746201,-0.5506592,-1.9331207,2.5522919,0.43762207,-0.86180156,1.0993719,-0.17440385
1570727100,0.70628357,-9.746201,-0.5506592,-1.9331207,2.5522919,0.43762207,-0.86180156,1.0993719,-0.17440385
1570727100,1.4855957,-15.017624,1.0570374,-1.7285767,-1.554306,-0.41671753,1.4278038,-4.0213156,2.1369376
1570727100,1.2982483,-15.087067,1.2665253,-1.7083435,-1.5915985,-0.30273438,0.84399694,-4.530102,2.1038537
1570727100,-1.1917114,-10.25676,2.621048,-2.260147,1.4167175,0.37583923,-1.4489,-0.11678696,3.572886
1570727100,-11.072586,-15.0433655,0.44592285,-1.0617218,1.4145813,1.1971588,-11.243802,-3.5268087,3.0272026
1570727100,-11.072586,-15.0433655,0.44592285,-1.0617218,1.4145813,1.1971588,-11.243802,-3.5268087,3.0272026
1570727100,2.4259186,-12.870636,0.13348389,-2.3442993,4.52623,1.6541595,1.5777984,-3.2544537,5.2160883
1570727100,2.4259186,-12.870636,0.13348389,-2.3442993,4.52623,1.6541595,2.2859778,-3.0604973,4.432922
1570727100,3.7888184,-10.781097,-0.5015869,-1.747757,3.0092926,1.7106171,4.582187,-1.2578726,3.6813316
1570727100,3.7888184,-10.781097,-0.5015869,-1.747757,3.0092926,1.7106171,4.582187,-1.2578726,3.6813316
1570727100,1.3078308,-10.581772,-2.5474243,-1.6039429,2.1187286,1.660553,2.0992966,-1.6054039,3.0497694
1570727100,-0.41360474,-9.903015,-1.1097107,-1.7339172,2.0984802,1.5284576,0.83766055,-1.194355,4.5744343
1570727100,-0.41360474,-9.903015,-1.1097107,-1.7339172,2.0984802,1.5284576,0.83766055,-1.194355,4.5744343
1570727100,-1.1007385,-7.763199,-0.61351013,-1.7988892,2.7088776,1.215271,-0.4986772,0.47968197,5.8283463
1570727100,0.106536865,-5.7454834,-3.245346,-1.2332306,2.7845154,1.3974304,-0.06508137,1.6722646,4.2971983
1570727100,0.21966553,-5.5635223,-3.3871918,-1.1895599,2.7174072,1.4166107,0.11099941,1.9181533,3.9325771
1570727100,-0.27952576,-5.078705,-3.4350739,-0.011383057,1.7373657,1.4506989,-0.5182408,2.4051309,3.7588458
1570727100,-0.27952576,-5.078705,-3.4350739,-0.011383057,1.7373657,1.4506989,-0.5182408,2.4051309,3.7588458
1570727100,-1.577179,-9.127289,-10.325592,0.45521545,1.3176422,1.3739929,-2.304654,-1.331574,-3.2057939
1570727100,-1.577179,-9.127289,-10.325592,0.45521545,1.3176422,1.3739929,-2.304654,-1.331574,-3.2057939
1570727100,5.1140137,-13.410522,-2.636612,1.0027618,0.25024414,0.27464294,4.4482017,-6.8904943,2.8759966
1570727100,5.84964,-11.292252,-2.5234833,1.13591,-0.095962524,0.25013733,4.4482017,-6.8904943,2.8759966
1570727100,4.2981873,-6.4260406,-0.010772705,2.1894531,-3.6092072,-0.36558533,4.469681,2.4686365,5.4710484
1570727100,3.4644165,-7.363373,0.9038086,2.3801422,-3.7753906,-0.57543945,4.187486,1.7336502,6.2374988
1570727100,-0.2783203,-11.2048645,2.2206268,2.4824066,-3.175644,-1.5927734,0.3394885,-1.8885803,5.2854314
1570727100,-0.2783203,-11.2048645,2.2206268,2.4824066,-3.175644,-1.5927734,0.3394885,-1.8885803,5.2854314
1570727101,-1.9764099,-12.676102,5.2486877,2.3961182,-2.556717,-1.6588135,-0.7403926,-2.5894957,8.123768
1570727101,-1.3575134,-9.791092,-0.5596466,2.10318,-0.97480774,-0.9610596,-0.722708,0.10727787,2.7869744
1570727101,-1.7064667,-12.295425,-1.320404,1.1231232,-0.041625977,-1.3573456,-1.7464504,-1.2802868,0.16291738
1570727101,-1.5873566,-11.866257,0.93074036,0.28689575,3.1051636,-0.5349579,-2.755083,-2.1715336,2.6367154
1570727101,-1.5873566,-11.866257,0.93074036,0.28689575,3.1051636,-0.5349579,-2.755083,-2.1715336,2.6367154
1570727101,0.56443787,-10.09874,-2.5043335,0.35614014,2.9166107,-0.11204529,-0.52745616,0.39015484,-1.1593951
1570727101,0.56443787,-10.09874,-2.5043335,0.35614014,2.9166107,-0.11204529,-0.52745616,0.39015484,-1.1593951
1570727101,-2.521698,-11.646591,-0.34954834,-0.044403076,1.8438873,0.21925354,-3.1604924,-1.0778418,-0.10958308
1570727101,-3.1381989,-10.967239,1.0133514,0.81632996,-0.035232544,1.3835754,-4.1162424,-0.6007023,1.6104958
1570727101,-3.1381989,-10.967239,1.0133514,0.81632996,-0.035232544,1.3835754,-4.1162424,-0.6007023,1.6104958
1570727101,7.997238,-9.34996,2.0374603,1.6589508,-1.7428589,1.1161957,8.141544,0.99152756,1.9544264
1570727101,8.036743,-9.277527,1.727417,1.6653442,-1.5724182,1.0182037,8.141544,0.99152756,1.9544264
1570727101,-0.47705078,-11.352707,0.9457092,0.5670624,1.9450836,-0.24839783,0.7992631,-0.6647558,1.0947969
1570727101,-0.47705078,-11.352707,0.9457092,0.5670624,1.9450836,-0.24839783,0.7992631,-0.6647558,1.0947969
1570727101,-1.3114166,-10.365097,-2.2080536,0.63630676,0.5890045,-0.26011658,-0.91549915,-0.22710037,-3.2651522
1570727101,-0.588974,-11.441284,0.77931213,0.1729126,-0.033111572,-0.503006,-0.32663494,-0.81517124,-0.9745498
1570727101,-0.56144714,-12.832321,1.3856506,0.18144226,1.3655853,-0.63508606,-0.45612735,-2.2024708,0.53778327
1570727101,-2.1182709,-16.30391,-0.56204224,0.27304077,2.0100708,-0.82577515,-1.7800752,-5.125394,-1.2877614
1570727101,-2.881424,-15.708954,-4.775238,-1.0596008,2.3584137,-0.2931366,-3.6501384,-6.244707,-5.76503
1570727101,3.7804413,-10.510544,-0.42855835,-1.6699982,1.5402832,-0.29527283,2.9573867,-0.20002079,-1.0596944
1570727101,3.7804413,-10.510544,-0.42855835,-1.6699982,1.5402832,-0.29527283,2.9573867,-0.20002079,-1.0596944
1570727101,4.1611176,-12.083542,-1.5251007,-1.9693298,1.3496094,-0.90034485,3.7444782,-0.94694996,-0.83788896
1570727101,1.0684052,-15.092453,-2.1865082,-2.400772,-0.17797852,-0.46678162,-0.032999754,-4.9304504,-0.68454766
1570727101,0.5782013,-11.826752,1.4628601,-2.2175446,-2.523697,-0.015106201,-0.31724638,-2.107401,2.9110446
1570727101,0.66319275,-11.652573,1.9955597,-2.1898499,-2.5620422,-0.014038086,-0.32491654,-1.6420059,3.7076855
1570727101,-2.8862152,-11.405975,4.9164886,-1.5261841,-1.6629639,0.17237854,-2.3178306,-1.1008062,7.5838466
1570727101,-1.672348,-10.8654785,-1.5041504,-2.0300598,-0.50076294,1.6190033,-3.0348132,-2.021944,0.34502292
1570727101,0.70928955,-10.165787,2.3074188,-2.4977112,2.0952911,1.470932,0.97641593,-0.72386646,6.6398325
1570727101,0.70928955,-10.165787,2.3074188,-2.4977112,2.0952911,1.470932,0.97641593,-0.72386646,6.6398325
1570727101,1.0797882,-8.287537,0.6578064,-2.1397705,1.1642456,1.1769257,1.7083247,0.558794,5.644781
1570727101,1.1821442,-8.139694,1.2114716,-2.084381,1.1631775,1.1939697,1.6271889,0.5022116,6.40345
1570727101,0.77871704,-4.261673,0.90919495,-1.4473572,2.143219,1.0341797,1.3821775,3.134357,7.9844375
1570727101,0.77871704,-4.261673,0.90919495,-1.4473572,2.143219,1.0341797,1.3821775,3.134357,7.9844375
1570727102,2.9478607,-2.4384918,-0.60572815,0.8419037,0.9053955,0.7391052,2.940889,5.2335334,6.5060043
1570727102,2.9478607,-2.4384918,-0.60572815,0.8419037,0.9053955,0.7391052,2.940889,5.2335334,6.5060043
1570727102,0.2861023,-18.851349,-18.200714,1.5801239,-1.5457916,0.3460083,2.4491007,-5.853673,-13.540292
1570727102,0.2861023,-18.851349,-18.200714,1.5801239,-1.5457916,0.3460083,2.4491007,-5.853673,-13.540292
1570727102,-0.19392395,-11.762711,-1.5945435,1.9710846,-2.1774902,-0.86305237,1.6593308,-4.414898,3.4038458
1570727102,-0.19392395,-10.951675,-1.8195953,1.9710846,-2.1774902,-0.86305237,1.6593308,-4.414898,3.4038458
1570727102,-0.008972168,-7.07666,-1.0558472,1.7931824,-2.0432587,-0.77145386,0.7526312,2.1390715,2.5101936
1570727102,0.7445984,-10.895416,0.043701172,2.4642944,-1.4019775,-1.4670715,1.362352,-0.14521885,3.4663877
1570727102,1.1833344,-11.653778,-0.19992065,2.4014435,-1.4477844,-1.5874329,1.4715285,-1.252409,2.412313
1570727102,-1.0229187,-12.662933,1.7729034,0.3454895,1.0822296,-1.0015411,-1.4544348,-2.883377,3.371574
1570727102,-1.0229187,-12.662933,1.7729034,0.3454895,1.0822296,-1.0015411,-1.4544348,-2.883377,3.371574
1570727102,-2.1942902,-10.867874,-0.60095215,0.624588,2.7696075,-0.8204498,-3.1889625,-0.62891865,0.74811566
1570727102,-0.72784424,-10.103531,-1.4868011,0.55960083,2.887848,-0.4657135,-1.8288264,0.34417534,-0.67174715
1570727102,-2.2918549,-11.164764,-1.201294,0.25813293,2.6375122,-0.33468628,-2.9852734,-0.47446823,-0.5078895
1570727102,-4.9386444,-12.469009,0.2460022,0.6043396,1.9631958,0.26078796,-5.943643,-2.1290588,1.1883519
1570727102,-4.9937134,-10.155609,-2.339737,1.2413788,-1.5979767,1.5870514,-6.2628326,-0.14997482,-2.5115318
1570727102,1.0666199,-8.710098,1.0450745,2.630478,-3.0222473,2.1537628,-0.54739213,1.3500042,1.1306169
1570727102,12.001541,-8.059479,-2.2667084,1.1018219,-0.8384552,0.84669495,11.760982,2.1810122,-3.4020584
1570727102,1.5502472,-10.372284,-0.11911011,0.51486206,0.02015686,-0.79808044,3.8954313,0.4705267,-1.8803724
1570727102,-3.032257,-10.266342,1.1127014,0.8781128,-0.117263794,-0.5722351,-3.4275281,-0.3493986,1.1448807
1570727102,-1.9063873,-11.080368,2.9125519,0.42218018,-0.26000977,-0.55093384,-2.53122,-0.59297943,0.7293289
1570727102,-1.9063873,-11.080368,2.9125519,0.42218018,-0.26000977,-0.55093384,-2.53122,-0.59297943,0.7293289
1570727102,-3.1178436,-14.088074,5.147537,0.70874023,0.6017914,-0.42416382,-2.7085934,-3.1024637,2.8880875
1570727102,2.8215637,-16.425415,-0.038909912,-0.20631409,0.92456055,0.020050049,1.6864436,-6.5065117,-3.7961733
1570727102,2.8215637,-16.425415,-0.038909912,-0.20631409,0.92456055,0.020050049,1.6864436,-6.5065117,-3.7961733
1570727102,2.668335,-14.096466,-0.878067,-0.6505432,1.6095276,0.050933838,1.9753639,-4.334054,-3.0580535
1570727102,2.2475586,-12.021286,-2.82576,-0.9147186,1.1131134,-0.0896759,1.9151582,-2.0681152,-4.3563933
1570727102,0.20709229,-15.009247,-1.8279724,-2.320877,0.74879456,-0.25053406,-0.17710415,-4.3634996,-2.4496965
1570727102,0.20709229,-15.009247,-1.8279724,-2.320877,0.74879456,-0.25053406,-0.17710415,-4.3634996,-2.4496965
1570727102,0.5632324,-13.795395,-3.3303375,-2.7831879,-0.02458191,-0.08328247,0.0727188,-3.4034147,-3.320771
1570727102,1.0791931,-11.795029,1.2240295,-2.818344,-1.012085,0.06478882,0.5225624,-1.4605618,0.6511295
1570727102,1.5789795,-10.602722,2.5522156,-1.9885101,-1.1409912,-0.04386902,1.481011,-0.20764923,4.5385313
1570727102,1.3341675,-10.690704,3.0508118,-2.0023499,-1.0685425,-0.04812622,1.481011,-0.20764923,4.5385313
1570727102,-8.629898,-15.315704,-9.798264,-1.2801056,-0.06826782,1.1790466,-8.664311,-4.6392174,-5.5009394
1570727103,0.15742493,-12.07576,1.0384827,-2.73526,0.87342834,1.3995667,1.2515173,-1.8611488,4.2788153
1570727103,0.15742493,-12.07576,1.0384827,-2.73526,0.87342834,1.3995667,1.2515173,-1.8611488,4.2788153
1570727103,1.5789795,-8.00322,0.64105225,-2.1024933,1.0619812,1.8981018,3.1693048,0.88952446,5.2583976
1570727103,1.5789795,-8.00322,0.64105225,-2.1024933,1.0619812,1.8981018,3.1693048,0.88952446,5.2583976
1570727103,0.75357056,-4.5118713,1.3772583,-1.5261841,2.157074,1.0948944,2.3880444,3.474762,8.16283
1570727103,0.75357056,-4.5118713,1.3772583,-1.5261841,2.157074,1.0948944,2.3880444,3.474762,8.16283
1570727103,3.5595856,-1.2545624,-1.2988586,0.6469574,0.84254456,0.22244263,3.985222,6.252736,5.73762
1570727103,3.5595856,-1.2545624,-1.2988586,0.6469574,0.84254456,0.22244263,3.985222,6.252736,5.73762
1570727103,4.9194794,-9.660599,-0.9008179,2.6038513,-1.3401947,-0.2569275,6.0428963,-1.0772228,3.9538498
1570727103,4.9194794,-9.660599,-0.9008179,2.6038513,-1.3401947,-0.2569275,6.0428963,-1.0772228,3.9538498
1570727103,1.3090363,-12.834717,-3.1016846,3.5285034,-3.3332977,-1.1442871,3.0111997,-1.9528608,5.2854886
1570727103,0.08200073,-9.736023,-0.58418274,1.7835999,-2.0443268,-1.252945,1.4409161,-0.5578089,2.3855436
1570727103,0.04309082,-9.393051,-0.47166443,1.8027649,-2.0443268,-1.2625275,1.4409161,-0.5578089,2.3855436
1570727103,1.3425446,-9.719864,3.0460205,2.0701447,-1.9559174,-2.0529633,1.4722524,1.0327921,4.250516
1570727103,1.4820099,-12.048218,3.4111328,2.1074371,-1.6107635,-2.2692108,1.928167,-0.5452957,5.1310515
1570727103,-3.8612518,-14.887146,1.8812408,0.80674744,2.0366974,-1.4649353,-3.902596,-4.692937,3.289822
1570727103,-3.8612518,-14.887146,1.8812408,0.80674744,2.0366974,-1.4649353,-3.902596,-4.692937,3.289822
1570727103,-2.9616241,-10.087967,-1.5197144,1.1156769,0.71684265,-0.23348999,-4.217134,0.22458458,-1.8541914
1570727103,-2.9616241,-10.087967,-1.5197144,1.1156769,0.71684265,-0.23348999,-4.217134,0.22458458,-1.8541914
1570727103,-1.8441315,-10.162186,-0.31604004,0.7119446,0.37701416,0.5686493,-2.7377295,0.20981503,-0.9832577
1570727103,-2.059021,-10.13884,-0.09516907,0.73217773,0.31843567,0.6155243,-2.7377295,0.20981503,-0.9832577
1570727103,-0.5793915,-9.312851,-0.5165558,1.9316711,-3.1575317,1.930069,-2.961542,0.8002281,-1.780383
1570727103,0.4016266,-9.192535,-0.74998474,1.9487152,-2.9189148,1.9939728,-1.2783111,1.0056095,-1.742383
1570727103,0.7445984,-10.561417,3.6362,0.41152954,-0.029907227,-0.42630005,1.6630392,-0.07786846,1.4437197
1570727103,0.7445984,-10.561417,3.6362,0.41152954,-0.029907227,-0.42630005,1.6630392,-0.07786846,1.4437197
1570727103,-1.8046265,-12.3433075,-0.023345947,0.23043823,-0.2930298,-0.56585693,-1.909505,-1.3765984,-3.1373577
1570727103,-1.8046265,-12.3433075,-0.023345947,0.23043823,-0.2930298,-0.56585693,-2.0410242,-1.8803568,-2.5464513
1570727103,-2.7126312,-15.506653,-0.7050934,0.13989258,0.3280182,-0.2846222,-3.0499172,-4.4341936,-2.4889464
1570727103,-2.7126312,-15.901093,-0.81103516,0.10687256,0.3333435,-0.2569275,-3.155255,-5.0774374,-2.808538
1570727103,2.197876,-13.257294,-1.1366425,-0.9104614,0.59007263,0.44934082,1.131163,-3.5105762,-3.4414883
1570727103,2.197876,-13.257294,-1.1366425,-0.9104614,0.59007263,0.44934082,1.131163,-3.5105762,-3.4414883
1570727103,3.4452515,-12.2960205,-2.5995026,-2.2164764,0.62416077,-0.32936096,3.4848597,-1.5775061,-3.5302892
1570727104,0.7236481,-15.121185,-3.5086975,-2.8737488,0.0627594,-0.4156494,0.52198315,-4.0831823,-3.8261921
1570727104,0.7236481,-15.121185,-3.5086975,-2.8737488,0.0627594,-0.4156494,0.52198315,-4.0831823,-3.8261921
1570727104,-0.08439636,-14.650726,1.2473755,-2.6969147,-1.7087708,0.0061950684,-0.3130544,-4.414093,1.2712919
1570727104,-0.8708954,-10.986389,2.4402924,-1.8233948,-0.70848083,0.4355011,-0.5395077,-0.41740036,5.289072
1570727104,-0.8708954,-10.986389,2.4402924,-1.8233948,-0.70848083,0.4355011,-0.5395077,-0.41740036,5.0677404
1570727104,0.26934814,-9.613312,1.7890625,-2.878006,0.3280182,1.3654785,0.7109567,0.0909996,4.794587
1570727104,0.26934814,-9.613312,1.7890625,-2.878006,0.3280182,1.3654785,0.7109567,0.0909996,4.794587
1570727104,-0.5566559,-9.297287,1.2467804,-1.8329773,0.5591736,1.7297974,1.0178355,-0.09104633,6.058393
1570727104,-0.5566559,-9.297287,1.2467804,-1.8329773,0.5591736,1.7297974,1.0178355,-0.09104633,6.058393
1570727104,1.059433,-4.162323,2.1936798,-1.3078003,1.5711823,1.1875763,2.9621716,3.9976025,7.4876785
1570727104,1.0576324,-3.988144,2.2499542,-1.286499,1.6478729,1.1300507,2.809747,4.268409,7.9691973
1570727104,1.7262268,-2.636612,0.5596466,-0.49394226,1.3634491,0.40248108,3.2992282,5.707361,6.973004
1570727104,3.5033112,-2.2481537,-4.9823303,1.4011688,-0.26000977,-0.20365906,4.7884326,6.209278,2.111104
1570727104,3.5033112,-2.2481537,-4.9823303,1.4011688,-0.26000977,-0.20365906,4.7884326,6.209278,2.111104
1570727104,3.1495667,-13.3159485,-2.2966309,2.0807953,-1.2762756,-0.18235779,3.997673,-4.244276,1.6806741
1570727104,3.5290527,-12.954422,-0.2639618,2.412094,-1.2389832,-0.46784973,4.979535,-4.376812,3.8038473
1570727104,0.62368774,-12.153564,-1.5346832,1.4224701,-2.1220856,-1.1634674,1.9590878,-3.185195,1.739188
1570727104,0.62368774,-12.153564,-1.5346832,1.4224701,-2.1220856,-1.1634674,1.9590878,-3.185195,1.739188
1570727104,-1.6322479,-10.263351,1.383255,2.0669556,-1.6384583,-1.4148712,-0.07470214,0.33756638,3.3444104
1570727104,-1.6322479,-10.263351,1.383255,2.0669556,-1.6384583,-1.4148712,-0.07470214,0.33756638,3.3444104
1570727104,0.26156616,-13.196243,0.5165558,1.834732,-2.0411377,-1.7759857,0.6554328,-2.1196012,1.6015148
1570727104,0.26156616,-13.196243,0.5165558,1.834732,-2.0411377,-1.7759857,0.6554328,-2.1196012,1.6015148
1570727104,-2.0650024,-12.099701,1.2342072,0.45947266,1.9962158,-1.2167206,-2.4517412,-1.8995485,2.0828753
1570727104,-2.0650024,-12.099701,1.2342072,0.45947266,1.9962158,-1.2167206,-2.4517412,-1.8995485,2.0828753
1570727104,-2.217636,-10.673355,-0.826004,0.98464966,2.1773071,-0.5903473,-3.340111,-0.56412506,-0.68479025
1570727104,-2.5073242,-10.816406,-1.7399902,0.7907715,1.8896942,-0.489151,-3.3014102,-0.18191528,-1.6458328
1570727104,-2.54982,-10.781097,-2.988556,0.68955994,0.7541199,0.24481201,-3.7394137,-0.32437515,-3.104086
1570727104,-2.7826538,-9.813232,-0.9169769,1.071991,-1.2549744,1.1002197,-3.6634815,0.52712154,-0.69398797
1570727104,3.007721,-7.8380127,-1.4796143,1.438446,-3.0701752,1.5913086,1.8156458,2.365244,-2.5556073
1570727104,3.007721,-7.8380127,-1.4796143,1.438446,-3.0701752,1.5913086,1.8156458,2.365244,-2.5556073
1570727104,6.830658,-7.873337,1.2240295,0.44561768,-1.1569672,-0.21858215,7.67958,2.677722,-0.7847221
1570727104,1.6675568,-9.592377,3.9683838,0.2666626,-0.095962524,-0.7107239,3.495444,1.3544693,1.0374498
1570727104,-1.403595,-13.049591,-0.6949158,0.4562683,0.32162476,-0.631897,-1.8386074,-2.4521837,-3.3162363
1570727104,-1.403595,-13.049591,-0.6949158,0.4562683,0.32162476,-0.631897,-1.8386074,-2.4521837,-3.3162363
1570727104,-1.9698334,-14.247299,0.10952759,0.4285736,0.47502136,-0.42843628,-2.4033124,-3.8807917,-1.6792755
1570727105,-2.5115204,-17.14009,-1.4311371,0.112197876,0.403656,-0.32722473,-3.0853143,-6.2972116,-3.3689487
1570727105,-1.296463,-15.93042,-1.240799,-0.6995392,0.2822113,0.24906921,-1.9828769,-6.0971127,-3.9113917
1570727105,2.000351,-11.910553,1.5598297,-0.8955536,0.9607849,0.27571106,1.3491142,-1.8970108,-0.5183735
1570727105,2.0943298,-12.362457,-2.510315,-1.8383026,1.346405,-0.40818787,1.8083751,-1.5942698,-3.6508894
1570727105,2.0943298,-12.362457,-2.510315,-1.8383026,1.346405,-0.40818787,1.8083751,-1.5942698,-3.6508894
1570727105,2.1529846,-14.222748,-2.229599,-2.848175,0.4345398,-0.33468628,1.3417082,-3.595584,-3.1869116
1570727105,2.1302338,-14.325104,-0.85054016,-2.7501678,-0.31860352,-0.29527283,1.685604,-3.5783663,-1.2566705
1570727105,-1.3700867,-12.419327,-0.32980347,-2.037506,-1.952713,0.85627747,-1.1521642,-1.638629,1.917367
1570727105,-1.3700867,-12.419327,-0.32980347,-2.037506,-1.952713,0.85627747,-1.1521642,-1.638629,1.917367
1570727105,-4.1563416,-13.283035,4.7878113,-2.6297913,-0.41766357,1.2195282,-3.2100077,-2.4733438,6.8630533
1570727105,-0.67097473,-9.2721405,-0.5051727,-2.765091,0.8361511,1.4879761,-0.15266263,0.21832466,3.5254784
1570727105,-0.67097473,-9.2721405,-0.5051727,-2.765091,0.8361511,1.4879761,-0.15266263,0.21832466,3.5254784
1570727105,0.6141052,-8.107361,0.41419983,-2.38266,1.3421478,1.2802582,1.8237834,1.0275621,5.5382204
1570727105,-0.19154358,-7.3388214,0.21487427,-1.7285767,1.5296326,1.0650635,1.3753241,1.4579268,5.4196615
1570727105,0.2813263,-6.1686554,0.80744934,-1.3578644,1.629776,0.83177185,1.7109658,2.140092,6.459298
1570727105,0.8966217,-4.704605,-0.22026062,-0.904068,1.8204498,0.54522705,2.0231771,3.552618,6.459119
1570727105,2.0350647,-2.778473,-1.7621307,0.76945496,0.94906616,0.4152527,2.6877139,5.106119,4.7461057
1570727105,2.0350647,-2.778473,-1.7621307,0.76945496,0.94906616,0.4152527,2.6877139,5.106119,4.7461057
1570727105,4.040222,-2.2625275,-1.0881653,2.0136871,0.1053772,0.17344666,4.4113727,6.253829,5.83825
1570727105,4.459793,-17.368134,-0.28012085,2.3098297,-1.9271545,-0.7575989,4.963222,-7.9566793,5.077897
1570727105,4.459793,-17.368134,-0.28012085,2.3098297,-1.9271545,-0.7575989,4.963222,-7.9566793,5.077897
1570727105,-0.6404419,-6.1165924,-1.2479706,1.9273987,-2.5290222,-0.96958923,0.28799295,3.2576742,1.9022436
1570727105,-0.6404419,-6.1165924,-1.2479706,1.9273987,-2.5290222,-0.96958923,0.28799295,3.2576742,1.9022436
1570727105,2.6557617,-12.222992,0.66200256,2.358841,-2.2147675,-1.937912,2.3540692,-1.3863983,2.35898
1570727105,2.6557617,-12.222992,0.66200256,2.358841,-2.2147675,-1.937912,2.3540692,-1.3863983,2.35898
1570727105,-1.3904266,-13.526642,2.5570068,0.35507202,1.4816895,-1.4468231,-1.4379597,-3.3240767,3.7187467
1570727105,-1.3904266,-13.526642,2.5570068,0.35507202,1.4816895,-1.4468231,-1.4379597,-3.3240767,3.7187467
1570727105,-3.2602997,-12.673111,0.16400146,1.0741272,3.1051636,-1.1826324,-4.302794,-2.7855911,1.8867218
1570727105,-0.7685394,-10.374069,-1.7298126,0.85787964,3.3267365,-0.72032166,-2.2855825,-0.12933159,-1.0417616
1570727105,-0.3429718,-9.985016,-1.6573792,0.74282837,2.108078,-0.30059814,-1.85993,0.37697887,-1.8474752
1570727105,-2.252945,-9.808441,-1.7286072,0.7524109,0.45690918,0.24694824,-3.5029736,0.7008457,-2.0918174
1570727105,-4.082718,-10.934921,0.36392212,0.86001587,-0.80648804,0.89250183,-5.303237,-0.59554195,-0.2969296
1570727105,-3.7546997,-10.602722,-0.07901001,0.9707947,-0.91407776,1.0149994,-5.1683326,-0.46980476,-0.33772057
1570727106,3.759491,-9.500793,-2.0524292,1.2967682,-1.9324799,1.8192749,3.0581846,0.5202217,-3.097714
1570727106,4.8117523,-9.500793,-2.0524292,1.2967682,-1.9324799,1.8192749,3.0581846,0.5202217,-3.097714
1570727106,9.317627,-9.306259,-0.79248047,0.4797058,-1.2783966,0.7316437,9.114668,0.8542576,-3.1179008
1570727106,-1.7543488,-9.807846,1.8818359,0.75561523,0.7317505,-0.28781128,-1.7451799,0.23830509,1.7913452
1570727106,-0.96606445,-11.355698,1.4029999,0.48716736,0.033996582,-0.47424316,-1.3654293,-0.8680973,-0.867435
1570727106,-0.82839966,-11.460449,1.5131378,0.47225952,0.026550293,-0.47743225,-1.3654293,-0.8680973,-0.867435
1570727106,0.09516907,-12.879608,2.407364,0.54148865,0.2864685,-0.45932007,-0.08213103,-2.3931904,0.077248335
1570727106,-2.285263,-15.325882,-0.549469,0.5628052,0.61990356,-0.28355408,-2.769549,-4.879224,-2.7395196
1570727106,1.6962891,-15.489288,-0.5117645,-0.3000641,0.6582489,-0.3314972,1.2526315,-5.2718525,-3.3540053
1570727106,1.577774,-15.43602,-0.18734741,-0.39486694,0.7562561,-0.3442688,1.2526315,-5.2718525,-3.3540053
1570727106,1.1390381,-12.388199,0.7487793,-0.6260376,1.728836,-0.18022156,0.5607164,-2.3917542,-1.068819
1570727106,1.2623444,-11.574173,-1.0432739,-1.0191193,1.585022,-0.3442688,0.7090813,-1.1111755,-2.8235447
1570727106,1.3479309,-12.031464,-1.2132568,-1.4015503,1.3038025,-0.46359253,0.9029227,-1.4709349,-2.9380908
1570727106,0.17178345,-11.456253,-0.65960693,-1.8297882,0.6060486,-0.5168457,-0.15854132,-1.1467037,-1.9607062
1570727106,-2.1703491,-10.110718,0.18495178,-1.7871704,0.19911194,-0.3836975,-2.7727263,0.56206703,0.008024484
1570727106,-2.1703491,-10.110718,0.18495178,-1.7871704,0.19911194,-0.3836975,-2.7727263,0.56206703,0.008024484
1570727106,-1.2701263,-8.449142,3.0921173,-1.5283203,0.14160156,-0.37835693,-2.0783668,2.0054007,3.068563
1570727106,0.5997467,-8.328232,-0.6589966,-1.3930206,0.49525452,-0.17489624,-0.86890125,2.0548687,0.3605007
1570727106,0.9109955,-8.271973,-0.063446045,-1.4558716,0.32055664,-0.15892029,-0.3329364,2.1969843,0.5385933
1570727106,-1.6017151,-9.137466,1.0498505,-1.2044678,0.11709595,0.093551636,-2.1404834,1.4172211,2.628222
1570727106,-1.1180878,-10.560226,-1.3257904,-0.3607788,0.1330719,0.8765106,-2.8652804,-0.5485554,3.3374145
1570727106,-1.1180878,-10.560226,-1.3257904,-0.3607788,0.1330719,0.8765106,-2.8652804,-0.5485554,3.3374145
1570727106,0.10115051,-10.687119,1.2138672,-0.9615936,0.06915283,0.9393616,-0.8916181,-0.52103424,2.978615
1570727106,1.0636292,-9.72525,1.8471222,-0.8795624,0.6305542,0.8573456,0.5348159,0.14689636,4.296653
1570727106,2.0985107,-7.581833,1.4329224,-0.12641907,1.1855469,0.51646423,1.7910098,2.242855,4.047294
1570727106,2.0985107,-7.581833,1.4329224,-0.12641907,1.1855469,0.51646423,1.7910098,2.242855,4.047294
1570727106,2.6432037,-6.843231,0.9109955,0.30393982,1.4167175,0.35986328,2.446549,3.1753082,3.5990648
1570727106,2.4761963,-5.9549713,-0.7398071,1.2850494,1.2015381,0.14680481,2.3137448,4.199235,1.6529717
1570727106,1.5879517,-10.463852,-5.135559,1.7164764,0.92456055,-0.0854187,0.978724,1.2007828,-2.814444
1570727106,1.6789398,-11.170151,-5.4851227,1.6887817,0.9831543,-0.13868713,1.208727,0.11748123,-3.51092
1570727106,-3.7660828,-16.989853,-10.658386,0.40940857,2.3360443,-0.3080597,-4.3507667,-8.174233,-8.447813
1570727106,0.46746826,-10.090958,-4.0462036,-0.21697998,0.124557495,-0.22177124,-0.90758574,-0.042702675,-3.6733031
1570727107,5.0966644,-17.323242,2.7485504,-0.21803284,-0.9311218,-1.0622711,5.380022,-7.4761047,3.0878413
1570727107,5.0966644,-17.323242,2.7485504,-0.21165466,-0.8522949,-1.0090027,4.686654,-7.469282,3.6674051
1570727107,3.0256653,-11.273102,2.0919342,0.15267944,-0.28877258,-0.0385437,1.900863,-2.0575066,3.633467
1570727107,1.2701263,-5.822098,0.47045898,0.28370667,-0.11833191,-0.20153809,0.7971885,4.4015503,1.8162663
1570727107,1.1635895,-10.439911,1.5843658,-0.83695984,-0.28451538,-0.47210693,0.018635869,1.044631,2.263536
1570727107,1.1635895,-10.439911,1.5843658,-0.83695984,-0.28451538,-0.47210693,0.018635869,1.044631,2.263536
1570727107,0.14724731,-12.15416,5.2283325,-0.17755127,1.2952728,0.16065979,-1.2914406,-2.1999702,6.8589187
1570727107,-0.2926941,-11.0863495,2.695877,0.847229,2.2007446,0.13722229,-1.4258325,-0.7318802,4.452872
1570727107,-1.2024841,-10.929535,0.8523407,1.132721,2.2518768,0.17131042,-2.5007293,-0.6644354,1.4495229
1570727107,-1.2024841,-10.929535,0.8523407,1.132721,2.2518768,0.17131042,-2.5007293,-0.6644354,1.4495229
1570727107,-0.66259766,-11.181519,0.5686188,1.3596191,2.462799,0.54415894,-2.0903459,-0.71234703,0.73036563
1570727107,0.39743042,-10.81221,-1.5029602,1.3649445,1.6265717,0.6869049,-0.63813585,-0.54639626,-1.6919391
1570727107,0.9582825,-10.365692,-1.7687225,1.2115479,0.17141724,0.7550812,0.121424675,-0.04440117,-2.7296898
1570727107,1.8052216,-10.052658,-0.54408264,1.0954285,-0.6328583,0.6592102,1.1186154,0.24874306,-1.9321308
1570727107,1.7525482,-9.500793,0.030532837,0.7971649,-0.5188751,0.27357483,1.3772,0.89066505,-1.6841108
1570727107,1.2354126,-10.107117,0.7080841,0.27198792,0.21936035,0.021102905,0.8782196,0.28453732,-0.9368627
1570727107,0.85772705,-10.453079,0.98101807,-0.28302002,0.9096527,-0.15466309,0.54285204,-0.028245926,-0.79493
1570727107,0.14724731,-10.743973,1.8674774,-0.34480286,1.2771606,-0.21751404,-0.2419326,-0.42209816,0.24419808
1570727107,0.14065552,-10.648804,1.9788055,-0.06463623,1.0534668,-0.15252686,-0.27353922,-0.32930946,0.45981574
1570727107,-0.9528961,-10.452484,1.2838898,0.41792297,0.42814636,-0.03215027,-1.3207824,-0.259737,-0.16278267
1570727107,-1.328186,-11.356293,2.7365723,0.706604,0.9330902,-0.09074402,-1.7793845,-0.8037882,0.74436665
1570727107,-1.328186,-11.356293,2.7365723,0.706604,0.9330902,-0.09074402,-1.7793845,-0.8037882,0.74436665
1570727107,0.34596252,-11.059418,0.4698639,1.06987,2.4031525,-0.015106201,0.049983203,-0.9485483,-1.5606852
1570727107,-0.44711304,-11.697464,-5.759857,0.46054077,1.6212463,-0.7884979,-0.15410413,-1.0676641,-7.8608284
1570727107,-4.898529,-15.898697,-1.7112579,-2.2452393,2.0739899,-0.86305237,-4.8884907,-5.582137,-5.5138297
1570727107,-4.977539,-15.935211,-1.209671,-2.4071503,2.2124634,-0.8438873,-4.8884907,-5.582137,-5.5138297
1570727107,-3.0609894,-12.448059,2.6318207,-3.1358032,4.5027924,-0.14613342,-4.1016893,-2.8935099,2.4354467
1570727107,0.0143585205,-9.72345,1.1593933,-2.76828,3.5664215,-0.20365906,-0.67743826,0.6091881,1.2854009
1570727107,3.075348,-15.508438,2.0817566,-1.5325775,-0.83631897,-1.5512238,1.8320892,-4.3672724,4.119055
1570727107,3.075348,-15.508438,2.0817566,-1.5325775,-0.83631897,-1.5512238,1.8320892,-4.3672724,4.119055
1570727107,-3.0334473,-12.115265,4.9302673,-1.6859741,0.532547,0.64642334,-3.3927574,-2.2568445,6.9246883
1570727107,-3.0334473,-12.115265,4.9302673,-1.6859741,0.532547,0.64642334,-3.3927574,-2.2568445,6.9246883
1570727107,-2.8431091,-11.774078,4.7064056,-1.1469421,2.9240723,2.0483093,-3.1641035,-1.3841219,7.435982
1570727107,-2.581543,-11.769897,4.2485046,-1.333374,3.2127533,1.9481659,-3.1641035,-1.3841219,7.435982
1570727108,2.1134796,-11.127655,3.3393097,-2.3592224,5.3677826,1.7574921,1.8865843,-1.5034618,7.827675
1570727108,2.1134796,-11.127655,3.3393097,-2.3592224,5.3677826,1.7574921,1.8865843,-1.5034618,7.827675
1570727108,1.3407593,-10.894821,-2.9831696,-1.8819885,2.7589417,1.6008911,1.6729121,-1.4781294,1.6385922
1570727108,1.3407593,-10.894821,-2.9831696,-1.8819885,2.7589417,1.6008911,1.6729121,-1.4781294,1.6385922
1570727108,0.2741394,-11.558609,-1.4006042,-1.7690582,2.6886444,1.611557,0.451446,-2.6958055,4.4547873
1570727108,0.2741394,-11.558609,-1.4006042,-1.7690582,2.6886444,1.611557,0.451446,-2.6958055,4.4547873
1570727108,-0.6380615,-10.355515,1.0714111,-1.9650726,3.014618,1.5881195,-0.4053158,-2.1277828,7.1632495
1570727108,1.5442657,-7.1778107,-1.0779877,-1.6859741,3.4993134,1.361206,1.0448648,0.6290293,6.3486385
1570727108,1.4772186,-5.0828857,-2.7491455,-0.9381561,2.8196716,1.3004913,0.78996474,2.098271,4.7080994
1570727108,1.4772186,-5.0828857,-2.7491455,-0.9381561,2.8196716,1.3004913,0.78996474,2.098271,4.7080994
1570727108,0.37768555,-5.1128235,-3.3063965,0.23469543,0.94374084,1.5188751,-0.45476687,2.4592638,3.8757567
1570727108,0.37768555,-5.1128235,-3.3063965,0.23469543,0.94374084,1.5188751,-0.45476687,2.4592638,3.8757567
1570727108,-2.0410614,-10.735001,-6.218338,0.80249023,0.59539795,1.5764008,-3.2893574,-2.780034,-2.465014
1570727108,-2.0410614,-10.735001,-6.218338,0.80249023,0.59539795,1.5764008,-3.2893574,-2.780034,-2.465014
1570727108,7.135315,-11.40657,-1.6304474,1.5737305,-1.1260681,0.014724731,6.7743382,-3.5925388,5.42614
1570727108,7.135315,-11.40657,-1.6304474,1.5737305,-1.1260681,0.014724731,6.7743382,-3.5925388,5.42614
1570727108,1.95607,-8.0894165,-4.15094,2.3354034,-1.8621674,0.37265015,2.4462087,0.57745457,1.1829801
1570727108,1.0348969,-10.280106,0.7870941,2.6294098,-3.0541992,-0.62338257,2.1114745,-0.646163,4.8392124
1570727108,0.9433136,-11.963821,0.8966217,2.5441895,-1.8834686,-1.3136597,1.6017284,-1.7881308,4.2298565
1570727108,0.9433136,-11.963821,0.8966217,2.5441895,-1.8834686,-1.3136597,1.6017284,-1.7881308,4.2298565
1570727108,0.16879272,-10.19751,1.8118134,1.388382,0.29818726,-1.4777222,0.43969575,0.24789524,3.9143255
1570727108,0.16879272,-10.19751,1.8118134,1.388382,0.29818726,-1.4777222,0.43969575,0.24789524,3.9143255
1570727108,-2.7994232,-12.666519,-1.7723083,-0.09765625,2.7195282,-0.838562,-4.543203,-3.5293589,-0.93730676
1570727108,-2.5755615,-12.278061,-1.4425049,-0.14027405,2.8431091,-0.7821045,-4.05322,-2.5800657,-0.3708403
1570727108,-0.5961609,-11.828552,0.73083496,-0.22123718,3.8572388,-0.28248596,-2.2532442,-1.4353304,2.2658992
1570727108,-2.5306702,-11.397598,-1.4790192,0.68318176,2.062271,0.8765106,-2.939405,-0.7555876,0.34778035
1570727108,-2.7252045,-11.487381,-1.7519531,0.7353668,1.7821045,0.9319153,-3.680026,-1.0085201,-0.2456137
1570727108,0.9744415,-9.3589325,0.19992065,1.7037048,-1.3955841,1.3356476,-0.18214339,0.8322153,0.4587721
1570727108,8.050507,-8.291718,-0.023345947,0.91007996,-0.060806274,1.041626,7.4482555,1.7834387,-0.46255207
1570727108,8.050507,-8.291718,-0.023345947,0.91007996,-0.060806274,1.041626,7.4482555,1.7834387,-0.46255207
1570727108,3.289032,-9.4774475,1.5077515,0.7215271,0.69873047,0.26078796,4.616806,1.1593914,0.8324002
1570727108,0.9289551,-9.070435,-0.7852936,0.5990143,0.84254456,0.06265259,0.912987,1.1215649,-0.3091806
1570727108,1.0959473,-9.315842,0.30226135,0.4232483,-0.06399536,-0.30059814,0.81329626,1.090374,-0.70529896
1570727108,0.87568665,-11.150391,2.5043335,0.18569946,0.25558472,-0.5914154,0.6929742,-0.47367477,1.6175591
1570727109,-0.9642639,-16.420639,-0.7775116,0.51060486,0.45690918,-0.2707672,-2.3616211,-5.781698,-1.068355
1570727109,-0.9642639,-16.420639,-0.7775116,0.51060486,0.45690918,-0.2707672,-2.3616211,-5.781698,-1.068355
1570727109,2.328354,-14.431046,-1.5352783,-1.0489502,2.0537415,-0.27183533,1.8367648,-4.7069817,-1.5903656
1570727109,2.328354,-14.431046,-1.5352783,-1.0478821,2.0526733,-0.26651,1.8367648,-4.7069817,-1.5903656
1570727109,2.5755615,-12.658737,-6.120178,-1.780777,0.19273376,-0.6116638,1.5725706,-1.8041477,-5.797809
1570727109,2.5983124,-12.833527,-6.4026947,-1.8542786,0.09365845,-0.6393585,1.7135524,-2.0127,-5.9276013
1570727109,-0.26037598,-13.806168,2.616867,-2.6042328,-1.138855,-0.39434814,-1.4416696,-3.9058418,1.1816792
1570727109,-0.26037598,-13.806168,2.616867,-2.6042328,-1.138855,-0.39434814,-1.4416696,-3.9058418,1.1816792
1570727109,-2.8562775,-10.84993,-0.47465515,-1.6976929,-2.0262146,0.7646637,-4.489585,-0.6403494,1.6767914
1570727109,-2.8562775,-10.84993,-0.47465515,-1.6976929,-2.0262146,0.7646637,-4.489585,-0.6403494,1.6767914
1570727109,-1.1815338,-13.017273,4.0964813,-2.1248627,1.1344147,1.311142,-1.040043,-2.339429,7.245657
1570727109,-1.1815338,-13.017273,4.0964813,-2.1248627,1.1344147,1.311142,-1.040043,-2.339429,7.245657
1570727109,1.6591797,-9.748596,-0.9582825,-2.7704163,2.1187286,1.7276611,1.3856229,-0.6563883,3.2353787
1570727109,1.6962891,-8.555679,-1.5340881,-2.6148834,1.4124603,1.5497589,2.102636,0.5886755,3.5692573
1570727109,2.2463531,-5.657501,0.70388794,-1.4963531,1.0587921,1.4720001,2.9288218,2.4693365,6.7510486
1570727109,2.2463531,-5.657501,0.70388794,-1.4963531,1.0587921,1.4720001,2.9288218,2.4693365,6.7510486
1570727109,2.5486298,-2.7898407,-0.32202148,-0.1051178,1.0161743,0.52178955,2.9820933,4.997821,6.703901
1570727109,2.6144714,-2.7898407,-0.32202148,-0.1051178,1.0161743,0.52178955,2.9820933,4.997821,6.703901
1570727109,3.1723175,-1.4419098,-1.2850952,0.9814453,0.52082825,0.2874298,3.637318,5.9562726,5.9203715
1570727109,1.036087,-11.563995,-9.828796,2.4664307,-1.5617676,0.25334167,1.685212,-0.8679657,-3.1892114
1570727109,1.193512,-19.612701,-5.9238586,2.9095764,-3.3759155,-0.94615173,2.8899136,-10.057708,-0.760551
1570727109,1.193512,-19.612701,-5.9238586,2.9095764,-3.3759155,-0.94615173,2.8899136,-10.057708,-0.760551
1570727109,-0.7176666,-11.474213,-1.2509766,1.7388458,-1.9111633,-0.6478729,0.6713035,-2.982276,1.9505095
1570727109,0.72065735,-7.108383,0.6003418,2.029663,-1.5138245,-1.1453552,1.6700205,2.8595037,3.3625822
1570727109,2.2726898,-12.574341,3.122635,2.0136871,-0.69143677,-2.2223358,2.7772603,-1.3674488,4.811833
1570727109,2.2726898,-12.574341,3.122635,2.0136871,-0.69143677,-2.2223358,2.7772603,-1.3674488,4.811833
1570727109,-2.9155426,-12.682678,-1.1174927,0.7215271,2.2955627,-1.0398865,-3.4961097,-2.575347,0.2440418
1570727109,-2.9155426,-12.682678,-1.1174927,0.7215271,2.2955627,-1.0398865,-3.4961097,-2.575347,0.2440418
1570727109,-0.8319855,-10.488403,-0.4740448,0.93670654,1.9589386,-0.12057495,-2.4588537,-0.42716217,-0.2957005
1570727109,-0.8319855,-10.488403,-0.4740448,0.93670654,1.9589386,-0.12057495,-2.4588537,-0.42716217,-0.2957005
1570727109,-3.5122986,-10.243591,-1.9895782,0.880249,-0.83206177,0.7508087,-3.9722366,0.24100971,-2.3516467
1570727109,-3.5122986,-10.243591,-1.9895782,0.880249,-0.83206177,0.7508087,-3.9722366,0.24100971,-2.3516467
1570727109,-3.0011292,-9.595963,0.5668335,2.1457825,-3.194809,1.7436371,-4.00393,0.4261675,0.15689343
1570727109,-0.76075745,-9.36731,-0.7176666,2.20224,-2.8006592,1.8725433,-2.0443003,1.1125441,-1.6628919
1570727110,4.683655,-10.241791,-0.30107117,0.3454895,-0.49116516,-0.3591919,5.853351,0.45140934,-2.7477496
1570727110,2.339737,-10.652405,1.829773,0.22190857,-0.30155945,-0.43588257,4.405451,-0.056602478,-1.7514427
1570727110,-1.514328,-13.539215,1.1174927,0.18888855,0.403656,-0.48275757,-1.6387664,-2.9987555,-1.127228
1570727110,-1.514328,-13.539215,1.1174927,0.18888855,0.403656,-0.48275757,-1.6387664,-2.9987555,-1.127228
1570727110,-2.4516602,-18.012772,-2.542038,-0.1051178,0.30351257,-0.05984497,-2.9235969,-7.3142233,-4.339471
1570727110,-2.4516602,-18.012772,-2.542038,-0.1051178,0.30351257,-0.05984497,-2.9235969,-7.3142233,-4.339471
1570727110,-0.7164612,-16.60379,-1.5490417,-0.8944855,0.23426819,0.25546265,-1.2560047,-6.9505644,-3.9120426
1570727110,2.9556427,-11.537659,-0.1197052,-1.2332306,0.8308258,0.2086029,2.4646986,-1.328454,-1.6755512
1570727110,1.474823,-13.128601,-3.8917694,-2.2292633,1.2750397,-0.67770386,1.6086862,-2.1339283,-4.026268
1570727110,1.474823,-13.128601,-3.8917694,-2.2292633,1.2750397,-0.67770386,1.6086862,-2.1339283,-4.026268
1570727110,1.1767426,-14.041397,2.0392609,-1.8905029,-1.5276794,-0.14613342,-0.061317503,-4.6437664,4.580435
1570727110,1.5478516,-13.643356,1.272522,-1.8553467,-1.5468445,-0.11204529,0.5060294,-3.6942635,3.59329
1570727110,1.6531982,-11.7860565,0.63327026,-2.001297,-1.9473877,0.19581604,0.8617481,-1.8173637,2.6841254
1570727110,0.45489502,-11.353302,3.573944,-2.5712128,-1.8877411,0.44615173,0.35805926,-1.7942629,3.8871648
1570727110,-2.127243,-11.065994,-2.0865479,-3.2497864,0.86917114,0.9841156,-2.3484497,-1.7866879,2.4255438
1570727110,-2.127243,-11.065994,-2.0865479,-3.2497864,0.86917114,0.9841156,-2.3484497,-1.7866879,2.4255438
1570727110,-0.07661438,-8.483261,-0.21009827,-2.7405853,0.27368164,0.95428467,-0.25697944,0.61885166,4.4481993
1570727110,0.32261658,-8.32225,1.0821838,-2.240982,0.7658386,1.1364441,0.804299,0.6299839,7.2124596
1570727110,1.0097504,-3.3153687,1.6178894,-1.7360382,2.1165924,0.66986084,1.5496546,4.297517,8.842701
1570727110,1.0097504,-3.3153687,1.6178894,-1.7360382,2.1165924,0.66986084,1.5496546,4.297517,8.842701
1570727110,2.2810822,-0.95887756,-0.7176666,0.4946289,0.8595886,0.07223511,2.2870986,6.7728596,6.61752
1570727110,2.2810822,-0.95887756,-0.7176666,0.4946289,0.8595886,0.07223511,2.2870986,6.7728596,6.61752
1570727110,2.0925293,-5.348648,-8.112152,2.2768097,-0.8895874,-0.24839783,2.5769818,4.390687,-1.3757834
1570727110,1.8992004,-11.349121,-6.845627,2.1979828,-1.2879944,0.06690979,1.8955348,-1.7942324,-1.1955991
1570727110,3.1046753,-18.744797,-3.5589752,2.7870789,-1.7481842,-0.44760132,3.2982097,-9.15961,1.8639445
1570727110,0.3357849,-16.871338,-2.3445282,2.3215485,-2.268036,-0.6052704,1.0802723,-8.867992,1.737576
1570727110,0.018554688,-9.087189,-1.5939331,2.1575012,-2.2318115,-0.4806366,0.6601543,-1.1100206,2.1735897
1570727110,2.3965912,-10.054443,-0.046081543,2.598526,-1.9559174,-1.8047485,2.522806,1.0005598,2.2071154
1570727110,2.3965912,-10.054443,-0.046081543,2.598526,-1.9559174,-1.8047485,2.522806,1.0005598,2.2071154
1570727110,0.3327942,-14.207794,3.2746735,0.23043823,0.56344604,-1.1474915,-1.1745687,-5.360422,4.487095
1570727110,0.3327942,-14.207794,3.2746735,0.23043823,0.56344604,-1.1474915,-1.1745687,-5.360422,4.487095
1570727110,-1.1558075,-10.641037,-2.9466705,1.1444397,2.2305756,-0.62338257,-2.6958275,-0.3703146,-2.3435037
1570727111,-1.1558075,-10.641037,-2.9466705,1.1444397,2.2305756,-0.62338257,-2.6958275,-0.3703146,-2.3435037
1570727111,-3.2585144,-10.194504,-1.4335327,0.58517456,0.40577698,0.02217102,-4.456415,0.41752148,-1.6337168
1570727111,-3.2585144,-10.194504,-1.4335327,0.58517456,0.40577698,0.02217102,-4.456415,0.41752148,-1.6337168
1570727111,-4.4927216,-10.095154,-0.57341003,1.8187408,-2.617447,1.7745361,-5.882823,-0.0181427,-1.3500843
1570727111,-4.3382874,-9.894043,-0.6039429,1.8645477,-2.6962738,1.8384552,-5.882823,-0.0181427,-1.3500843
1570727111,11.240784,-8.012192,-1.9393005,0.753479,-1.2123566,0.68263245,10.459775,2.3238487,-3.850216
1570727111,11.240784,-8.012192,-1.9393005,0.753479,-1.2123566,0.68263245,10.459775,2.3238487,-3.850216
1570727111,-2.7623138,-10.874466,-1.1480255,0.93351746,1.0001984,-0.47103882,-2.9606304,-0.6084299,-2.3381467
1570727111,-2.7940369,-10.882843,-1.4083862,0.9004822,0.92562866,-0.4646454,-2.9606304,-0.6084299,-2.3381467
1570727111,-1.0636292,-15.446793,1.5358734,0.45307922,0.30776978,-0.32829285,-1.8192468,-4.76383,-0.2719872
1570727111,-0.98521423,-15.81311,1.2210388,0.47331238,0.32162476,-0.31445312,-1.8192468,-4.76383,-0.2719872
1570727111,0.39863586,-15.554535,-1.9614563,-0.9754486,0.7967377,-0.13548279,-0.116259575,-5.43783,-4.2878227
1570727111,0.29148865,-15.397705,-1.8094177,-1.0350952,0.80418396,-0.11630249,-0.116259575,-5.43783,-4.2878227
1570727111,2.9065552,-11.491577,-0.29447937,-1.8127441,1.1482697,-0.0012664795,2.2401175,-0.96328735,-1.3921198
1570727111,2.9065552,-11.491577,-0.29447937,-1.8127441,1.1482697,-0.0012664795,2.2401175,-0.96328735,-1.3921198
1570727111,1.0169373,-13.9917145,-1.8513184,-2.4593506,0.7040558,-0.33894348,0.23167938,-3.2343025,-1.4726906
1570727111,1.0169373,-13.9917145,-1.8513184,-2.4593506,0.7040558,-0.33894348,0.23167938,-3.2343025,-1.4726906
1570727111,0.70210266,-11.399994,0.6859436,-1.797821,-1.8046417,0.49302673,0.022608697,-1.0344553,2.5534966
1570727111,0.70210266,-11.399994,0.6859436,-1.797821,-1.8046417,0.49302673,0.022608697,-1.0344553,2.5534966
1570727111,-1.4317322,-12.048218,3.3147736,-2.2122192,-1.3774719,0.703949,-0.23433648,-0.9656944,5.091471
1570727111,-1.4317322,-12.048218,3.3147736,-2.2122192,-1.3774719,0.703949,-0.23433648,-0.9656944,5.091471
1570727111,-0.14964294,-9.03273,-0.10475159,-2.8087616,0.8009949,1.5359192,0.31565207,0.45172596,3.6169443
1570727111,-0.14964294,-9.03273,-0.10475159,-2.8087616,0.8009949,1.5359192,0.31565207,0.45172596,3.6169443
1570727111,1.1354523,-7.800308,0.034118652,-2.064148,1.2952728,1.3473663,2.1106632,0.9236355,6.0369396
1570727111,1.1354523,-7.800308,0.034118652,-2.064148,1.2952728,1.3473663,2.1106632,0.9236355,6.0369396
1570727111,1.695694,-2.4181366,0.33818054,-1.1448212,1.7725067,0.37371826,2.5275946,5.559971,7.1635637
1570727111,1.695694,-2.4181366,0.33818054,-1.1448212,1.7725067,0.37371826,2.5275946,5.559971,7.1635637
1570727111,2.0703888,-1.8291626,-1.6214752,-0.37356567,1.2420197,0.14468384,2.820603,6.0571833,5.249862
1570727111,1.6627655,-12.756912,-4.589081,1.7590942,-1.0930481,0.09248352,2.2046285,-3.6009703,-0.6263275
1570727111,1.6627655,-12.756912,-4.589081,1.7590942,-1.0930481,0.09248352,2.2046285,-3.6009703,-0.6263275
1570727111,1.7711182,-14.893738,-3.277069,2.6208954,-2.9774933,-0.79808044,3.2597497,-5.64618,1.6098695
1570727111,1.7711182,-14.893738,-3.277069,2.6208954,-2.9774933,-0.79808044,3.2597497,-5.64618,1.6098695
1570727111,-0.7170563,-11.711838,-0.09996033,2.3812103,-2.1817474,-1.0867615,0.9993125,-2.1797,2.6695378
1570727111,-0.7170563,-11.711838,-0.09996033,2.3812103,-2.1817474,-1.0867615,0.9993125,-2.1797,2.6695378
1570727112,1.2036896,-10.494385,1.4957733,1.8315277,-1.1111603,-1.6929016,1.6098382,0.4524889,2.6695662
1570727112,1.1121063,-10.899002,1.6502075,1.7974396,-1.0930481,-1.7216644,1.6019387,-0.026833534,2.858119
1570727112,-2.6551666,-12.976578,1.0247192,0.2197876,2.160263,-1.1773071,-2.9444873,-3.3674326,2.1673374
1570727112,-2.6551666,-12.976578,1.0247192,0.2666626,2.29982,-1.1506805,-3.0988393,-2.9293041,2.0775871
1570727112,-1.8411407,-10.567413,-1.3090363,0.80781555,2.1123352,-0.5956726,-2.9688659,-0.26951218,-1.2056489
1570727112,-1.8411407,-10.567413,-1.3090363,0.80781555,2.1123352,-0.5956726,-2.9688659,-0.26951218,-1.2056489
1570727112,-3.0855255,-9.666595,-0.72843933,1.1486969,0.25238037,0.7923584,-4.296239,0.53326035,-0.31367087
1570727112,-3.0855255,-9.666595,-0.72843933,1.1486969,0.25238037,0.7923584,-4.296239,0.53326035,-0.31367087
1570727112,1.1677704,-9.305664,-0.21548462,2.0509796,-2.446991,1.707428,-0.04496205,1.2816525,-0.93276286
1570727112,1.1677704,-9.305664,-0.4590912,2.0509796,-2.446991,1.707428,-0.04496205,1.2816525,-1.3112926
1570727112,8.620926,-8.710709,-1.5813751,0.9388428,-0.9481659,0.703949,8.043946,1.3637629,-3.352971
1570727112,-2.1326294,-11.505341,1.3000488,0.5628052,0.5879364,-0.43269348,-1.5388098,-1.155654,-0.12185204
1570727112,-2.1326294,-11.505341,1.3000488,0.5628052,0.5879364,-0.43269348,-2.0108845,-1.2511148,-0.61974597
1570727112,-1.8016357,-12.842499,1.5215149,0.12710571,0.48460388,-0.3400116,-2.1651976,-2.3301773,-0.7393999
1570727112,-1.8016357,-12.842499,1.5215149,0.12710571,0.48460388,-0.3400116,-2.1651976,-2.3301773,-0.7393999
1570727112,-0.18075562,-16.913834,-0.7008972,-0.2531891,0.47821045,0.25653076,-1.103417,-7.1276484,-2.6852295
1570727112,-0.18075562,-16.913834,-0.7008972,-0.2531891,0.47821045,0.25653076,-1.103417,-7.1276484,-2.6852295
1570727112,3.391388,-11.609482,-1.7758942,-0.7474823,1.4667816,-0.107788086,3.8263826,-1.223937,-2.959836
1570727112,3.391388,-11.609482,-1.7758942,-0.7474823,1.4667816,-0.107788086,3.8263826,-1.223937,-2.959836
1570727112,0.77812195,-13.510483,-5.79097,-2.384781,0.92030334,-0.66812134,0.83607024,-2.5341034,-5.8393464
1570727112,0.77812195,-13.510483,-5.79097,-2.384781,0.92030334,-0.66812134,0.83607024,-2.5341034,-5.8393464
1570727112,0.7332306,-14.372391,-0.63446045,-1.9181976,-2.03154,-0.19194031,0.16100997,-3.8928375,0.679117
1570727112,1.8866272,-11.22821,0.5410919,-2.2527008,-2.1977234,0.12763977,1.3896017,-0.8083868,2.443674
1570727112,1.8866272,-11.22821,0.5410919,-2.2527008,-2.1977234,0.12763977,1.3896017,-0.8083868,2.443674
1570727112,1.5490417,-11.5017395,-0.08558655,-2.431656,-2.0890656,0.10952759,1.3607742,-1.0785236,2.1814241
1570727112,-1.2952576,-10.755356,-1.5622101,-2.832199,0.2076416,1.1311188,-2.19844,-1.9432573,2.8248148
1570727112,-1.2952576,-10.755356,-1.5622101,-2.832199,0.2076416,1.1311188,-2.19844,-1.9432573,2.8248148
1570727112,-0.24241638,-9.388855,1.7226257,-2.429535,0.9043274,1.072525,0.4154746,-0.20789242,6.7611427
1570727112,-0.27772522,-9.361328,1.9422913,-2.402893,1.0172424,1.1066132,0.4154746,-0.20789242,6.7611427
1570727112,0.35614014,-5.351639,0.6105194,-1.973587,1.7980804,0.86053467,1.1965773,2.7607222,6.70055
1570727112,0.26934814,-5.2205505,0.8714905,-1.9554901,1.8534698,0.82432556,1.1965773,2.7607222,6.70055
1570727112,1.6585846,-2.7281952,-0.07661438,-0.48008728,1.4955444,0.16384888,1.6591672,5.217811,7.0022616
1570727112,1.8010406,-2.8957825,-0.037704468,-0.39060974,1.4454803,0.1659851,1.6591672,5.217811,7.0022616
1570727113,3.5942993,-2.2260132,-5.111618,1.8144836,0.10430908,0.1105957,3.6891565,5.95133,2.4256868
1570727113,3.5942993,-2.2260132,-5.111618,1.8144836,0.10430908,0.1105957,3.6891565,5.95133,2.4256868
1570727113,2.9269104,-14.472351,3.822937,1.677063,0.3876648,-0.07902527,2.570896,-7.127018,11.99279
1570727113,2.9269104,-14.472351,3.822937,1.677063,0.3876648,-0.07902527,2.570896,-7.127018,11.99279
1570727113,0.5913696,-4.929062,-2.8209686,1.9572296,-1.3433838,-0.52749634,0.62432134,3.9346542,1.9539485
1570727113,0.5913696,-4.929062,-2.8209686,1.9572296,-1.3433838,-0.52749634,0.62432134,3.9346542,1.9539485
1570727113,-1.0091553,-16.467316,-0.28370667,3.1535187,-2.4342194,-0.39967346,-0.38625562,-6.091935,2.3041856
1570727113,-1.0091553,-16.467316,-0.28370667,3.1535187,-2.4342194,-0.39967346,-0.38625562,-6.091935,2.3041856
1570727113,0.24958801,-11.262924,0.4513092,2.1820068,-0.4464264,-1.682251,-0.08210087,-0.0625782,1.8084133
1570727113,0.24958801,-11.262924,0.4513092,2.1820068,-0.4464264,-1.682251,-0.08210087,-0.0625782,1.8084133
1570727113,1.8010406,-9.355942,-1.4760284,1.0464325,1.5093994,-0.7149811,0.7646246,0.59625053,-0.6152183
1570727113,1.8010406,-9.355942,-1.4760284,1.0464325,1.5093994,-0.7149811,0.7646246,0.59625053,-0.6152183
1570727113,-0.011367798,-10.551254,2.0129242,0.35932922,2.4532166,-1.8260651,-1.2268262,0.43228626,1.6953449
1570727113,-0.011367798,-10.551254,2.0129242,0.35932922,2.4532166,-1.8260651,-1.2268262,0.43228626,1.6953449
1570727113,-0.016159058,-9.78331,2.2541351,0.3912964,4.657257,0.12017822,-2.0774703,0.31589603,2.1226256
1570727113,-0.016159058,-9.78331,2.2541351,0.3912964,4.657257,0.12017822,-2.0774703,0.31589603,2.1226256
1570727113,0.14305115,-12.029068,-0.06703186,1.4107513,-3.4632568,2.301834,-1.0802805,-1.4628916,-1.9691749
1570727113,0.14305115,-12.029068,-0.06703186,1.4107513,-3.4632568,2.301834,-1.0802805,-1.4628916,-1.9691749
1570727113,5.029022,-9.762955,-2.70784,1.3074188,-3.5261078,2.3529663,4.888534,0.25254726,-4.379979
1570727113,5.029022,-9.762955,-2.70784,1.3074188,-3.5261078,2.3529663,4.888534,0.25254726,-4.379979
1570727113,1.9554596,-10.432129,-0.82899475,0.16545105,-3.1671143,1.4208679,3.5582964,0.4696226,-3.9224722
1570727113,-1.6232758,-10.843338,4.336502,-0.27449036,-2.9625854,2.0238037,-0.6879641,-0.9484396,2.3273804
1570727113,-1.6232758,-10.843338,4.336502,-0.23188782,-2.9338226,2.060028,-0.6879641,-0.9484396,2.3273804
1570727113,-0.89901733,-9.384674,5.5210266,0.08343506,-2.319168,2.0248718,0.2002908,0.4409542,2.2209907
1570727113,-2.5474243,-10.093948,1.0163422,0.51486206,-0.50927734,0.22564697,-0.42686665,0.1997881,-1.4079189
1570727113,-2.683899,-10.252563,1.1258698,0.511673,-0.4741211,0.21179199,-0.6226822,-0.057204247,-1.4989996
1570727113,-4.0174713,-11.9518585,2.2170258,0.4285736,0.1842041,0.3140564,-1.7658747,-1.8533192,-1.1709044
1570727113,-4.1120453,-12.214615,2.3373413,0.4424286,0.22468567,0.30766296,-1.9744322,-1.9874706,-0.6490772
1570727113,-3.7690735,-15.541367,-0.0047912598,-0.023101807,0.54852295,0.36839294,-2.4056392,-5.417942,-1.3113365
1570727113,-3.7690735,-15.541367,-0.0047912598,-0.023101807,0.54852295,0.36839294,-2.4056392,-5.417942,-1.3113365
1570727113,-0.3615265,-14.711777,-1.6442108,-1.4431,-0.3729248,-0.758667,1.6677883,-4.805251,-4.3036575
1570727113,-0.3615265,-14.711777,-1.6442108,-1.4431,-0.3729248,-0.758667,1.6677883,-4.805251,-4.3036575
1570727113,-0.084991455,-13.786407,-1.0504608,-2.429535,-0.023529053,-1.5139313,1.9200015,-3.0483475,-3.3954444
1570727114,-1.296463,-14.025238,-3.0053253,-3.2870636,-0.26000977,-1.1858368,0.011508703,-4.0000067,-4.06783
1570727114,-1.296463,-14.025238,-3.0053253,-3.2870636,-0.26000977,-1.1858368,0.011508703,-4.0000067,-4.06783
1570727114,-1.83815,-12.944244,4.265274,-3.1262054,-0.963089,-0.7458801,-0.25854325,-2.1753035,2.4610589
1570727114,-1.2162476,-7.2993164,3.917511,-1.2034149,-0.55189514,0.42697144,-0.93427134,2.6203547,6.5587635
1570727114,-3.7062225,-7.1293335,-7.363968,-1.3376312,-2.334076,0.8956909,-1.796058,3.0668125,-5.230755
1570727114,-3.7062225,-7.1293335,-7.363968,-1.3376312,-2.334076,0.8956909,-1.796058,3.0668125,-5.230755
1570727114,-4.7225647,-8.256409,-2.9167328,-3.2721558,-0.9076843,2.0781403,-2.5899541,1.6433172,0.336097
1570727114,-9.066849,-10.338165,2.3217773,-2.2484283,-1.8131714,3.0113068,-5.193158,-0.94360256,6.2129564
1570727114,-9.066849,-10.338165,2.3217773,-2.2484283,-1.8131714,3.0113068,-5.193158,-0.94360256,6.2129564
1570727114,1.7890625,-15.156494,1.2581482,-1.0872955,1.2111206,2.1132965,9.289036,-10.468885,4.74996
1570727114,1.7890625,-15.156494,1.2581482,-1.0872955,1.2111206,2.1132965,9.289036,-10.468885,4.74996
1570727114,0.70210266,-4.9751587,0.38546753,-0.10192871,1.8502808,0.65493774,6.2238574,2.1373029,5.7266693
1570727114,0.58358765,-5.15831,0.21247864,-0.07423401,1.8705139,0.6123352,6.5008245,2.1279068,5.367725
1570727114,2.25354,-3.0101166,-0.5398865,1.2818604,0.7977905,-0.2931366,7.360644,4.129982,4.85413
1570727114,2.458252,-2.9861755,-0.9433136,1.3521576,0.71151733,-0.3410797,7.360644,4.129982,4.85413
1570727114,-19.612701,-11.116882,-0.044891357,0.30075073,-0.5465698,1.1396332,-14.6175,-7.076159,3.2959785
1570727114,-19.612701,-11.116882,-0.044891357,0.30075073,-0.5465698,1.1396332,-14.6175,-7.076159,3.2959785
1570727114,-12.738953,-14.088074,-2.1685486,0.5904999,-0.96095276,-0.97810364,-6.6591535,-4.35938,-5.687499
1570727114,-12.738953,-14.088074,-2.1685486,0.5904999,-0.96095276,-0.97810364,-6.6591535,-4.35938,-5.687499
1570727114,-2.2242126,-11.051041,-0.53570557,1.1252594,-1.4328613,-1.379715,2.412211,-2.5296345,2.374821
1570727114,-2.2242126,-11.051041,-0.53570557,1.1252594,-1.4328613,-1.379715,2.412211,-2.5296345,2.374821
1570727114,-4.847061,-13.02565,-1.2665253,1.4086151,-0.08103943,-2.1882477,-0.9767642,-3.751608,1.2232349
1570727114,-4.7854156,-12.966995,-1.2384033,1.4203339,-0.06719971,-2.1957092,-0.9767642,-3.751608,1.2232349
1570727114,-6.9767,-13.787018,1.3581085,1.3798523,-0.8373871,-2.2329865,-3.8858786,-3.4396276,2.3540196
1570727114,-7.187393,-14.501083,1.2270355,1.452301,-0.8448334,-2.1222076,-3.8858786,-3.4396276,2.3540196
1570727114,-5.2834015,-13.051392,-0.39085388,0.7705231,0.1373291,0.94363403,-2.757676,-3.0574894,0.033279598
1570727114,-5.2834015,-13.051392,-0.39085388,0.7705231,0.1373291,0.94363403,-2.757676,-3.0574894,0.033279598
1570727114,-2.1410217,-10.875656,-1.7250214,0.767334,-0.437912,1.6424408,0.8015454,-0.8071976,-0.53132546
1570727114,-0.9109955,-9.700104,-0.7799072,0.36997986,-0.3494873,1.9034271,2.2729044,0.06689167,-1.0765507
1570727114,-1.5699921,-5.8490295,2.142807,0.8706665,-4.4443665,-0.0012664795,3.2604342,2.6442595,0.02785331
1570727114,-1.5699921,-5.8490295,2.142807,0.8706665,-4.4443665,-0.0012664795,3.2604342,2.6442595,0.02785331
1570727114,-7.515991,-8.747818,-2.2828674,1.2616119,-1.5276794,0.32470703,-3.1769366,0.22456932,-4.238039
1570727114,-7.515991,-8.747818,-2.2828674,1.2616119,-1.5276794,0.32470703,-3.1769366,0.22456932,-4.238039
1570727115,-5.740097,-8.522156,2.9897614,2.1575012,-2.844345,0.3343048,-1.6116385,0.98541164,-0.08734918
1570727115,-5.1002502,-7.557892,0.3214264,1.9295349,-4.451828,-0.98023987,-2.330624,1.6999063,-3.6137066
1570727115,-6.9395905,-8.349182,2.637207,0.9825134,-4.943985,-1.4809113,-4.2591686,0.62597847,-2.325439
1570727115,-5.479126,-6.5014496,3.8672333,0.13136292,-4.0906982,-1.2348328,-3.7896318,2.2692509,-1.5615873
1570727115,3.055008,-6.4332275,6.75943,-0.4811554,-1.7172852,-2.5035706,3.6709166,2.6510944,1.435554
1570727115,3.055008,-6.4332275,6.75943,-0.4811554,-1.7172852,-2.5035706,3.6709166,2.6510944,1.435554
1570727115,-4.2784424,-11.371857,7.1849976,0.13349915,-1.7386017,-3.194931,-6.9310255,-2.6896486,2.2079625
1570727115,-4.2784424,-11.371857,7.1849976,0.13349915,-1.7386017,-3.194931,-6.9310255,-2.6896486,2.2079625
1570727115,-4.3849792,-11.272507,6.7893524,0.16333008,-0.88319397,-0.88648987,-7.9767942,-2.8320217,1.6371121
1570727115,-2.1751251,-11.459839,8.2994995,0.83018494,-0.9226074,1.0458984,-6.1270533,-2.8585796,3.215259
1570727115,-2.1751251,-11.459839,8.2994995,0.83018494,-0.9226074,1.0458984,-6.1270533,-2.8585796,3.215259
1570727115,0.7835083,-11.678909,11.371857,3.2291565,-1.4552307,3.3117065,-2.6565018,-3.5192652,5.4743896
1570727115,0.7835083,-11.678909,11.371857,3.2291565,-1.4552307,3.3117065,-2.6565018,-3.5192652,5.4743896
1570727115,1.467041,-10.285492,12.488159,6.4611664,-2.464035,4.365265,-0.22267234,-3.4593363,4.9804587
1570727115,1.458664,-10.204681,12.368439,6.6358795,-2.5513916,4.4419556,-0.22267234,-3.4593363,4.9804587
1570727115,2.2894592,-9.907211,9.042892,7.7000732,-3.1681824,5.1876373,0.44132543,-4.823422,0.06502628
1570727115,3.2267914,-11.270111,6.9509735,8.029236,-1.5298004,6.0835266,1.2860607,-9.814033,-3.1985607
1570727115,3.2465363,-11.270111,6.9509735,8.029236,-1.5298004,6.0835266,1.2860607,-9.814033,-3.1985607
1570727115,9.297287,-1.9740143,3.581131,5.670746,0.9224396,6.358368,3.6829703,-8.9236355,-8.077589
1570727115,10.517136,-0.013763428,3.7056274,5.290451,1.4273682,6.1335907,5.037654,-6.8051386,-7.3329296
1570727115,5.9879,-4.2078094,-3.0029297,0.99209595,3.0731964,3.4991913,5.323782,-7.541188,-13.113077
1570727115,2.2523499,2.719818,-1.8878326,-0.7591858,0.9884796,2.8110352,1.2292417,-1.9384863,-12.130799
1570727115,1.6071014,3.9977112,3.5212708,-3.6151733,-1.7215576,-0.05984497,0.009248376,3.5274024,-7.1383677
1570727115,1.1749573,2.0171204,5.229538,-3.8079834,-2.1210327,-0.42311096,-0.50995255,2.325649,-6.2958965
1570727115,-0.49499512,-6.800125,16.516998,-2.7895813,-1.5915985,-0.615921,-2.9285214,-6.444902,5.1410675
1570727115,-4.3101654,-4.15094,19.612701,2.0807953,3.3608246,1.5689392,-5.3854375,-3.7505586,9.37107
1570727115,0.9971924,-0.6404419,5.387558,2.4738922,2.315796,2.1313934,0.60185707,-2.4111495,-4.777071
1570727115,0.9971924,-0.6404419,5.387558,2.4738922,2.315796,2.1313934,0.60185707,-2.4111495,-4.777071
1570727115,-0.0035858154,2.5432434,9.072235,0.55747986,0.5804901,0.73483276,0.9256514,0.7667295,-1.3269472
1570727115,-0.0035858154,2.5432434,9.072235,0.55747986,0.5804901,0.73483276,0.9256514,0.7667295,-1.3269472
1570727115,-1.1564026,0.7451935,10.107727,-0.09765625,-0.00541687,0.46105957,-0.66526216,-1.1020331,-0.36543083
1570727115,-1.8872223,1.0211334,10.653,-0.17010498,-0.42938232,1.0544128,-2.2362325,-1.1550366,0.27288818
1570727115,-1.8872223,1.0211334,10.653,-0.17010498,-0.42938232,1.0544128,-2.2362325,-1.1550366,0.27288818
1570727116,1.414978,3.6427765,9.698914,-0.13813782,-0.44963074,0.33963013,1.366195,2.463802,-0.47861004
1570727116,1.414978,3.6427765,9.698914,-0.13813782,-0.44963074,0.33963013,1.366195,2.463802,-0.47861004
1570727116,0.746994,0.8750763,12.306198,0.13882446,0.20657349,0.18089294,-0.8957268,-0.6135385,1.58533
1570727116,0.502182,1.6555939,13.451218,0.2155304,0.23320007,0.12550354,-0.8957268,-0.6135385,1.58533
1570727116,1.1258698,2.230194,10.217255,1.2179413,0.92349243,-0.04067993,0.5261931,-0.31772685,1.2290535
1570727116,-0.16879272,1.296463,9.025543,0.5681305,0.23214722,-0.31018066,-0.2549066,-0.97690535,-1.1057491
1570727116,-0.16879272,1.296463,9.025543,0.5681305,0.23214722,-0.31018066,-0.2549066,-0.97690535,-1.1057491
1570727116,0.5560608,0.49499512,10.871475,-0.20098877,-0.032043457,-0.22283936,0.24606708,-0.43850803,0.7881012
1570727116,-0.061050415,0.517746,11.862076,-0.112579346,0.21296692,-0.14933777,0.3337356,-0.8747585,1.7224779
1570727116,-0.3321991,1.695694,9.68515,0.49249268,0.032943726,0.04348755,0.101926655,-1.0851395,-0.14666271
1570727116,-0.3321991,1.695694,9.68515,0.49249268,0.032943726,0.04348755,0.101926655,-1.0851395,-0.14666271
1570727116,0.15203857,1.8058319,9.167404,0.6480255,-0.072525024,0.19581604,0.4138124,-0.97085166,-0.7420006
1570727116,0.15203857,1.8058319,9.167404,0.6480255,-0.072525024,0.19581604,0.4138124,-0.97085166,-0.7420006
1570727116,0.9391327,1.743576,9.238632,-0.13708496,0.2672882,0.16065979,1.2864808,-1.1332517,-0.6938572
1570727116,0.9391327,1.743576,9.238632,-0.13708496,0.2672882,0.16065979,1.2864808,-1.1332517,-0.6938572
1570727116,0.36930847,1.9381104,10.354919,-0.21165466,0.14160156,0.23841858,0.7759452,-1.0049508,0.3182907
1570727116,0.031723022,2.3852234,9.517548,-0.07102966,0.20657349,0.26931763,0.45475098,-0.5091953,-0.38833046
1570727116,0.031723022,2.3852234,9.517548,-0.07102966,0.20657349,0.26931763,0.45475098,-0.5091953,-0.38833046
1570727116,-0.17059326,2.8323364,8.869324,-0.25106812,0.14372253,0.32577515,0.22981763,0.078163385,-1.1442041
1570727116,-0.15562439,2.8562775,8.951324,-0.26065063,0.15118408,0.32791138,0.26083747,0.09256315,-1.1310034
1570727116,-0.35075378,2.7599182,11.578354,-0.13069153,0.22042847,0.37051392,0.18056741,0.13008165,1.1765099
1570727116,-0.17536926,2.9712067,10.575195,0.3955536,0.23001099,0.42378235,0.29160315,0.19943595,0.7639961
1570727116,-0.2747345,3.4644165,9.613922,0.05253601,0.50697327,0.38648987,0.62616026,0.62974596,-0.52467155
1570727116,-0.2747345,3.4644165,9.613922,0.05253601,0.50697327,0.38648987,0.62616026,0.62974596,-0.52467155
1570727116,-0.5925598,3.1094666,9.485825,-0.02947998,0.4675598,0.4898224,-0.06660956,0.31503987,-0.5919323
1570727116,-0.12689209,3.530243,9.454102,-0.21910095,0.52508545,0.5090027,0.7078671,0.7142184,-0.6380539
1570727116,-1.7178345,3.1483765,8.936951,-0.5035248,1.1280365,0.5931549,-0.43821168,0.43014264,-1.3211746
1570727116,-2.4797974,3.0502167,9.910202,-0.5322876,0.89686584,0.8573456,-1.0947845,0.4238851,-0.13148403
1570727116,-2.3505096,3.1962585,11.234192,-0.4577179,0.96824646,0.97665405,-0.8943268,0.95284605,1.6687899
1570727116,-1.1324615,2.5193024,10.926544,-0.32563782,0.76690674,1.0320435,0.3475505,0.15304208,0.96132374
1570727116,-0.29508972,2.8700562,11.371857,0.40194702,0.356781,0.8892975,1.3176582,0.24027205,1.5735359
1570727116,-0.7260437,3.016098,10.008362,0.31991577,0.3844757,0.7454834,1.2011592,-0.033391,0.43169308
1570727116,-0.7260437,3.016098,10.008362,0.31991577,0.3844757,0.7454834,1.2011592,-0.033391,0.43169308
1570727116,-1.1635895,2.9382782,10.0784,-0.124298096,0.38554382,0.7241821,0.5522363,0.059815407,0.23077488
1570727117,-0.7368164,1.2755127,12.076355,-0.3607788,0.29179382,0.57717896,1.1329479,-1.3043036,1.9598513
1570727117,-0.7368164,1.2755127,12.076355,-0.3607788,0.29179382,0.57717896,1.1329479,-1.3043036,1.9598513
1570727117,-0.6979065,0.67037964,10.967239,0.15800476,0.5314789,0.57717896,1.0672956,-2.0861068,1.2246609
1570727117,-1.0612335,0.794281,9.583389,0.39341736,0.57514954,0.5622711,1.0385773,-2.1075745,-0.1338253
1570727117,-1.2719269,0.888855,8.133102,0.28796387,0.26516724,0.63256836,0.683233,-2.2125845,-1.5941048
1570727117,-1.367691,1.1324615,8.196548,0.14201355,0.18527222,0.64642334,0.7374916,-2.1170723,-1.54986
1570727117,-0.53749084,1.1390381,10.412979,-0.69421387,-0.062942505,0.6357727,1.3546478,-1.8573284,0.3994379
1570727117,-0.53749084,1.1390381,10.412979,-0.69421387,-0.062942505,0.6357727,1.3546478,-1.8573284,0.3994379
1570727117,-0.5668335,1.0462646,12.503113,-0.35972595,-0.06932068,0.42485046,1.1224668,-1.702729,2.5561247
1570727117,-0.49380493,1.2461853,11.340134,0.09301758,-9.1552734E-5,0.28103638,1.1967226,-1.5323262,1.6674328
1570727117,-0.65960693,1.430542,10.159195,0.31459045,0.004180908,0.16384888,1.1213504,-1.3563287,0.52975273
1570727117,-0.8313904,2.0757751,8.886078,0.09194946,-0.072525024,-0.007659912,0.92159164,-0.88408446,-1.0168858
1570727117,-0.74279785,2.0757751,8.886078,0.09194946,-0.072525024,-0.007659912,0.92159164,-0.88408446,-1.0168858
1570727117,-0.77812195,2.1727448,9.39006,-0.124298096,-0.09703064,-0.07476807,0.9986459,-0.7497597,-0.6055193
1570727117,-1.3078308,1.8166046,10.704483,-0.38635254,-0.070388794,-0.13015747,0.4953885,-0.9371629,0.5256252
1570727117,-1.3222046,1.6448212,11.431717,-0.38209534,-0.0022125244,-0.13548279,0.31307054,-1.0210445,1.4580431
1570727117,-1.3341675,2.363678,10.982803,-0.35758972,0.20977783,-0.26971436,0.75320446,-0.6163099,1.2121878
1570727117,-0.7876892,1.7112579,10.897202,-0.37142944,0.25663757,-0.39860535,1.0641192,-0.476439,0.79377747
1570727117,-1.3628998,1.1420288,10.362106,0.56492615,-0.19076538,-0.538147,0.6496091,-1.1003382,0.68566036
1570727117,-1.3922272,1.1168976,10.238205,0.61073303,-0.26533508,-0.536026,0.6342838,-1.2336977,0.4662218
1570727117,0.10295105,1.7639313,8.784927,0.56173706,-0.36013794,-0.55093384,1.7835481,-1.0542123,-0.80035496
1570727117,0.1257019,1.8632812,8.383896,0.2506714,-0.19502258,-0.6510773,2.0292416,-0.78656435,-1.3743601
1570727117,-2.1446075,1.2785034,10.782288,-0.43215942,-0.01713562,-0.48168945,-0.2365967,-1.2490377,0.5322027
1570727117,-2.1446075,1.2785034,10.782288,-0.43215942,-0.01713562,-0.48168945,-0.2365967,-1.2490377,0.5322027
1570727117,-0.5913696,1.9650421,9.952698,0.37425232,-0.44003296,-0.39967346,1.0693941,-0.55317926,0.14755058
1570727117,-0.59376526,1.9500732,9.930557,0.3774414,-0.4389801,-0.4060669,1.0693941,-0.55317926,0.14755058
1570727117,-1.3162079,1.6292572,9.787491,0.12284851,-0.58065796,-0.27716064,0.17827499,-0.9254701,-0.2658615
1570727117,-1.2581482,1.6184845,9.82341,0.11752319,-0.5923767,-0.26437378,0.17827499,-0.9254701,-0.2658615
1570727117,-0.15382385,1.8004456,10.973221,-0.17755127,-0.4389801,-0.21644592,1.0172623,-0.75138927,0.61397743
1570727117,-0.15382385,1.8004456,10.973221,-0.17755127,-0.4389801,-0.21644592,1.0172623,-0.75138927,0.61397743
1570727117,-0.116119385,1.8860321,10.424347,0.013122559,-0.27279663,-0.20259094,0.7685306,-0.64229417,0.4391575
1570727117,-0.116119385,1.8860321,10.424347,0.013122559,-0.27279663,-0.20259094,0.7685306,-0.64229417,0.4391575
1570727117,0.70628357,2.015915,10.804428,0.003540039,-0.2664032,-0.2846222,1.5075067,-0.465039,0.6786499
1570727117,0.70628357,2.015915,10.804428,0.003540039,-0.2664032,-0.2846222,1.5075067,-0.465039,0.6786499
1570727118,0.26515198,2.0745697,10.219055,0.03337097,-0.06187439,-0.2888794,1.0076761,-0.46519303,0.18480492
1570727118,0.26515198,2.0745697,10.219055,0.03337097,-0.06187439,-0.2888794,1.0076761,-0.46519303,0.18480492
1570727118,0.3327942,2.151184,10.471634,0.028030396,-0.09275818,-0.26757812,1.0736077,-0.29264212,0.35960865
1570727118,0.05986023,2.102707,10.587753,-0.004989624,-0.06187439,-0.18554688,0.74964863,-0.36123872,0.4780693
1570727118,0.05986023,2.102707,10.587753,-0.004989624,-0.06187439,-0.18554688,0.74964863,-0.36123872,0.4780693
1570727118,-0.2735443,2.091339,10.548248,-0.034820557,0.028671265,-0.117370605,0.51870227,-0.3781221,0.48191738
1570727118,-0.5560608,2.2128448,9.670776,-0.11897278,-0.01713562,-0.0055236816,0.22221226,-0.21450639,-0.3682747
1570727118,-0.26635742,2.1374207,10.459076,-0.20631409,-0.17797852,0.116989136,0.37473637,-0.1922934,0.23095036
