time,ax,ay,az,gx,gy,gz,la_x,la_y,la_z,fox,foy,foz
1570726844,9.013641,-1.6349335,-1.2447968,-0.42974854,0.2342987,1.1596527,4.7099,5.985838,0.5391953
1570726844,1.5628967,-4.9676666,5.3739777,0.4789276,0.7136688,1.2374115,-2.4849477,3.673314,2.076454
1570726844,1.4623413,-7.5964966,3.494522,1.3332672,-0.6775665,2.5168,-2.2885056,5.227667,0.15447211
1570726844,0.9715271,-8.891754,0.7076721,-0.06222534,-0.37184143,1.9841614,-2.169565,-0.69355583,-0.91772866
1570726844,0.87934875,-4.179962,0.7424011,-1.6590576,1.4444427,1.1063843,-1.8845339,5.0391235,-1.5994692
1570726845,0.176651,-1.016037,1.710846,-1.5045929,0.29289246,1.2171631,-2.3007798,8.1131935,0.1041311
1570726845,0.34184265,-1.9425812,3.7052155,-0.71842957,-1.2485504,1.4302216,-1.9780767,8.121678,1.529586
1570726845,-8.007935,-25.21901,4.360031,1.2203522,-1.9835815,2.3868256,-2.7291777,0.9226246,4.4067965
1570726845,2.343399,-32.92595,4.7730255,2.2131805,-2.9753418,9.919312,-3.7213845,-28.13802,2.8004136
1570726845,7.0097046,-3.1289215,-1.1633911,-0.007904053,-2.4608154,0.768692,10.4088745,6.076847,-4.82656
1570726845,0.83984375,-10.412079,1.9299164,-0.469162,-1.4637299,-1.8017883,2.222948,0.56970215,-0.97609735
1570726845,0.66267395,-9.972733,-5.5256195,1.9372711,-0.23867798,-0.094177246,0.40206933,-3.364747,-5.1493998
1570726845,-2.8496246,-10.626358,1.2044678,-1.1626434,0.35786438,-0.7546387,-1.4762685,-0.7652092,-2.667815
1570726845,-5.2964935,-10.778381,1.022522,-0.93788147,0.26945496,-0.4712677,-4.120755,-1.0104179,-0.9795792
1570726845,-2.6724548,-11.382919,-4.7858124,-0.994339,3.4961395,-0.15382385,-2.8192115,-1.2732992,-6.1781335
1570726845,-2.637741,-10.841827,-1.0077667,-1.8145905,4.8405,-0.31147766,-1.5479491,-0.8077688,-3.1055498
1570726845,0.9511719,-10.167862,-0.49780273,-2.9118195,-0.3377533,0.23072815,2.201302,0.21243858,-2.1733346
1570726845,0.30833435,-10.236099,-3.076355,-3.2622833,-4.3601837,0.7729492,1.508278,0.4573908,-1.2638061
1570726845,-2.9513702,-13.412003,0.15222168,-4.336075,-1.0866394,0.28186035,-1.2656261,-1.618577,-2.8973505
1570726845,-0.4482422,-14.214066,6.7853546,-3.2345886,0.55281067,0.19026184,0.12337756,-4.6492176,8.156642
1570726845,2.2931213,-11.302719,1.027298,-2.2481537,1.3304596,-0.3881836,3.5048928,-1.9536085,4.970916
1570726845,0.7225342,-11.093231,-5.657303,-2.0990143,2.8718872,-1.2041779,2.5080173,-1.9398165,-0.2909298
1570726845,-0.7546997,-11.969498,-5.5064697,-2.7168732,1.7171478,-1.3160248,-1.0435456,-2.203577,-2.0430508
1570726845,-2.3193054,-11.348206,-1.696106,-2.8383179,-0.11618042,-1.5802155,-2.2369356,-3.0081482,2.969946
1570726845,-0.906723,-9.372986,-1.2627563,-2.3738556,0.64656067,-1.6718292,-1.8939724,-1.6332521,4.761169
1570726845,-2.2367096,-7.0314636,-0.5744171,-2.1714478,0.43989563,-1.6313477,-2.8350692,0.16711092,5.7188616
1570726845,-1.2215576,-5.3112335,-1.3106384,-2.1714478,-0.7372284,-1.3660889,-3.1520329,1.7136922,5.806431
1570726845,1.6131744,-4.415802,-1.874466,-1.7655945,-1.0717163,-0.75782776,-0.5179546,2.9118142,5.328323
1570726845,1.0637054,-4.3188324,-2.8596802,-1.0923462,-0.9833069,-0.82388306,-0.18877888,2.0380716,5.1864557
1570726845,-0.30697632,-2.3735504,-1.8804474,-0.535202,-1.3774414,-0.47340393,-1.4150598,3.5627217,5.8996787
1570726845,-3.3428192,-0.6185913,-4.3979645,-0.1485138,-1.3657379,-0.20709229,-4.2396293,5.485566,3.839604
1570726845,0.094055176,-0.90589905,-5.859619,0.3287201,-0.5944824,-0.2166748,-1.4819101,5.1936665,2.185341
1570726845,0.10722351,-3.2354584,-7.5295715,0.8325958,-0.050125122,-0.4116211,-0.61334056,3.313603,0.9721217
1570726845,0.4124756,-4.1296844,-17.054901,0.9838562,0.5602722,0.12953186,-0.85451645,2.724258,-9.862539
1570726845,-3.6157684,-7.673111,6.9984436,1.188385,0.5868988,0.028335571,-2.863843,-1.3406463,6.534899
1570726845,-0.20523071,-11.06929,-15.563324,1.6347351,1.0428314,0.31808472,-1.9533409,-2.8812823,-12.687588
1570726845,1.5114136,-11.356583,-3.1529694,2.270691,0.34295654,-0.32640076,0.5913571,-3.6965141,5.4314194
1570726845,1.1893921,-12.832611,-2.4825897,2.2131805,0.55067444,-1.3799438,-0.14474368,-5.1849413,3.3605742
1570726846,1.7903442,-9.376587,-2.526886,2.1396637,0.893692,-1.4736938,-0.2960837,-2.368266,1.5174041
1570726846,3.0161743,-10.090057,-3.4749908,2.0640411,1.2175293,-2.0414734,0.5721655,-1.4418974,1.4445419
1570726846,-3.7139282,-8.612839,-2.4023895,1.8658905,2.1411133,-2.0372162,-5.878061,-0.55495644,1.6210871
1570726846,0.23890686,-6.8483124,-0.46188354,1.3236847,1.7118225,0.3361969,-4.3339567,1.8848972,2.5120244
1570726846,6.7966156,-10.292358,0.47903442,1.4333954,1.1174011,0.67601013,2.6077743,-1.5443573,3.1404133
1570726846,5.501358,-8.247711,-0.5851898,1.5559082,0.6976929,-0.07499695,1.5848594,0.19860458,2.4298632
1570726846,0.592041,-8.090897,-0.52893066,1.5260773,-0.4400177,0.6568451,-3.2358022,0.8772259,1.2943672
1570726846,3.0460968,-6.66156,-1.9295349,1.411026,-0.90660095,1.6379547,-0.7767739,2.7337694,-0.1970936
1570726846,3.6362762,-7.2397614,-2.9362946,1.5388641,0.26945496,0.9295502,1.2193124,1.8731403,-1.2915941
1570726846,0.30952454,-6.7274017,-2.341339,1.0520325,1.8439178,1.0989227,-2.2920463,2.9707117,-1.5664855
1570726846,5.276306,-8.914505,-0.7108917,0.7015686,1.9057007,1.1266174,2.1134157,1.0686626,-0.54658055
1570726846,4.868088,-7.88739,-0.40322876,0.38731384,1.1046143,0.7079773,2.707251,1.8906317,-0.4492558
1570726846,3.584793,-8.628403,0.6741638,0.51620483,-0.22589111,0.37561035,2.2091475,1.309638,1.0306091
1570726846,2.3446045,-9.706985,-0.51815796,0.7516327,0.18209839,0.50450134,0.61351335,0.0012331009,-0.720022
1570726846,2.7204895,-10.828659,-1.0664215,0.79637146,0.5570679,0.6674957,1.0343019,-0.6973696,-1.6116664
1570726846,2.1267242,-12.823044,-1.1933136,0.7047577,0.57624817,0.6600342,0.9012617,-2.8660774,-1.9405555
1570726846,2.5349426,-15.736786,-2.6262512,0.2861023,0.3600006,0.54286194,1.1037406,-5.330881,-3.1518583
1570726846,2.7444305,-15.042465,-5.2119904,-0.80685425,0.3078003,0.10609436,1.7488614,-5.528509,-5.529083
1570726846,2.3134766,-13.257584,-7.0040436,-2.3195343,0.44096375,-0.3413086,1.302238,-3.6466389,-7.164616
1570726846,2.453537,-11.895279,-5.0623474,-3.5946503,0.6039429,-0.5660858,1.1662436,-1.9850903,-4.8949466
1570726846,2.4870605,-14.8341675,-2.9746094,-3.8982544,1.3954315,-0.6768646,1.0467274,-4.6953707,-1.6706905
1570726846,1.9782867,-13.001404,1.1170807,-3.050293,1.0449677,-1.4023132,0.9516628,-4.225072,2.4412148
1570726846,-0.60147095,-9.09407,5.153717,-2.9725342,-0.13215637,-1.3213501,-3.0854678,-0.29599857,8.357939
1570726846,0.28318787,-7.321167,4.407913,-2.2332458,-0.11936951,-0.93891907,-2.4578743,1.1055937,9.102573
1570726846,3.35495,-8.108856,-6.816101,-1.3362885,-0.21418762,-1.1168213,0.3615861,0.88954544,-0.5589242
1570726846,0.20657349,-9.724945,-0.5133667,-2.1171265,-1.1111298,-1.7421417,-2.2895105,-1.9034376,2.7407107
1570726846,-0.70321655,-6.91774,0.5736084,-1.7922211,-1.0749207,-1.6878052,-4.0015106,0.16671419,6.173619
1570726846,-0.24234009,-3.9980164,-2.2168427,-1.4715729,-0.5944824,-1.4300079,-3.791366,2.6270661,4.1267495
1570726846,1.3761444,-2.8212585,-0.6869507,-1.1924744,-0.7233734,-1.2734222,-2.4302933,3.8469348,5.476434
1570726846,1.4707184,-2.0191956,-0.739624,-0.6928711,-1.3401642,-1.1264191,-1.9106092,4.238879,5.842928
1570726846,-1.0384064,-1.5044556,-1.3118286,-0.015365601,-1.5489502,-0.7152252,-4.247883,4.656129,5.5873795
1570726846,-1.040802,-1.5523376,-3.9406586,0.63764954,-0.8213806,-0.1101532,-4.4524508,4.653026,3.3228407
1570726846,-1.4597931,-1.2327118,-5.178467,1.2118225,0.10646057,0.15296936,-4.594965,5.0639386,1.6259265
1570726846,0.5693054,-2.1532745,-8.251419,1.6347351,1.2271271,0.40863037,-2.9272153,4.7217317,-1.0422411
1570726847,4.4730377,-9.07132,-9.428177,1.4983826,1.2835846,0.815567,-0.45721102,-0.32652235,-6.4477673
1570726847,4.3437653,-18.32132,-4.554779,1.4813385,1.5275269,1.1298218,2.357073,-9.042191,4.7964635
1570726847,0.086868286,-14.114716,-3.8915863,1.5101013,-0.101257324,1.1383362,-3.2997515,-8.392744,0.26314545
1570726847,2.4750824,-5.961258,-1.0101624,1.5228882,0.47930908,1.1255646,-0.72108674,2.094882,3.7778645
1570726847,1.5976105,-7.795212,-3.1290283,1.8286133,1.1685333,1.2565918,-0.8516214,0.7989969,1.488637
1570726847,0.3466339,-9.898514,-0.34457397,1.4429932,1.7395172,1.819046,-2.0689256,-0.48644924,2.5220633
1570726847,1.864563,-13.277939,0.57958984,1.4376678,-0.105529785,1.5910797,-0.82393384,-4.0610266,3.9847596
1570726847,3.339386,-10.3354645,-1.743988,1.6368713,-0.8757019,1.0563202,1.5366656,-1.8298569,1.1741774
1570726847,3.1418762,-8.503891,-1.0640259,1.4834595,-0.6381531,0.75164795,1.9608388,0.7389784,0.78842926
1570726847,0.3250885,-8.24173,-0.4163971,1.5899963,-0.5944824,0.4096985,-0.6013305,1.0442286,1.1628178
1570726847,0.57528687,-7.546219,-1.8421478,1.4898529,-0.47836304,0.22328186,-0.53640795,1.6667442,-0.40819514
1570726847,0.7344971,-7.4851685,-2.411972,1.2725372,-0.54441833,0.058166504,-0.20006025,2.050784,-1.0444355
1570726847,1.5377502,-8.174698,-1.5751953,1.172409,0.1554718,0.13166809,-0.076093435,1.7445288,-0.876939
1570726847,3.576416,-7.9173126,-1.1430359,1.124466,1.0236511,-0.2944336,2.1648512,1.4728718,-1.2654586
1570726847,-1.1078339,-6.641205,0.081588745,1.1915894,0.97358704,-0.13891602,-1.2845204,2.775878,0.16668575
1570726847,0.21257019,-7.1858826,-1.5883636,0.6291199,-0.0021972656,0.5492554,-2.0682704,2.8392897,-1.1903732
1570726847,4.227646,-8.430878,0.3677063,0.41607666,0.65826416,0.5385895,2.9950278,1.2176323,-0.84019053
1570726847,3.2412262,-9.538193,1.1158905,0.628067,0.40048218,0.41609192,2.6139858,0.40997696,0.6027123
1570726847,1.8920898,-11.70015,-0.31344604,0.8166046,0.2108612,0.4427185,1.5456488,-1.8019428,-0.85698336
1570726847,0.4807129,-14.099152,-0.6103363,0.8134155,0.1831665,0.5077057,0.038179696,-4.036825,-1.4981781
1570726847,2.4343872,-16.37004,-2.7351837,0.22964478,-0.077819824,0.47148132,1.5631932,-6.415533,-3.2495313
1570726847,1.2480621,-14.599533,-5.4849243,-0.8920746,-0.013916016,-0.018539429,1.2943089,-5.4452906,-5.8078685
1570726847,1.9339905,-13.113937,-9.418594,-2.4079437,0.26412964,-0.361557,1.0745127,-3.7708263,-9.791501
1570726847,3.2699585,-12.821838,-5.4621735,-3.846054,0.97465515,-0.7887268,2.5797832,-2.8423414,-6.2781754
1570726847,2.2512207,-14.738403,1.2116547,-3.9781494,1.0076752,-0.94744873,1.4716406,-4.6214476,0.74225867
1570726847,1.8454132,-12.898453,4.0523834,-3.032196,0.63056946,-1.4055176,1.0442562,-4.3545933,5.735545
1570726847,-0.6110382,-9.814728,3.627411,-2.3568115,0.5165863,-1.3202972,-2.0366373,-1.2801113,7.218467
1570726847,-0.96658325,-7.5725555,3.9135132,-1.6164551,0.3919525,-1.367157,-2.9883568,0.6609955,8.119165
1570726847,0.81829834,-7.523468,-3.5755463,-1.4971466,-0.32817078,-1.5759583,-2.3261914,1.4217596,0.6247153
1570726847,0.7333069,-7.7808533,-5.7195587,-2.076645,-2.0112762,-1.8827515,-1.117893,0.44437885,0.735085
1570726847,-1.64534,-7.0182953,0.8776703,-2.046814,-0.9183197,-1.6547852,-4.5585938,0.19822359,4.710072
1570726847,-0.43984985,-3.914215,-0.112335205,-1.7219086,-0.52630615,-1.2979126,-3.9806318,2.9427009,5.8792934
1570726847,1.4240265,-3.1085663,-0.3074646,-1.4023285,-0.6456146,-1.1274719,-2.371277,3.9548416,5.393735
1570726848,1.4204407,-3.3874817,-1.4028168,-0.9208374,-1.5659943,-0.9506378,-1.261617,2.967372,5.1557717
1570726848,-1.6872406,-1.9030762,-2.748352,-0.045181274,-1.3454895,-0.4861908,-3.9313285,4.055668,4.0603023
1570726848,-2.7155457,-0.9011078,-2.3473206,0.5897064,-0.9513397,-0.11122131,-5.5626264,5.239129,4.184158
1570726848,-1.3652191,-0.7442932,-5.258667,1.2810669,0.39620972,0.34152222,-4.0852003,5.81288,1.1973534
1570726848,0.88772583,-2.5650787,-12.471207,1.6059723,0.71473694,0.9455261,-2.7170622,4.9822507,-3.2174983
1570726848,2.4236145,-9.248489,1.2751007,2.2728271,2.0463104,1.1820221,1.0607653,-0.60780287,2.140934
1570726848,5.544449,-23.605331,-11.896591,1.5409851,1.5733337,1.3726959,1.7269623,-12.756807,-8.559281
1570726848,1.9902649,-15.7990265,-2.4730225,1.6613617,-0.87783813,0.9668274,-1.3553405,-13.558628,4.902047
1570726848,1.5605011,-3.9728699,-2.3952026,1.1809387,0.4058075,0.95617676,-0.36615705,4.171278,1.8057766
1570726848,-0.5930786,-4.276932,-0.7120819,1.5878601,1.0843811,1.307724,-2.4195116,4.769023,2.3121274
1570726848,0.50346375,-10.149918,0.5532532,1.5463104,0.42285156,1.7178497,-1.7286699,0.9093332,3.4167309
1570726848,3.224472,-16.239563,1.7132416,2.016098,-0.62857056,1.2896118,1.2355258,-6.7370663,5.0752077
1570726848,4.565216,-9.62677,-4.226776,2.252594,0.44841003,0.52793884,3.833354,-1.3723545,-1.9529757
1570726848,1.1510925,-6.8566895,-0.4092102,1.6485901,0.4100647,0.21156311,0.8854948,2.2689734,0.7338636
1570726848,-1.5040741,-7.9651947,-1.9127808,1.4152832,-0.8810425,0.21688843,-2.5094833,1.5593204,-0.49368298
1570726848,-0.51408386,-8.374603,-2.0588226,1.1170197,-0.62324524,0.2616272,-1.254266,1.0299034,-1.1673365
1570726848,1.6981659,-7.269684,-0.779129,1.1180878,-0.38356018,0.3638916,0.33253115,2.0236416,-0.62648726
1570726848,5.1314545,-7.1032867,-0.5504761,1.3907928,1.3506927,-0.28805542,4.256059,2.2539263,-0.83658373
1570726848,-1.1018524,-7.003937,-0.2966919,1.3226166,0.7115326,-0.22413635,-0.85060513,2.2792997,-0.21747509
1570726848,1.078064,-7.060196,-0.8557434,0.8336487,-0.25785828,0.5833435,-0.596981,2.5465136,-1.4231591
1570726848,3.6326752,-8.928864,0.8273926,0.6216736,0.20553589,0.41822815,3.0910394,0.6240969,0.054098964
1570726848,1.1498871,-11.1064,-0.045303345,0.4597473,-0.030960083,0.37347412,0.868069,-1.3045549,-0.7695553
1570726848,0.21257019,-12.067673,-1.8565063,0.5598755,0.10966492,0.5737457,-0.10624024,-2.7479753,-3.0205708
1570726848,0.46035767,-13.763962,0.35931396,0.3287201,0.09580994,0.7037201,0.054518223,-4.099921,-0.7742443
1570726848,2.10997,-15.802628,-2.1067047,-0.17088318,-0.041610718,0.51516724,1.7679019,-5.895158,-2.9900978
1570726848,2.5552826,-14.917969,-4.2171936,-1.1179047,-0.19714355,0.17959595,2.8059027,-5.6954556,-4.7733064
1570726848,2.0549011,-13.258774,-6.946579,-2.221527,0.037216187,-0.43399048,1.9953691,-3.795454,-7.074981
1570726848,3.1442566,-11.983871,-5.5878754,-3.449768,0.36639404,-1.0220184,2.8545225,-2.6853075,-6.3118296
1570726848,1.4563446,-13.3593445,-0.8533478,-3.7118225,1.0747833,-1.2297363,1.0401037,-3.7553759,-0.48302686
1570726848,1.7292938,-13.811844,0.63705444,-2.684906,0.8702545,-1.3703613,0.71112096,-4.7521877,3.2980459
1570726848,-0.843277,-10.346237,3.3137665,-2.3110046,-0.124694824,-1.667572,-1.8260746,-1.7691488,6.5118055
1570726848,-1.526825,-6.958435,3.4669952,-2.1533508,-1.1185913,-1.5386658,-3.5306792,0.765358,9.4149065
1570726848,1.1439056,-6.7238007,-1.6877136,-1.9221802,-0.6733093,-1.2020416,-1.3846264,1.9390087,3.2730117
1570726849,0.7692108,-8.156738,-4.316559,-1.8327026,-0.7127228,-1.7836761,-1.0992739,0.04156685,-0.022466183
1570726849,-1.9470062,-7.360672,-0.41879272,-2.1629333,-1.0578766,-1.6452026,-4.567067,0.14509106,4.367041
1570726849,-0.9534149,-4.7785187,-0.40203857,-1.759201,-0.32389832,-1.3224182,-3.9803357,2.25532,5.2754436
1570726849,1.1798248,-3.660431,-0.68574524,-1.4012756,-0.7137909,-1.2041779,-2.0827591,3.1183305,5.4837613
1570726849,1.3845215,-3.277359,-1.6434326,-1.0848846,-1.2794495,-1.1051025,-1.3745844,3.0399075,4.475328
1570726849,-0.6397705,-1.7319031,-1.6613922,-0.24119568,-1.335907,-0.7908478,-3.3032804,4.2728853,4.8444924
1570726849,-1.0671387,-0.73231506,-3.428299,0.5556183,-0.654129,-0.3093567,-3.7565885,5.461115,3.3070498
1570726849,-1.5232391,-0.7646332,-5.0467834,1.2427216,0.3088684,0.08798218,-4.510865,5.5447297,1.3168764
1570726849,1.8106995,-2.0886383,-8.871521,1.7071686,1.0055542,0.64512634,-1.2292492,4.7804174,-1.9576263
1570726849,3.6458435,-7.609665,-9.046295,1.5612335,1.210083,0.79959106,0.56355166,-0.35013676,-4.252082
1570726849,3.8565369,-22.043106,-3.9717865,1.3226166,1.9951782,0.82302856,3.215373,-11.787167,-1.523407
1570726849,1.2420654,-11.355392,-3.9741821,1.9223633,-0.32177734,0.84858704,-2.7221627,-7.9648094,0.9028573
1570726849,1.7029572,-4.3810883,-2.6813202,1.3833313,0.5538788,0.82940674,-0.5604973,3.5358143,1.6681032
1570726849,-1.1066437,-6.5574036,-2.1067047,1.6816101,0.99276733,1.4611206,-3.3435144,2.3827448,1.1693592
1570726849,-1.4071198,-11.761215,-1.2567596,1.3513794,0.6550751,1.931961,-3.4889603,-2.3586369,1.9470806
1570726849,0.53578186,-13.710083,0.14025879,1.3843994,0.27264404,1.7189026,-1.3043923,-5.343343,2.815497
1570726849,3.0844116,-9.610016,-0.40203857,1.7327423,0.023376465,1.4472656,1.3452988,-1.0308065,2.1929743
1570726849,3.6925354,-8.048996,-0.7767334,1.6826782,-0.0043182373,0.9125061,3.1704218,0.7543516,1.3747249
1570726849,2.6737976,-8.278839,-1.2507782,1.5122223,-0.037353516,0.6877289,2.1278594,1.0017128,0.53933513
1570726849,1.7292938,-7.5809326,-1.5428772,1.3162231,-0.3611908,0.3681488,1.6437532,1.5864983,-0.3896196
1570726849,2.3769226,-6.8686523,-0.80426025,1.2533722,-0.25146484,0.04005432,1.6006991,2.6389475,-0.027637124
1570726849,3.0245514,-6.9991455,0.4766388,1.3961182,0.34721375,-0.42227173,2.0503182,2.1665792,0.5080107
1570726849,2.1997528,-6.711838,-0.5708313,2.0906677,1.9387207,-0.9421234,1.9630587,2.6075764,-0.40421632
1570726849,-4.454941,-7.719803,-2.0289001,1.1266022,0.19700623,0.2669525,-4.7404127,1.9071178,-3.066037
1570726849,3.7535858,-11.147095,-2.9901733,0.23284912,-0.20779419,0.88053894,1.3797562,-1.6105442,-3.5100863
1570726849,4.3736877,-9.398132,0.21687317,0.04536438,0.6859741,0.16894531,4.7068186,-0.6673775,-1.2762914
1570726849,0.95835876,-8.823517,1.8700562,0.4831848,0.38983154,0.26908875,0.7917059,0.5377407,0.9509518
1570726849,0.5106354,-11.578049,2.4434814,0.9103546,0.36212158,0.7399292,0.2537248,-1.6134462,0.9041854
1570726849,0.08088684,-14.849731,2.3249664,0.9529724,-0.29940796,0.81663513,0.12938833,-5.2742805,1.3100679
1570726849,2.4176178,-15.867264,-4.6086426,0.2584076,-0.68395996,0.6003876,1.9270587,-6.3802605,-5.2097483
1570726849,1.7161255,-15.133438,-5.0192566,-0.85798645,0.15119934,0.13806152,2.2678142,-5.8510456,-6.4396954
1570726849,1.3210754,-13.316238,-6.6916046,-2.124588,0.5837097,-0.44250488,1.1981002,-4.470868,-7.840193
1570726849,1.7532349,-11.932388,-3.6246338,-3.4273987,1.0481567,-1.0529022,1.9820722,-2.5354528,-4.5148253
1570726850,1.2540436,-13.749588,0.14503479,-3.3315277,1.2953033,-1.2691498,0.81599605,-3.9767447,0.08926499
1570726850,2.2033386,-13.085205,0.031311035,-2.7765198,1.1131439,-1.4513245,1.4710643,-4.1969013,0.6979518
1570726850,-1.6477356,-9.6519165,2.945053,-2.2897034,0.46972656,-1.6973877,-2.105125,-1.261755,5.7703967
1570726850,-2.1289673,-6.9129486,2.612259,-2.2513428,-0.84588623,-1.3533173,-4.248659,1.8821278,6.475314
1570726850,-1.5399933,-5.4333344,-0.82940674,-2.2012787,-1.2773132,-0.9410553,-4.028281,3.0741997,3.1414983
1570726850,2.390091,-8.100479,-3.0631866,-2.1927643,-1.0866394,-1.1189575,-0.13608658,0.9961128,1.0165434
1570726850,-0.412323,-8.816345,-1.3788757,-2.2556152,-0.7457428,-1.5642395,-1.9242883,-1.189106,3.0429382
1570726850,-1.4262695,-6.2210236,-0.59835815,-2.0372314,-0.34521484,-1.3117676,-4.0653496,0.8224163,4.51034
1570726850,0.55374146,-4.7892914,-0.49780273,-1.6079254,-0.37290955,-1.0507812,-2.4260437,2.1603556,5.3117585
1570726850,1.394104,-4.5438843,-1.0640259,-1.44281,-1.0024719,-0.9091034,-1.0981276,2.063715,4.9503264
1570726850,-0.649353,-3.072647,-1.4447021,-0.70777893,-1.3007507,-0.7983093,-2.753748,2.926036,5.110929
1570726850,-2.0978394,-1.328476,-2.4095764,0.14762878,-0.67437744,-0.52453613,-4.5042233,4.725998,4.465839
1570726850,-1.6177979,-0.8532257,-5.0982666,0.8123474,0.0074005127,-0.15382385,-4.411821,5.3896194,1.3484192
1570726850,2.0728607,-1.055542,-5.2215576,1.3865204,0.37704468,0.47787476,-1.4865687,5.7825217,1.1205711
1570726850,5.0847626,-3.780136,-7.437393,1.8499146,1.4540253,0.94766235,2.6580157,3.495482,-1.4333153
1570726850,3.4052277,-8.848663,-10.363113,1.26828,1.2825165,0.75271606,0.43939686,-0.1400795,-2.9587536
1570726850,5.087158,-22.227463,-1.4171753,1.2629547,1.3442993,0.67814636,3.2267542,-12.388554,-4.7369623
1570726850,0.860199,-11.199768,-6.3875427,2.304779,-0.43469238,0.6568451,-2.3819911,-6.779796,0.12866354
1570726850,1.2779846,-4.1524353,-1.1418457,1.6528473,0.42178345,0.562027,-0.6037872,3.9933443,2.9397824
1570726850,-1.0348206,-5.91098,-3.2523346,2.0203552,1.1067505,1.1383362,-2.9843032,3.2130241,0.2652309
1570726850,-1.5890808,-12.639877,0.0025787354,1.5356598,0.9373779,1.786026,-3.4296765,-2.480853,2.131276
1570726850,-0.035232544,-14.637848,0.122299194,1.5026398,-0.5987396,1.2533875,-1.7932034,-6.7200146,3.068685
1570726850,1.2456665,-9.072525,-1.7643433,1.793457,-0.13322449,1.0893402,-0.06083572,-1.2759132,0.21980047
1570726850,1.7292938,-7.64917,-0.7875061,1.5356598,-0.023498535,0.83154297,0.9670226,1.4037714,0.52772224
1570726850,1.1702423,-8.69783,-0.119522095,1.3428497,-0.07144165,0.57907104,0.65454566,0.6157255,1.0135506
1570726850,1.3007202,-9.151535,-1.6063232,1.045639,0.55067444,0.4565735,0.8244067,-0.17861462,-1.083518
1570726850,2.259613,-8.756485,-0.40802002,1.2118225,0.35360718,0.40330505,1.118448,0.38367367,0.0050577223
1570726850,2.2967224,-8.008301,-0.7013092,1.045639,0.08834839,0.09864807,1.3016164,1.1966152,-1.4303607
1570726850,4.0959625,-6.8243713,-0.8138428,1.2001038,0.79888916,-0.6630249,3.331676,2.2575245,-0.9829066
1570726850,-2.0870667,-6.191101,1.1015167,1.2363281,1.592514,-0.45422363,-1.8500059,2.6338873,0.36185062
1570726850,-0.42190552,-6.799225,0.17376709,0.6962433,-0.38249207,0.47680664,-1.8121297,2.6580496,-0.58385116
1570726850,2.805481,-8.695435,0.6573944,0.7707977,-0.093811035,0.52368164,1.8016815,0.75797653,-0.5202763
1570726850,2.805481,-8.695435,0.6573944,0.7707977,-0.093811035,0.52368164,1.8016815,0.75797653,-0.5202763
1570726850,2.805481,-8.695435,0.6573944,0.7707977,-0.093811035,0.52368164,1.8016815,0.75797653,-0.5202763
1570726851,2.805481,-8.695435,0.6573944,0.7707977,-0.093811035,0.52368164,1.8016815,0.75797653,-0.5202763
1570726851,2.805481,-8.695435,0.6573944,0.7707977,-0.093811035,0.52368164,1.8016815,0.75797653,-0.5202763
1570726851,2.805481,-8.695435,0.6573944,0.7707977,-0.093811035,0.52368164,1.8016815,0.75797653,-0.5202763
1570726851,2.805481,-8.695435,0.6573944,0.7707977,-0.093811035,0.52368164,1.8016815,0.75797653,-0.5202763
1570726851,2.805481,-8.695435,0.6573944,0.7707977,-0.093811035,0.52368164,1.8016815,0.75797653,-0.5202763
1570726851,2.805481,-8.695435,0.6573944,0.7707977,-0.093811035,0.52368164,1.8016815,0.75797653,-0.5202763
1570726851,3.2723541,-10.779587,-4.202835,-2.076645,1.1749268,-0.24543762,3.4294722,-1.6511278,-6.2084007
1570726851,3.2723541,-10.779587,-4.202835,-2.076645,1.1749268,-0.24543762,3.4294722,-1.6511278,-6.2084007
1570726851,3.2723541,-10.779587,-4.202835,-2.076645,1.1749268,-0.24543762,3.4294722,-1.6511278,-6.2084007
1570726851,3.2723541,-10.779587,-4.202835,-2.076645,1.1749268,-0.24543762,3.4294722,-1.6511278,-6.2084007
1570726851,3.2723541,-10.779587,-4.202835,-2.076645,1.1749268,-0.24543762,3.4294722,-1.6511278,-6.2084007
1570726851,3.2723541,-10.779587,-4.202835,-2.076645,1.1749268,-0.24543762,3.4294722,-1.6511278,-6.2084007
1570726851,3.2723541,-10.779587,-4.202835,-2.076645,1.1749268,-0.24543762,3.4294722,-1.6511278,-6.2084007
1570726851,3.2723541,-10.779587,-4.202835,-2.076645,1.1749268,-0.24543762,3.4294722,-1.6511278,-6.2084007
1570726851,3.2723541,-10.779587,-4.202835,-2.076645,1.1749268,-0.24543762,3.4294722,-1.6511278,-6.2084007
1570726851,-1.1389618,-6.412567,-1.0963593,-1.1743622,0.23109436,-0.46594238,-3.0384898,1.826128,2.5939085
1570726851,-1.2131805,-5.609314,-1.5632172,-1.2020721,0.69555664,-0.2955017,-3.434864,2.6179552,1.7803936
1570726851,-0.9043274,-4.8886566,0.11869812,-0.81217957,1.2398987,-0.15808105,-3.221497,3.129098,3.4787824
1570726851,-0.5032959,-4.6193085,0.4191742,-0.55970764,1.146164,0.0059661865,-2.9497519,3.4778795,4.111745
1570726851,-0.5032959,-4.6193085,0.4191742,-0.55970764,1.146164,0.0059661865,-2.9497519,3.4778795,4.111745
1570726851,-0.5032959,-4.6193085,0.4191742,-0.55970764,1.146164,0.0059661865,-2.9497519,3.4778795,4.111745
1570726851,-0.5032959,-4.6193085,0.4191742,-0.55970764,1.146164,0.0059661865,-2.9497519,3.4778795,4.111745
1570726851,-0.5032959,-4.6193085,0.4191742,-0.55970764,1.146164,0.0059661865,-2.9497519,3.4778795,4.111745
1570726851,-0.5032959,-4.6193085,0.4191742,-0.55970764,1.146164,0.0059661865,-2.9497519,3.4778795,4.111745
1570726851,-0.5032959,-4.6193085,0.4191742,-0.55970764,1.146164,0.0059661865,-2.9497519,3.4778795,4.111745
1570726851,-0.5032959,-4.6193085,0.4191742,-0.55970764,1.146164,0.0059661865,-2.9497519,3.4778795,4.111745
1570726851,-0.5032959,-4.6193085,0.4191742,-0.55970764,1.146164,0.0059661865,-2.9497519,3.4778795,4.111745
1570726851,-0.86842346,-9.016251,-3.8808136,-0.66304016,0.9490814,0.1913147,-2.1510556,0.10806751,-3.7690353
1570726851,-5.4856415,-6.4903717,5.849228,-1.0966034,0.6785126,0.26481628,-7.2793527,1.192337,7.5890183
1570726851,-3.262619,-6.329956,3.2180023,-0.012161255,0.45587158,0.97109985,-5.7503147,2.682825,4.6707463
1570726851,-0.38719177,-8.353058,2.5093079,-0.18367004,0.6114044,1.5239716,-1.68506,1.0819368,4.6062064
1570726851,1.14151,-11.539749,3.0420227,0.23817444,0.18209839,1.4494019,-0.2038663,-2.0526419,4.6084046
1570726851,2.0752563,-12.317856,3.0994873,0.53964233,-0.539093,0.81770325,1.2199663,-3.1449556,4.774134
1570726852,2.0752563,-12.317856,3.0994873,0.53964233,-0.539093,0.81770325,1.2199663,-3.1449556,4.774134
1570726852,2.0752563,-12.317856,3.0994873,0.53964233,-0.539093,0.81770325,1.2199663,-3.1449556,4.774134
1570726852,2.0752563,-12.317856,3.0994873,0.53964233,-0.539093,0.81770325,1.2199663,-3.1449556,4.774134
1570726852,2.0752563,-12.317856,3.0994873,0.53964233,-0.539093,0.81770325,1.2199663,-3.1449556,4.774134
1570726852,2.0752563,-12.317856,3.0994873,0.53964233,-0.539093,0.81770325,1.2199663,-3.1449556,4.774134
1570726852,2.0752563,-12.317856,3.0994873,0.53964233,-0.539093,0.81770325,1.2199663,-3.1449556,4.774134
1570726852,2.0752563,-12.317856,3.0994873,0.53964233,-0.539093,0.81770325,1.2199663,-3.1449556,4.774134
1570726852,2.0752563,-12.317856,3.0994873,0.53964233,-0.539093,0.81770325,1.2199663,-3.1449556,4.774134
1570726852,1.1822205,-9.200607,1.3804474,0.20622253,1.7139435,0.06349182,0.59548485,-0.21749592,0.51651335
1570726852,1.2959442,-8.906128,1.3541107,0.3564148,1.6233978,0.021942139,0.8191863,0.12864971,0.41049987
1570726852,0.7775879,-8.306381,0.99139404,0.6823883,1.3560181,0.062423706,0.40399718,0.7032242,-0.07580507
1570726852,0.40649414,-8.110046,0.23362732,0.6834564,0.9916992,0.1870575,0.002219379,0.79899025,-1.0439366
1570726852,0.29875183,-8.112442,0.09475708,0.6355133,1.0513611,0.20516968,-0.030015469,0.93340397,-1.2677469
1570726852,0.29875183,-8.112442,0.09475708,0.6355133,1.0513611,0.20516968,-0.030015469,0.93340397,-1.2677469
1570726852,0.29875183,-8.112442,0.09475708,0.6355133,1.0513611,0.20516968,-0.030015469,0.93340397,-1.2677469
1570726852,0.29875183,-8.112442,0.09475708,0.6355133,1.0513611,0.20516968,-0.030015469,0.93340397,-1.2677469
1570726852,0.29875183,-8.112442,0.09475708,0.6355133,1.0513611,0.20516968,-0.030015469,0.93340397,-1.2677469
1570726852,0.29875183,-8.112442,0.09475708,0.6355133,1.0513611,0.20516968,-0.030015469,0.93340397,-1.2677469
1570726852,0.29875183,-8.112442,0.09475708,0.6355133,1.0513611,0.20516968,-0.030015469,0.93340397,-1.2677469
1570726852,0.29875183,-8.112442,0.09475708,0.6355133,1.0513611,0.20516968,-0.030015469,0.93340397,-1.2677469
1570726852,0.29875183,-8.112442,0.09475708,0.6355133,1.0513611,0.20516968,-0.030015469,0.93340397,-1.2677469
1570726852,-7.3004456,-15.642212,4.925064,-3.5051727,4.0500793,-0.8718109,-8.467204,-7.4572363,3.9699728
1570726852,-4.1927643,-8.989914,7.399475,-2.72966,1.4795837,-0.50535583,-5.8175716,-1.2398605,9.809564
1570726852,2.3697357,-8.87619,-0.46907043,-1.6867676,-0.5050049,0.109298706,-1.2344627,0.23147678,6.4069667
1570726852,3.844574,-11.416443,-9.314453,-2.3184662,2.8090363,-0.83239746,4.061135,-2.637354,-6.131709
1570726852,-3.18721,-9.481934,-2.3652802,-2.695572,1.3943634,-0.9122925,-4.0230284,-1.6140118,0.22843575
1570726852,-2.2079773,-7.811966,-0.3936615,-2.396225,0.57624817,-0.5223999,-4.81923,-0.22898388,3.3058448
1570726852,0.031799316,-6.875839,-0.042907715,-2.3088684,0.464386,-0.22839355,-2.5990858,0.70714235,4.534733
1570726852,1.3258667,-6.2521515,-2.5376587,-2.2438965,-0.30473328,-0.25183105,-1.158354,0.87759924,3.1028976
1570726852,1.6335144,-5.2681274,-3.4701996,-1.8561401,-0.054397583,-0.14956665,-0.4731536,1.4490314,2.0627584
1570726852,0.4615631,-3.292923,-2.8656616,-1.4172516,-0.09913635,0.050704956,-1.8230221,2.9823189,3.0581422
1570726852,1.3198853,-2.5447235,-3.6797028,-0.7663727,0.23962402,0.14445496,-1.1037099,3.8160028,2.6986017
1570726852,1.8837128,-3.127716,-4.6361847,-0.29019165,0.41859436,0.10609436,-0.381119,3.30334,1.9044042
1570726852,2.022583,-3.2713623,-6.2570496,-0.072891235,0.15440369,0.053894043,-0.2889328,2.8855882,-0.10579443
1570726853,2.9132233,-3.167221,-6.0355988,-0.06542969,-0.077819824,0.04751587,0.8409622,2.8715906,0.83821344
1570726853,3.181366,-2.703949,-8.281357,0.22538757,0.2651825,0.025146484,0.395041,3.488721,-1.7542219
1570726853,2.932373,-3.783722,-9.069046,0.3095398,0.26838684,0.052841187,0.7113476,2.6288533,-2.4876823
1570726853,2.1554565,-5.729019,-11.740967,0.19236755,0.29608154,0.34259033,-0.4211812,1.1469898,-6.179123
1570726853,-0.19923401,-5.51474,-9.296494,0.17425537,-0.079956055,0.69200134,-1.6419551,0.26592016,-0.5236082
1570726853,0.3717804,-5.87027,-7.5211945,1.6528473,0.9863739,1.1127777,-7.4410844,2.23772,3.6842933
1570726853,3.6973267,-11.396088,-0.49661255,1.5292664,1.784256,1.227829,1.47892,-4.6344404,0.33739328
1570726853,-0.94862366,-9.8697815,-1.2902832,1.9340668,1.6212769,0.8603058,-2.7894359,-2.6165051,3.1502333
1570726853,1.6203461,-9.911682,-1.190918,2.0874786,1.289978,0.9433899,-1.5974555,-1.9624143,2.8078966
1570726853,2.0656738,-9.728531,-1.5033722,1.9585724,1.4572144,0.6930542,0.5376766,-2.2650409,2.351469
1570726853,-0.5978699,-9.699799,-1.1669769,1.7455292,1.8396454,1.3151703,-2.648148,-0.4722576,0.62169576
1570726853,1.5150146,-11.812683,0.26953125,1.9884033,1.672409,1.4217072,-1.3227803,-3.1062136,2.7556007
1570726853,3.1681976,-10.283981,0.23960876,2.062973,1.2228546,0.84539795,1.3878042,-3.0563965,2.385732
1570726853,2.1841888,-10.91127,-0.14704895,1.650711,1.0556183,0.6387329,0.79074085,-2.3880663,0.5588623
1570726853,1.0205994,-9.060547,-0.2272644,1.3598938,-0.049057007,0.82514954,-0.3533913,-0.46149635,0.65585786
1570726853,0.6602783,-8.033432,-0.973053,1.2895813,-0.40699768,0.9348755,-0.7069205,0.68225574,-0.109372735
1570726853,1.2827759,-6.2317963,-0.8712921,1.3705444,1.4838562,1.040329,0.9892912,3.1728992,0.015635982
1570726853,1.9172363,-6.9213257,-0.8701019,1.3236847,0.860672,0.8144989,1.305303,2.414462,-1.1877488
1570726853,2.4403687,-8.361435,-0.20690918,1.2757416,0.20872498,0.6877289,0.892665,1.17698,-0.7155071
1570726853,4.790283,-8.635574,-0.12789917,1.2288666,0.9586792,0.14338684,4.292821,0.3249302,-1.1362553
1570726853,-0.84806824,-8.069351,0.36410522,1.0051575,0.4878235,0.32873535,-1.1421089,0.798398,-1.443326
1570726853,-0.36802673,-9.086884,-1.2220459,0.710083,0.7094116,0.49066162,-0.47792554,0.21708202,-2.694087
1570726853,2.2212982,-10.524597,0.29109192,0.58226013,0.92671204,0.49598694,2.0996504,-1.2973108,-1.2413052
1570726853,0.9822998,-9.615997,0.9710388,0.6078186,1.1419067,0.42460632,1.4340297,-0.6500683,-0.5421245
1570726853,0.27241516,-11.039352,1.4762115,0.6174011,1.0950317,0.47680664,0.7854389,-1.7758646,-0.55789804
1570726853,-0.35845947,-13.505386,0.30065918,0.30316162,0.9384308,0.3607025,0.29512239,-4.5440865,-1.4234656
1570726853,-0.4482422,-14.567215,-1.9415131,-0.17301941,1.0257874,0.03579712,0.047596097,-5.572544,-3.637198
1570726853,0.21734619,-14.986191,-4.1489563,-1.3405457,1.3815918,-0.39457703,0.9653213,-5.997076,-5.6355524
1570726853,0.35740662,-13.269562,-3.8808136,-2.4207306,1.5158081,-0.92401123,0.71310353,-4.372074,-5.0138173
1570726853,-0.40634155,-12.959503,-4.016083,-3.0875854,1.6393738,-1.4097748,-0.03675732,-3.3801146,-4.259308
1570726853,-2.3121185,-14.618683,-1.7846832,-3.3741455,2.4596405,-1.2680969,-3.1495037,-6.192487,-2.9711003
1570726853,-1.5519562,-9.973938,3.754303,-2.5805206,1.3901062,-1.4118958,-1.8038137,-1.2066603,5.410539
1570726853,-0.743927,-8.560165,4.4055176,-2.0265808,0.79888916,-1.1999207,-1.9749888,0.15584183,5.8399615
1570726854,0.8194885,-7.7473297,-1.5416718,-1.7538757,0.7157898,-1.1051025,-0.8884239,1.0536127,1.8813288
1570726854,1.8454132,-9.107239,-1.2950745,-2.0510864,0.49528503,-1.2808685,0.114430904,-0.29156494,1.2125969
1570726854,-1.4250641,-7.1858826,-1.9690399,-1.601532,-0.04800415,-1.4534454,-2.9096663,1.0171633,1.762718
1570726854,-1.9601746,-7.15596,-1.9594574,-1.7464142,-0.4197693,-1.3554382,-4.6187806,0.86630154,1.5150545
1570726854,0.113204956,-6.4855804,-1.4171753,-1.808197,-0.2397461,-1.1029816,-2.574531,1.1139598,2.7290535
1570726854,0.9032898,-5.6859283,-1.5799866,-1.4172516,-0.06291199,-1.1413269,-1.6414258,1.7141819,3.0598006
1570726854,1.0852509,-4.407425,-1.0029755,-1.2191162,-0.7159271,-0.9868622,-1.8140996,2.297977,3.6879916
1570726854,-0.17529297,-2.5638885,-1.1119232,-0.8260193,-1.2975616,-0.6353302,-3.0591888,4.190012,4.0743103
1570726854,-0.23275757,-2.3124847,-2.7052612,-0.15383911,-0.9790344,-0.32000732,-3.0983305,4.6306405,2.7900095
1570726854,-0.6661072,-3.3982544,-3.895172,0.2743988,-1.052536,-0.062210083,-3.342991,3.3156366,1.5214272
1570726854,0.41726685,-2.9649048,-5.057556,0.6312561,-0.939621,0.2850647,-2.208499,3.8988547,0.4846015
1570726854,-0.40394592,-3.9489288,-11.196289,0.9114227,0.089416504,0.69944763,-2.5608592,3.2600617,-3.2372675
1570726854,3.6207123,-10.596436,-6.0355988,0.8080902,-0.14920044,0.9306183,0.5789728,-2.6086645,-0.57690287
1570726854,1.675415,-13.216888,-6.6161804,1.8595123,0.9022217,0.6834717,0.9726317,-5.631285,1.8017683
1570726854,-0.9115143,-10.328278,-2.080368,2.3069153,0.8926239,0.8006592,-3.081617,-3.2868915,3.0383759
1570726854,1.8657532,-9.757263,-0.5851898,1.7710876,0.5570679,0.7367401,-0.20008576,-1.589757,2.9969568
1570726854,3.1083527,-9.323914,-2.4550629,1.7700195,0.40260315,0.52793884,0.9868287,-1.0848484,1.0233121
1570726854,2.6211243,-8.916901,-0.82221985,1.7551117,0.5325775,0.50131226,1.2675709,-0.49231148,1.4891336
1570726854,6.713867E-4,-8.408127,-0.41999817,1.8573761,0.89901733,0.65045166,-1.540883,0.35136604,1.7652423
1570726854,6.713867E-4,-8.408127,-0.41999817,1.8573761,0.89901733,0.65045166,-1.540883,0.35136604,1.7652423
1570726854,6.713867E-4,-8.408127,-0.41999817,1.8573761,0.89901733,0.65045166,-1.540883,0.35136604,1.7652423
1570726854,6.713867E-4,-8.408127,-0.41999817,1.8573761,0.89901733,0.65045166,-1.540883,0.35136604,1.7652423
1570726854,6.713867E-4,-8.408127,-0.41999817,1.8573761,0.89901733,0.65045166,-1.540883,0.35136604,1.7652423
1570726854,6.713867E-4,-8.408127,-0.41999817,1.8573761,0.89901733,0.65045166,-1.540883,0.35136604,1.7652423
1570726854,6.713867E-4,-8.408127,-0.41999817,1.8573761,0.89901733,0.65045166,-1.540883,0.35136604,1.7652423
1570726854,6.713867E-4,-8.408127,-0.41999817,1.8573761,0.89901733,0.65045166,-1.540883,0.35136604,1.7652423
1570726854,6.713867E-4,-8.408127,-0.41999817,1.8573761,0.89901733,0.65045166,-1.540883,0.35136604,1.7652423
1570726854,6.713867E-4,-8.408127,-0.41999817,1.8573761,0.89901733,0.65045166,-1.540883,0.35136604,1.7652423
1570726854,6.713867E-4,-8.408127,-0.41999817,1.8573761,0.89901733,0.65045166,-1.540883,0.35136604,1.7652423
1570726854,0.11439514,-8.603256,0.05885315,1.8573761,0.89901733,0.65045166,-1.540883,0.35136604,1.7652423
1570726854,0.63394165,-12.594391,0.26953125,0.40008545,0.6390991,0.37135315,0.52613,-3.390685,-1.250245
1570726854,0.65190125,-13.828598,1.1470184,0.33511353,0.5496216,0.3404541,0.6153728,-4.5030622,-0.085048676
1570726854,0.6399231,-14.910782,-0.9646759,-0.23587036,0.068115234,0.18173218,0.8413295,-5.787278,-2.1459846
1570726855,1.0948334,-14.434341,-3.4618225,-1.0827484,-0.38356018,0.036849976,1.1501638,-6.2932863,-3.9490938
1570726855,2.8018951,-11.593613,-5.5447845,-2.0585327,-0.6424103,-0.30296326,2.7077146,-2.6660862,-6.1920066
1570726855,2.6773987,-12.132309,-5.842865,-2.6241913,0.30673218,-0.7588959,3.083859,-2.4601889,-5.6377273
1570726855,0.6542969,-12.127518,-2.2707062,-2.745636,1.5232697,-0.9378662,0.5146511,-3.3348093,-2.5656857
1570726855,0.5633087,-11.786346,1.5600128,-2.5517578,1.3709259,-0.96128845,-0.12088716,-2.75807,2.5421062
1570726855,0.7153473,-11.290741,3.2180023,-2.1618652,1.0715942,-1.2350616,-0.26972258,-2.6652718,5.0267477
1570726855,0.176651,-8.475159,-0.29908752,-2.0393677,0.7924957,-1.5557098,-0.78481436,-0.31171417,3.02483
1570726855,-1.6704712,-6.34552,-0.6641998,-2.4377747,-0.37290955,-1.5258789,-3.2781246,2.001133,2.1492646
1570726855,-0.9187012,-6.3826294,-0.5564575,-2.1288452,-0.60087585,-1.2169647,-3.3616858,1.9124136,3.3316681
1570726855,-0.27824402,-6.562195,-1.9558716,-2.0553436,-0.39953613,-1.1242828,-2.4018683,1.2710905,1.9558382
1570726855,-0.16212463,-6.1384277,-1.249588,-2.093689,-0.31750488,-0.8760681,-2.6423566,1.3541288,3.3324203
1570726855,1.8047028,-4.8359833,-1.0173492,-1.6984711,-0.22377014,-0.82388306,-0.9458778,2.1064272,4.0025334
1570726855,2.477478,-4.5893707,-0.9107971,-1.3820953,-0.85972595,-0.8153534,0.078363895,2.3702407,4.6110992
1570726855,-0.03883362,-4.0399017,-1.3716888,-0.73228455,-1.2911682,-0.7834015,-2.4725528,2.4161773,4.4320006
1570726855,-0.9426422,-2.803299,-2.423935,-0.18792725,-1.1420288,-0.48405457,-3.4334052,3.504784,3.5069938
1570726855,-0.8456726,-1.5631104,-4.5607605,0.42140198,-0.85546875,-0.050491333,-3.1719234,4.6514225,1.5522332
1570726855,-0.7918091,-1.4457855,-5.9086914,1.1468506,0.051071167,0.58439636,-3.0507798,5.2977443,0.07068205
1570726855,2.4020538,-6.9404755,-14.071732,0.68878174,1.1259155,0.95191956,-0.6063051,0.99849796,-13.683868
1570726855,5.939499,-8.446442,0.8190155,2.3910675,1.5488281,0.65364075,4.843281,-1.2026658,8.047508
1570726855,-2.4390106,-16.586716,0.92315674,2.0107727,1.1749268,0.87416077,-3.4576576,-9.034446,3.761425
1570726855,2.2895355,-9.910492,-2.1725464,1.9457855,0.3919525,0.97109985,0.18058372,-2.8304348,1.256644
1570726855,-1.0791016,-7.403763,-2.874054,1.6294098,1.0843811,1.4749603,-2.4823284,0.5673742,0.26712203
1570726855,-0.42788696,-8.702621,-0.6354675,1.3833313,0.55067444,2.2110596,-2.1824007,0.025191307,2.3760054
1570726855,2.0369415,-12.328629,0.3102417,1.3929138,-0.5241699,1.4909363,0.9602342,-3.6172018,2.9719298
1570726855,2.853363,-10.329483,-0.87249756,1.7124939,-0.857605,0.9412689,2.08418,-1.9629116,1.5753748
1570726855,2.8414001,-8.590088,-1.285492,1.6847992,-0.041610718,0.5961151,2.6260076,0.08740902,0.40881062
1570726855,1.7424622,-8.122025,-1.3405609,1.4877319,0.159729,0.16468811,1.6302531,0.7782917,-0.035123587
1570726855,-0.28782654,-8.445236,-2.1234589,1.3279419,-0.061843872,0.020874023,-0.518948,0.42759705,-1.0414217
1570726855,-0.98812866,-7.719803,-1.0089722,1.1606903,-0.45599365,0.08798218,-1.1894248,1.2862406,-0.24832535
1570726855,-0.76187134,-7.8658447,-1.1873322,1.0818634,-0.66477966,0.17854309,-0.98658705,1.1122379,-0.8706101
1570726855,3.3405914,-7.910141,-0.13269043,1.4994507,0.15866089,-0.15275574,2.3666186,1.1590519,0.18135913
1570726855,-0.9546051,-8.165115,-1.404007,1.5079651,1.0566864,-0.11973572,-0.31798124,0.70566845,-1.304767
1570726855,-0.5320282,-8.278839,-0.93833923,0.49064636,-0.55293274,0.6291504,-1.4309545,0.89995,-1.8882823
1570726855,2.1351013,-8.828308,1.121872,0.56307983,0.33442688,0.4938507,2.2426138,0.23824501,0.3571794
1570726856,0.69859314,-10.014633,2.3524933,0.81448364,0.04574585,0.5226135,0.88093746,-0.86333275,1.4661324
1570726856,-0.018478394,-12.764374,0.0037841797,0.8581543,-0.2674408,0.7622986,0.23853156,-3.3979435,-0.7900946
1570726856,0.99546814,-13.744797,-0.8066559,0.5194092,-0.28874207,0.7591095,0.64724064,-4.8185587,-1.8849212
1570726856,2.4367828,-15.964233,-2.0755768,-0.17088318,0.14161682,0.3319397,3.234256,-7.054371,-3.423043
1570726856,-0.25071716,-15.098724,-4.2327576,-0.9538574,0.19914246,-0.070739746,0.48858726,-6.1787806,-4.9894314
1570726856,0.43162537,-12.879303,-7.5211945,-2.0382996,0.47824097,-0.39883423,0.68168366,-4.1090975,-7.9447403
1570726856,1.3067169,-11.065689,-5.4729614,-3.1983643,1.3197937,-0.7674103,1.6003025,-1.9665871,-6.0659246
1570726856,0.7979431,-12.400467,-0.8868561,-3.3240662,1.977066,-0.8430481,0.8151435,-2.9261189,-0.72046506
1570726856,2.3290405,-12.068863,2.0448456,-2.7072906,1.4220734,-1.2031097,2.0531924,-3.3321552,3.5872257
1570726856,-0.7858124,-9.461578,3.5280457,-2.0872955,0.16505432,-1.3703613,-1.0325233,-0.90617085,6.2434435
1570726856,0.33825684,-8.088501,0.3282013,-1.6505432,0.17570496,-1.4257507,-0.8086214,0.39500523,4.8199425
1570726856,-0.5092926,-7.894577,-4.506897,-2.0159302,0.40153503,-1.5216217,-1.6449842,0.6970625,-0.88741136
1570726856,-0.61582947,-7.7784576,0.78549194,-2.1938324,-1.5084839,-1.5919342,-2.5461683,0.23570156,3.8265452
1570726856,0.6961975,-6.495163,-3.7383575,-2.0681305,-0.31217957,-1.4949951,-0.82798207,1.1438551,1.9115763
1570726856,-2.0595398,-4.9006195,-1.0927582,-2.080902,-0.2685089,-1.3383942,-4.150338,2.2190995,3.6982093
1570726856,0.17544556,-4.480438,-0.8126373,-1.4673157,-0.011779785,-1.0944519,-2.5927842,2.607757,4.423387
1570726856,1.8070984,-4.9006195,-1.1669769,-1.2958069,-0.60087585,-1.0752716,-0.73369765,1.781033,4.6740904
1570726856,0.41845703,-3.771759,-1.0855865,-0.77809143,-1.0599976,-0.9549103,-2.1299074,2.371522,4.675988
1570726856,-0.5823059,-1.8791351,-1.7715149,0.12098694,-0.7734375,-0.57780457,-3.190524,4.1998215,4.1238484
1570726856,-0.6325836,-1.0890503,-2.9207306,0.99131775,-0.36758423,-0.056884766,-3.2708874,5.2940474,2.804771
1570726856,-0.13339233,-2.07547,-3.9251099,1.6581726,-0.03201294,0.5066376,-2.6717317,4.562843,2.4167886
1570726856,2.798294,-6.91774,-23.070343,1.0807953,1.0289764,0.86883545,-0.95493555,1.9957213,-12.872941
1570726856,7.3017883,-14.9431,4.4593964,2.460312,1.8535004,0.42781067,6.203042,-7.3123827,5.585369
1570726856,-0.83969116,-18.590668,-5.3436737,1.1915894,0.64016724,0.4150238,-2.3642488,-12.2133045,-2.67098
1570726856,-0.83969116,-18.590668,-5.3436737,1.1915894,0.64016724,0.4150238,-2.3642488,-12.2133045,-2.67098
1570726864,-0.83969116,-18.590668,-5.3436737,1.1915894,0.64016724,0.4150238,-2.3642488,-12.2133045,-2.67098
1570726864,-0.83969116,-18.590668,-5.3436737,1.1915894,0.64016724,0.4150238,-2.3642488,-12.2133045,-2.67098
1570726864,-0.83969116,-18.590668,-5.3436737,1.1915894,0.64016724,0.4150238,-2.3642488,-12.2133045,-2.67098
1570726864,-0.83969116,-18.590668,-5.3436737,1.1915894,0.64016724,0.4150238,-2.3642488,-12.2133045,-2.67098
1570726864,-0.83969116,-18.590668,-5.3436737,1.1915894,0.64016724,0.4150238,-2.3642488,-12.2133045,-2.67098
1570726864,-0.83969116,-18.590668,-5.3436737,1.1915894,0.64016724,0.4150238,-2.3642488,-12.2133045,-2.67098
1570726864,-0.83969116,-18.590668,-5.3436737,1.1915894,0.64016724,0.4150238,-2.3642488,-12.2133045,-2.67098
1570726864,-0.83969116,-18.590668,-5.3436737,1.1915894,0.64016724,0.4150238,-2.3642488,-12.2133045,-2.67098
1570726864,-0.83969116,-18.590668,-5.3436737,1.1915894,0.64016724,0.4150238,-2.3642488,-12.2133045,-2.67098
1570726864,-0.83969116,-18.590668,-5.3436737,1.1915894,0.64016724,0.4150238,-2.3642488,-12.2133045,-2.67098
1570726864,-0.83969116,-18.590668,-5.3436737,1.1915894,0.64016724,0.4150238,-2.3642488,-12.2133045,-2.67098
1570726864,-0.83969116,-18.590668,-5.3436737,1.1915894,0.64016724,0.4150238,-2.3642488,-12.2133045,-2.67098
1570726864,-0.83969116,-18.590668,-5.3436737,1.1915894,0.64016724,0.4150238,-2.3642488,-12.2133045,-2.67098
1570726864,-0.83969116,-18.590668,-5.3436737,1.1915894,0.64016724,0.4150238,-2.3642488,-12.2133045,-2.67098
1570726864,-0.83969116,-18.590668,-5.3436737,1.1915894,0.64016724,0.4150238,-2.3642488,-12.2133045,-2.67098
1570726864,-0.83969116,-18.590668,-5.3436737,1.1915894,0.64016724,0.4150238,-2.3642488,-12.2133045,-2.67098
1570726864,-0.83969116,-18.590668,-5.3436737,1.1915894,0.64016724,0.4150238,-2.3642488,-12.2133045,-2.67098
1570726864,-0.83969116,-18.590668,-5.3436737,1.1915894,0.64016724,0.4150238,-2.3642488,-12.2133045,-2.67098
1570726864,-0.83969116,-18.590668,-5.3436737,1.1915894,0.64016724,0.4150238,-2.3642488,-12.2133045,-2.67098
1570726864,-0.83969116,-18.590668,-5.3436737,1.1915894,0.64016724,0.4150238,-2.3642488,-12.2133045,-2.67098
1570726864,-0.83969116,-18.590668,-5.3436737,1.1915894,0.64016724,0.4150238,-2.3642488,-12.2133045,-2.67098
1570726864,-0.83969116,-18.590668,-5.3436737,1.1915894,0.64016724,0.4150238,-2.3642488,-12.2133045,-2.67098
1570726864,-0.83969116,-18.590668,-5.3436737,1.1915894,0.64016724,0.4150238,-2.3642488,-12.2133045,-2.67098
1570726864,-0.83969116,-18.590668,-5.3436737,1.1915894,0.64016724,0.4150238,-2.3642488,-12.2133045,-2.67098
1570726864,-0.83969116,-18.590668,-5.3436737,1.1915894,0.64016724,0.4150238,-2.3642488,-12.2133045,-2.67098
1570726864,-0.83969116,-18.590668,-5.3436737,1.1915894,0.64016724,0.4150238,-2.3642488,-12.2133045,-2.67098
1570726864,-0.83969116,-18.590668,-5.3436737,1.1915894,0.64016724,0.4150238,-2.3642488,-12.2133045,-2.67098
1570726864,-0.83969116,-18.590668,-5.3436737,1.1915894,0.64016724,0.4150238,-2.3642488,-12.2133045,-2.67098
1570726864,-0.83969116,-18.590668,-5.3436737,1.1915894,0.64016724,0.4150238,-2.3642488,-12.2133045,-2.67098
1570726864,-0.83969116,-18.590668,-5.3436737,1.1915894,0.64016724,0.4150238,-2.3642488,-12.2133045,-2.67098
1570726864,-0.83969116,-18.590668,-5.3436737,1.1915894,0.64016724,0.4150238,-2.3642488,-12.2133045,-2.67098
1570726864,-0.83969116,-18.590668,-5.3436737,1.1915894,0.64016724,0.4150238,-2.3642488,-12.2133045,-2.67098
1570726864,-0.83969116,-18.590668,-5.3436737,1.1915894,0.64016724,0.4150238,-2.3642488,-12.2133045,-2.67098
1570726864,-0.83969116,-18.590668,-5.3436737,1.1915894,0.64016724,0.4150238,-2.3642488,-12.2133045,-2.67098
1570726864,-0.83969116,-18.590668,-5.3436737,1.1915894,0.64016724,0.4150238,-2.3642488,-12.2133045,-2.67098
1570726864,-0.83969116,-18.590668,-5.3436737,1.1915894,0.64016724,0.4150238,-2.3642488,-12.2133045,-2.67098
1570726864,-0.83969116,-18.590668,-5.3436737,1.1915894,0.64016724,0.4150238,-2.3642488,-12.2133045,-2.67098
1570726864,-0.83969116,-18.590668,-5.3436737,1.1915894,0.64016724,0.4150238,-2.3642488,-12.2133045,-2.67098
1570726864,-0.83969116,-18.590668,-5.3436737,1.1915894,0.64016724,0.4150238,-2.3642488,-12.2133045,-2.67098
1570726864,-0.83969116,-18.590668,-5.3436737,1.1915894,0.64016724,0.4150238,-2.3642488,-12.2133045,-2.67098
1570726864,-0.83969116,-18.590668,-5.3436737,1.1915894,0.64016724,0.4150238,-2.3642488,-12.2133045,-2.67098
1570726864,-0.83969116,-18.590668,-5.3436737,1.1915894,0.64016724,0.4150238,-2.3642488,-12.2133045,-2.67098
1570726864,-0.83969116,-18.590668,-5.3436737,1.1915894,0.64016724,0.4150238,-2.3642488,-12.2133045,-2.67098
1570726864,-0.83969116,-18.590668,-5.3436737,1.1915894,0.64016724,0.4150238,-2.3642488,-12.2133045,-2.67098
1570726864,-0.83969116,-18.590668,-5.3436737,1.1915894,0.64016724,0.4150238,-2.3642488,-12.2133045,-2.67098
1570726864,-0.83969116,-18.590668,-5.3436737,1.1915894,0.64016724,0.4150238,-2.3642488,-12.2133045,-2.67098
1570726864,-0.83969116,-18.590668,-5.3436737,1.1915894,0.64016724,0.4150238,-2.3642488,-12.2133045,-2.67098
1570726864,-0.83969116,-18.590668,-5.3436737,1.1915894,0.64016724,0.4150238,-2.3642488,-12.2133045,-2.67098
1570726864,-0.83969116,-18.590668,-5.3436737,1.1915894,0.64016724,0.4150238,-2.3642488,-12.2133045,-2.67098
1570726864,-0.83969116,-18.590668,-5.3436737,1.1915894,0.64016724,0.4150238,-2.3642488,-12.2133045,-2.67098
1570726864,-0.83969116,-18.590668,-5.3436737,1.1915894,0.64016724,0.4150238,-2.3642488,-12.2133045,-2.67098
1570726864,-0.83969116,-18.590668,-5.3436737,1.1915894,0.64016724,0.4150238,-2.3642488,-12.2133045,-2.67098
1570726864,-0.83969116,-18.590668,-5.3436737,1.1915894,0.64016724,0.4150238,-2.3642488,-12.2133045,-2.67098
1570726864,-0.83969116,-18.590668,-5.3436737,1.1915894,0.64016724,0.4150238,-2.3642488,-12.2133045,-2.67098
1570726864,-0.83969116,-18.590668,-5.3436737,1.1915894,0.64016724,0.4150238,-2.3642488,-12.2133045,-2.67098
1570726864,-0.83969116,-18.590668,-5.3436737,1.1915894,0.64016724,0.4150238,-2.3642488,-12.2133045,-2.67098
1570726864,-0.83969116,-18.590668,-5.3436737,1.1915894,0.64016724,0.4150238,-2.3642488,-12.2133045,-2.67098
1570726864,-0.83969116,-18.590668,-5.3436737,1.1915894,0.64016724,0.4150238,-2.3642488,-12.2133045,-2.67098
1570726864,-0.83969116,-18.590668,-5.3436737,1.1915894,0.64016724,0.4150238,-2.3642488,-12.2133045,-2.67098
1570726864,-0.83969116,-18.590668,-5.3436737,1.1915894,0.64016724,0.4150238,-2.3642488,-12.2133045,-2.67098
1570726864,-0.83969116,-18.590668,-5.3436737,1.1915894,0.64016724,0.4150238,-2.3642488,-12.2133045,-2.67098
1570726864,-0.83969116,-18.590668,-5.3436737,1.1915894,0.64016724,0.4150238,-2.3642488,-12.2133045,-2.67098
1570726864,-0.83969116,-18.590668,-5.3436737,1.1915894,0.64016724,0.4150238,-2.3642488,-12.2133045,-2.67098
1570726864,-0.83969116,-18.590668,-5.3436737,1.1915894,0.64016724,0.4150238,-2.3642488,-12.2133045,-2.67098
1570726864,-0.83969116,-18.590668,-5.3436737,1.1915894,0.64016724,0.4150238,-2.3642488,-12.2133045,-2.67098
1570726864,-0.83969116,-18.590668,-5.3436737,1.1915894,0.64016724,0.4150238,-2.3642488,-12.2133045,-2.67098
1570726864,-0.83969116,-18.590668,-5.3436737,1.1915894,0.64016724,0.4150238,-2.3642488,-12.2133045,-2.67098
1570726864,-0.83969116,-18.590668,-5.3436737,1.1915894,0.64016724,0.4150238,-2.3642488,-12.2133045,-2.67098
1570726864,-0.83969116,-18.590668,-5.3436737,1.1915894,0.64016724,0.4150238,-2.3642488,-12.2133045,-2.67098
1570726864,-0.83969116,-18.590668,-5.3436737,1.1915894,0.64016724,0.4150238,-2.3642488,-12.2133045,-2.67098
1570726864,-0.83969116,-18.590668,-5.3436737,1.1915894,0.64016724,0.4150238,-2.3642488,-12.2133045,-2.67098
1570726864,-0.83969116,-18.590668,-5.3436737,1.1915894,0.64016724,0.4150238,-2.3642488,-12.2133045,-2.67098
1570726864,-0.83969116,-18.590668,-5.3436737,1.1915894,0.64016724,0.4150238,-2.3642488,-12.2133045,-2.67098
1570726864,-0.83969116,-18.590668,-5.3436737,1.1915894,0.64016724,0.4150238,-2.3642488,-12.2133045,-2.67098
1570726864,-0.83969116,-18.590668,-5.3436737,1.1915894,0.64016724,0.4150238,-2.3642488,-12.2133045,-2.67098
1570726864,-0.83969116,-18.590668,-5.3436737,1.1915894,0.64016724,0.4150238,-2.3642488,-12.2133045,-2.67098
1570726864,-0.83969116,-18.590668,-5.3436737,1.1915894,0.64016724,0.4150238,-2.3642488,-12.2133045,-2.67098
1570726864,-0.83969116,-18.590668,-5.3436737,1.1915894,0.64016724,0.4150238,-2.3642488,-12.2133045,-2.67098
1570726864,-0.83969116,-18.590668,-5.3436737,1.1915894,0.64016724,0.4150238,-2.3642488,-12.2133045,-2.67098
1570726864,-0.83969116,-18.590668,-5.3436737,1.1915894,0.64016724,0.4150238,-2.3642488,-12.2133045,-2.67098
1570726864,-0.83969116,-18.590668,-5.3436737,1.1915894,0.64016724,0.4150238,-2.3642488,-12.2133045,-2.67098
1570726864,-0.83969116,-18.590668,-5.3436737,1.1915894,0.64016724,0.4150238,-2.3642488,-12.2133045,-2.67098
1570726864,-0.83969116,-18.590668,-5.3436737,1.1915894,0.64016724,0.4150238,-2.3642488,-12.2133045,-2.67098
1570726864,-0.83969116,-18.590668,-5.3436737,1.1915894,0.64016724,0.4150238,-2.3642488,-12.2133045,-2.67098
1570726864,-0.83969116,-18.590668,-5.3436737,1.1915894,0.64016724,0.4150238,-2.3642488,-12.2133045,-2.67098
1570726864,-0.83969116,-18.590668,-5.3436737,1.1915894,0.64016724,0.4150238,-2.3642488,-12.2133045,-2.67098
1570726864,-0.83969116,-18.590668,-5.3436737,1.1915894,0.64016724,0.4150238,-2.3642488,-12.2133045,-2.67098
1570726864,-0.83969116,-18.590668,-5.3436737,1.1915894,0.64016724,0.4150238,-2.3642488,-12.2133045,-2.67098
1570726864,-0.83969116,-18.590668,-5.3436737,1.1915894,0.64016724,0.4150238,-2.3642488,-12.2133045,-2.67098
1570726864,-0.83969116,-18.590668,-5.3436737,1.1915894,0.64016724,0.4150238,-2.3642488,-12.2133045,-2.67098
1570726864,-0.83969116,-18.590668,-5.3436737,1.1915894,0.64016724,0.4150238,-2.3642488,-12.2133045,-2.67098
1570726864,-0.83969116,-18.590668,-5.3436737,1.1915894,0.64016724,0.4150238,-2.3642488,-12.2133045,-2.67098
1570726864,-0.83969116,-18.590668,-5.3436737,1.1915894,0.64016724,0.4150238,-2.3642488,-12.2133045,-2.67098
1570726864,-0.83969116,-18.590668,-5.3436737,1.1915894,0.64016724,0.4150238,-2.3642488,-12.2133045,-2.67098
1570726864,-0.83969116,-18.590668,-5.3436737,1.1915894,0.64016724,0.4150238,-2.3642488,-12.2133045,-2.67098
1570726864,-0.83969116,-18.590668,-5.3436737,1.1915894,0.64016724,0.4150238,-2.3642488,-12.2133045,-2.67098
1570726864,-0.83969116,-18.590668,-5.3436737,1.1915894,0.64016724,0.4150238,-2.3642488,-12.2133045,-2.67098
1570726864,-0.83969116,-18.590668,-5.3436737,1.1915894,0.64016724,0.4150238,-2.3642488,-12.2133045,-2.67098
1570726864,-0.83969116,-18.590668,-5.3436737,1.1915894,0.64016724,0.4150238,-2.3642488,-12.2133045,-2.67098
1570726864,-0.83969116,-18.590668,-5.3436737,1.1915894,0.64016724,0.4150238,-2.3642488,-12.2133045,-2.67098
1570726864,-0.83969116,-18.590668,-5.3436737,1.1915894,0.64016724,0.4150238,-2.3642488,-12.2133045,-2.67098
1570726864,-0.83969116,-18.590668,-5.3436737,1.1915894,0.64016724,0.4150238,-2.3642488,-12.2133045,-2.67098
1570726864,-0.83969116,-18.590668,-5.3436737,1.1915894,0.64016724,0.4150238,-2.3642488,-12.2133045,-2.67098
1570726864,-0.83969116,-18.590668,-5.3436737,1.1915894,0.64016724,0.4150238,-2.3642488,-12.2133045,-2.67098
1570726864,-0.83969116,-18.590668,-5.3436737,1.1915894,0.64016724,0.4150238,-2.3642488,-12.2133045,-2.67098
1570726864,-0.83969116,-18.590668,-5.3436737,1.1915894,0.64016724,0.4150238,-2.3642488,-12.2133045,-2.67098
1570726864,-0.83969116,-18.590668,-5.3436737,1.1915894,0.64016724,0.4150238,-2.3642488,-12.2133045,-2.67098
1570726864,-0.83969116,-18.590668,-5.3436737,1.1915894,0.64016724,0.4150238,-2.3642488,-12.2133045,-2.67098
1570726864,-0.83969116,-18.590668,-5.3436737,1.1915894,0.64016724,0.4150238,-2.3642488,-12.2133045,-2.67098
1570726864,-0.83969116,-18.590668,-5.3436737,1.1915894,0.64016724,0.4150238,-2.3642488,-12.2133045,-2.67098
1570726864,-0.83969116,-18.590668,-5.3436737,1.1915894,0.64016724,0.4150238,-2.3642488,-12.2133045,-2.67098
1570726864,-0.83969116,-18.590668,-5.3436737,1.1915894,0.64016724,0.4150238,-2.3642488,-12.2133045,-2.67098
1570726864,-0.83969116,-18.590668,-5.3436737,1.1915894,0.64016724,0.4150238,-2.3642488,-12.2133045,-2.67098
1570726864,-0.83969116,-18.590668,-5.3436737,1.1915894,0.64016724,0.4150238,-2.3642488,-12.2133045,-2.67098
1570726864,-0.83969116,-18.590668,-5.3436737,1.1915894,0.64016724,0.4150238,-2.3642488,-12.2133045,-2.67098
1570726864,-0.83969116,-18.590668,-5.3436737,1.1915894,0.64016724,0.4150238,-2.3642488,-12.2133045,-2.67098
1570726864,-0.83969116,-18.590668,-5.3436737,1.1915894,0.64016724,0.4150238,-2.3642488,-12.2133045,-2.67098
1570726864,-0.83969116,-18.590668,-5.3436737,1.1915894,0.64016724,0.4150238,-2.3642488,-12.2133045,-2.67098
1570726864,-0.83969116,-18.590668,-5.3436737,1.1915894,0.64016724,0.4150238,-2.3642488,-12.2133045,-2.67098
1570726864,-0.83969116,-18.590668,-5.3436737,1.1915894,0.64016724,0.4150238,-2.3642488,-12.2133045,-2.67098
1570726864,-0.83969116,-18.590668,-5.3436737,1.1915894,0.64016724,0.4150238,-2.3642488,-12.2133045,-2.67098
1570726864,-0.83969116,-18.590668,-5.3436737,1.1915894,0.64016724,0.4150238,-2.3642488,-12.2133045,-2.67098
1570726864,-0.83969116,-18.590668,-5.3436737,1.1915894,0.64016724,0.4150238,-2.3642488,-12.2133045,-2.67098
1570726864,-0.83969116,-18.590668,-5.3436737,1.1915894,0.64016724,0.4150238,-2.3642488,-12.2133045,-2.67098
1570726864,-0.83969116,-18.590668,-5.3436737,1.1915894,0.64016724,0.4150238,-2.3642488,-12.2133045,-2.67098
1570726864,-0.83969116,-18.590668,-5.3436737,1.1915894,0.64016724,0.4150238,-2.3642488,-12.2133045,-2.67098
1570726864,-0.83969116,-18.590668,-5.3436737,1.1915894,0.64016724,0.4150238,-2.3642488,-12.2133045,-2.67098
1570726864,-0.83969116,-18.590668,-5.3436737,1.1915894,0.64016724,0.4150238,-2.3642488,-12.2133045,-2.67098
1570726864,-0.83969116,-18.590668,-5.3436737,1.1915894,0.64016724,0.4150238,-2.3642488,-12.2133045,-2.67098
1570726864,-0.83969116,-18.590668,-5.3436737,1.1915894,0.64016724,0.4150238,-2.3642488,-12.2133045,-2.67098
1570726864,-0.83969116,-18.590668,-5.3436737,1.1915894,0.64016724,0.4150238,-2.3642488,-12.2133045,-2.67098
1570726864,-0.83969116,-18.590668,-5.3436737,1.1915894,0.64016724,0.4150238,-2.3642488,-12.2133045,-2.67098
1570726864,-0.83969116,-18.590668,-5.3436737,1.1915894,0.64016724,0.4150238,-2.3642488,-12.2133045,-2.67098
1570726864,-0.83969116,-18.590668,-5.3436737,1.1915894,0.64016724,0.4150238,-2.3642488,-12.2133045,-2.67098
1570726864,-0.83969116,-18.590668,-5.3436737,1.1915894,0.64016724,0.4150238,-2.3642488,-12.2133045,-2.67098
1570726864,-0.83969116,-18.590668,-5.3436737,1.1915894,0.64016724,0.4150238,-2.3642488,-12.2133045,-2.67098
1570726864,-0.83969116,-18.590668,-5.3436737,1.1915894,0.64016724,0.4150238,-2.3642488,-12.2133045,-2.67098
1570726864,-0.83969116,-18.590668,-5.3436737,1.1915894,0.64016724,0.4150238,-2.3642488,-12.2133045,-2.67098
1570726864,-0.83969116,-18.590668,-5.3436737,1.1915894,0.64016724,0.4150238,-2.3642488,-12.2133045,-2.67098
1570726864,-0.83969116,-18.590668,-5.3436737,1.1915894,0.64016724,0.4150238,-2.3642488,-12.2133045,-2.67098
1570726864,-0.83969116,-18.590668,-5.3436737,1.1915894,0.64016724,0.4150238,-2.3642488,-12.2133045,-2.67098
1570726864,-0.83969116,-18.590668,-5.3436737,1.1915894,0.64016724,0.4150238,-2.3642488,-12.2133045,-2.67098
1570726864,-0.83969116,-18.590668,-5.3436737,1.1915894,0.64016724,0.4150238,-2.3642488,-12.2133045,-2.67098
1570726864,-0.83969116,-18.590668,-5.3436737,1.1915894,0.64016724,0.4150238,-2.3642488,-12.2133045,-2.67098
1570726864,-0.83969116,-18.590668,-5.3436737,1.1915894,0.64016724,0.4150238,-2.3642488,-12.2133045,-2.67098
1570726864,-0.83969116,-18.590668,-5.3436737,1.1915894,0.64016724,0.4150238,-2.3642488,-12.2133045,-2.67098
1570726864,-0.83969116,-18.590668,-5.3436737,1.1915894,0.64016724,0.4150238,-2.3642488,-12.2133045,-2.67098
1570726864,-0.83969116,-18.590668,-5.3436737,1.1915894,0.64016724,0.4150238,-2.3642488,-12.2133045,-2.67098
1570726864,-0.83969116,-18.590668,-5.3436737,1.1915894,0.64016724,0.4150238,-2.3642488,-12.2133045,-2.67098
1570726864,-0.83969116,-18.590668,-5.3436737,1.1915894,0.64016724,0.4150238,-2.3642488,-12.2133045,-2.67098
1570726864,-0.83969116,-18.590668,-5.3436737,1.1915894,0.64016724,0.4150238,-2.3642488,-12.2133045,-2.67098
1570726864,-0.83969116,-18.590668,-5.3436737,1.1915894,0.64016724,0.4150238,-2.3642488,-12.2133045,-2.67098
1570726864,-0.83969116,-18.590668,-5.3436737,1.1915894,0.64016724,0.4150238,-2.3642488,-12.2133045,-2.67098
1570726864,-0.83969116,-18.590668,-5.3436737,1.1915894,0.64016724,0.4150238,-2.3642488,-12.2133045,-2.67098
1570726864,-0.83969116,-18.590668,-5.3436737,1.1915894,0.64016724,0.4150238,-2.3642488,-12.2133045,-2.67098
1570726864,-0.83969116,-18.590668,-5.3436737,1.1915894,0.64016724,0.4150238,-2.3642488,-12.2133045,-2.67098
1570726864,-0.83969116,-18.590668,-5.3436737,1.1915894,0.64016724,0.4150238,-2.3642488,-12.2133045,-2.67098
1570726864,-0.83969116,-18.590668,-5.3436737,1.1915894,0.64016724,0.4150238,-2.3642488,-12.2133045,-2.67098
1570726864,-0.83969116,-18.590668,-5.3436737,1.1915894,0.64016724,0.4150238,-2.3642488,-12.2133045,-2.67098
1570726864,-0.83969116,-18.590668,-5.3436737,1.1915894,0.64016724,0.4150238,-2.3642488,-12.2133045,-2.67098
1570726864,-0.83969116,-18.590668,-5.3436737,1.1915894,0.64016724,0.4150238,-2.3642488,-12.2133045,-2.67098
1570726864,-0.83969116,-18.590668,-5.3436737,1.1915894,0.64016724,0.4150238,-2.3642488,-12.2133045,-2.67098
1570726864,-0.83969116,-18.590668,-5.3436737,1.1915894,0.64016724,0.4150238,-2.3642488,-12.2133045,-2.67098
1570726864,-0.83969116,-18.590668,-5.3436737,1.1915894,0.64016724,0.4150238,-2.3642488,-12.2133045,-2.67098
1570726864,-0.83969116,-18.590668,-5.3436737,1.1915894,0.64016724,0.4150238,-2.3642488,-12.2133045,-2.67098
1570726864,-0.83969116,-18.590668,-5.3436737,1.1915894,0.64016724,0.4150238,-2.3642488,-12.2133045,-2.67098
1570726864,-0.83969116,-18.590668,-5.3436737,1.1915894,0.64016724,0.4150238,-2.3642488,-12.2133045,-2.67098
1570726864,-0.83969116,-18.590668,-5.3436737,1.1915894,0.64016724,0.4150238,-2.3642488,-12.2133045,-2.67098
1570726864,-0.83969116,-18.590668,-5.3436737,1.1915894,0.64016724,0.4150238,-2.3642488,-12.2133045,-2.67098
1570726864,-0.83969116,-18.590668,-5.3436737,1.1915894,0.64016724,0.4150238,-2.3642488,-12.2133045,-2.67098
1570726864,-0.83969116,-18.590668,-5.3436737,1.1915894,0.64016724,0.4150238,-2.3642488,-12.2133045,-2.67098
1570726864,-0.83969116,-18.590668,-5.3436737,1.1915894,0.64016724,0.4150238,-2.3642488,-12.2133045,-2.67098
1570726864,-0.83969116,-18.590668,-5.3436737,1.1915894,0.64016724,0.4150238,-2.3642488,-12.2133045,-2.67098
1570726864,-0.83969116,-18.590668,-5.3436737,1.1915894,0.64016724,0.4150238,-2.3642488,-12.2133045,-2.67098
1570726864,-0.83969116,-18.590668,-5.3436737,1.1915894,0.64016724,0.4150238,-2.3642488,-12.2133045,-2.67098
1570726864,-0.83969116,-18.590668,-5.3436737,1.1915894,0.64016724,0.4150238,-2.3642488,-12.2133045,-2.67098
1570726864,-0.83969116,-18.590668,-5.3436737,1.1915894,0.64016724,0.4150238,-2.3642488,-12.2133045,-2.67098
1570726864,-0.83969116,-18.590668,-5.3436737,1.1915894,0.64016724,0.4150238,-2.3642488,-12.2133045,-2.67098
1570726864,-0.83969116,-18.590668,-5.3436737,1.1915894,0.64016724,0.4150238,-2.3642488,-12.2133045,-2.67098
1570726864,-0.83969116,-18.590668,-5.3436737,1.1915894,0.64016724,0.4150238,-2.3642488,-12.2133045,-2.67098
1570726864,-0.83969116,-18.590668,-5.3436737,1.1915894,0.64016724,0.4150238,-2.3642488,-12.2133045,-2.67098
1570726864,-0.83969116,-18.590668,-5.3436737,1.1915894,0.64016724,0.4150238,-2.3642488,-12.2133045,-2.67098
1570726864,-0.83969116,-18.590668,-5.3436737,1.1915894,0.64016724,0.4150238,-2.3642488,-12.2133045,-2.67098
1570726864,-0.83969116,-18.590668,-5.3436737,1.1915894,0.64016724,0.4150238,-2.3642488,-12.2133045,-2.67098
1570726864,-0.83969116,-18.590668,-5.3436737,1.1915894,0.64016724,0.4150238,-2.3642488,-12.2133045,-2.67098
1570726864,-0.83969116,-18.590668,-5.3436737,1.1915894,0.64016724,0.4150238,-2.3642488,-12.2133045,-2.67098
1570726864,-0.83969116,-18.590668,-5.3436737,1.1915894,0.64016724,0.4150238,-2.3642488,-12.2133045,-2.67098
1570726864,-0.83969116,-18.590668,-5.3436737,1.1915894,0.64016724,0.4150238,-2.3642488,-12.2133045,-2.67098
1570726864,-0.83969116,-18.590668,-5.3436737,1.1915894,0.64016724,0.4150238,-2.3642488,-12.2133045,-2.67098
1570726864,-0.83969116,-18.590668,-5.3436737,1.1915894,0.64016724,0.4150238,-2.3642488,-12.2133045,-2.67098
1570726864,-0.83969116,-18.590668,-5.3436737,1.1915894,0.64016724,0.4150238,-2.3642488,-12.2133045,-2.67098
1570726864,-0.83969116,-18.590668,-5.3436737,1.1915894,0.64016724,0.4150238,-2.3642488,-12.2133045,-2.67098
1570726864,-0.83969116,-18.590668,-5.3436737,1.1915894,0.64016724,0.4150238,-2.3642488,-12.2133045,-2.67098
1570726864,-0.83969116,-18.590668,-5.3436737,1.1915894,0.64016724,0.4150238,-2.3642488,-12.2133045,-2.67098
1570726864,-0.83969116,-18.590668,-5.3436737,1.1915894,0.64016724,0.4150238,-2.3642488,-12.2133045,-2.67098
1570726864,-0.83969116,-18.590668,-5.3436737,1.1915894,0.64016724,0.4150238,-2.3642488,-12.2133045,-2.67098
1570726864,-0.83969116,-18.590668,-5.3436737,1.1915894,0.64016724,0.4150238,-2.3642488,-12.2133045,-2.67098
1570726864,-0.83969116,-18.590668,-5.3436737,1.1915894,0.64016724,0.4150238,-2.3642488,-12.2133045,-2.67098
1570726864,-0.83969116,-18.590668,-5.3436737,1.1915894,0.64016724,0.4150238,-2.3642488,-12.2133045,-2.67098
1570726864,-0.83969116,-18.590668,-5.3436737,1.1915894,0.64016724,0.4150238,-2.3642488,-12.2133045,-2.67098
1570726864,-0.83969116,-18.590668,-5.3436737,1.1915894,0.64016724,0.4150238,-2.3642488,-12.2133045,-2.67098
1570726864,-0.83969116,-18.590668,-5.3436737,1.1915894,0.64016724,0.4150238,-2.3642488,-12.2133045,-2.67098
1570726864,-0.83969116,-18.590668,-5.3436737,1.1915894,0.64016724,0.4150238,-2.3642488,-12.2133045,-2.67098
1570726864,-0.83969116,-18.590668,-5.3436737,1.1915894,0.64016724,0.4150238,-2.3642488,-12.2133045,-2.67098
1570726864,-0.83969116,-18.590668,-5.3436737,1.1915894,0.64016724,0.4150238,-2.3642488,-12.2133045,-2.67098
1570726864,-0.83969116,-18.590668,-5.3436737,1.1915894,0.64016724,0.4150238,-2.3642488,-12.2133045,-2.67098
1570726864,-0.83969116,-18.590668,-5.3436737,1.1915894,0.64016724,0.4150238,-2.3642488,-12.2133045,-2.67098
1570726864,-0.83969116,-18.590668,-5.3436737,1.1915894,0.64016724,0.4150238,-2.3642488,-12.2133045,-2.67098
1570726864,-0.83969116,-18.590668,-5.3436737,1.1915894,0.64016724,0.4150238,-2.3642488,-12.2133045,-2.67098
1570726864,-0.83969116,-18.590668,-5.3436737,1.1915894,0.64016724,0.4150238,-2.3642488,-12.2133045,-2.67098
1570726864,-0.83969116,-18.590668,-5.3436737,1.1915894,0.64016724,0.4150238,-2.3642488,-12.2133045,-2.67098
1570726864,-0.83969116,-18.590668,-5.3436737,1.1915894,0.64016724,0.4150238,-2.3642488,-12.2133045,-2.67098
1570726864,-0.83969116,-18.590668,-5.3436737,1.1915894,0.64016724,0.4150238,-2.3642488,-12.2133045,-2.67098
1570726864,-0.83969116,-18.590668,-5.3436737,1.1915894,0.64016724,0.4150238,-2.3642488,-12.2133045,-2.67098
1570726864,-0.83969116,-18.590668,-5.3436737,1.1915894,0.64016724,0.4150238,-2.3642488,-12.2133045,-2.67098
1570726864,-0.83969116,-18.590668,-5.3436737,1.1915894,0.64016724,0.4150238,-2.3642488,-12.2133045,-2.67098
1570726864,-0.83969116,-18.590668,-5.3436737,1.1915894,0.64016724,0.4150238,-2.3642488,-12.2133045,-2.67098
1570726864,-0.83969116,-18.590668,-5.3436737,1.1915894,0.64016724,0.4150238,-2.3642488,-12.2133045,-2.67098
1570726864,-0.83969116,-18.590668,-5.3436737,1.1915894,0.64016724,0.4150238,-2.3642488,-12.2133045,-2.67098
1570726864,-0.83969116,-18.590668,-5.3436737,1.1915894,0.64016724,0.4150238,-2.3642488,-12.2133045,-2.67098
1570726864,-0.83969116,-18.590668,-5.3436737,1.1915894,0.64016724,0.4150238,-2.3642488,-12.2133045,-2.67098
1570726864,-0.83969116,-18.590668,-5.3436737,1.1915894,0.64016724,0.4150238,-2.3642488,-12.2133045,-2.67098
1570726864,-0.83969116,-18.590668,-5.3436737,1.1915894,0.64016724,0.4150238,-2.3642488,-12.2133045,-2.67098
1570726864,-0.83969116,-18.590668,-5.3436737,1.1915894,0.64016724,0.4150238,-2.3642488,-12.2133045,-2.67098
1570726864,-0.83969116,-18.590668,-5.3436737,1.1915894,0.64016724,0.4150238,-2.3642488,-12.2133045,-2.67098
1570726864,-0.83969116,-18.590668,-5.3436737,1.1915894,0.64016724,0.4150238,-2.3642488,-12.2133045,-2.67098
1570726864,-0.83969116,-18.590668,-5.3436737,1.1915894,0.64016724,0.4150238,-2.3642488,-12.2133045,-2.67098
1570726864,-0.83969116,-18.590668,-5.3436737,1.1915894,0.64016724,0.4150238,-2.3642488,-12.2133045,-2.67098
1570726864,-0.83969116,-18.590668,-5.3436737,1.1915894,0.64016724,0.4150238,-2.3642488,-12.2133045,-2.67098
1570726864,-0.83969116,-18.590668,-5.3436737,1.1915894,0.64016724,0.4150238,-2.3642488,-12.2133045,-2.67098
1570726864,-0.83969116,-18.590668,-5.3436737,1.1915894,0.64016724,0.4150238,-2.3642488,-12.2133045,-2.67098
1570726864,-0.83969116,-18.590668,-5.3436737,1.1915894,0.64016724,0.4150238,-2.3642488,-12.2133045,-2.67098
1570726864,-0.83969116,-18.590668,-5.3436737,1.1915894,0.64016724,0.4150238,-2.3642488,-12.2133045,-2.67098
1570726864,-0.83969116,-18.590668,-5.3436737,1.1915894,0.64016724,0.4150238,-2.3642488,-12.2133045,-2.67098
1570726864,-0.83969116,-18.590668,-5.3436737,1.1915894,0.64016724,0.4150238,-2.3642488,-12.2133045,-2.67098
1570726864,-0.83969116,-18.590668,-5.3436737,1.1915894,0.64016724,0.4150238,-2.3642488,-12.2133045,-2.67098
1570726864,-0.83969116,-18.590668,-5.3436737,1.1915894,0.64016724,0.4150238,-2.3642488,-12.2133045,-2.67098
1570726864,-0.83969116,-18.590668,-5.3436737,1.1915894,0.64016724,0.4150238,-2.3642488,-12.2133045,-2.67098
1570726864,-0.83969116,-18.590668,-5.3436737,1.1915894,0.64016724,0.4150238,-2.3642488,-12.2133045,-2.67098
1570726864,-0.83969116,-18.590668,-5.3436737,1.1915894,0.64016724,0.4150238,-2.3642488,-12.2133045,-2.67098
1570726864,-0.83969116,-18.590668,-5.3436737,1.1915894,0.64016724,0.4150238,-2.3642488,-12.2133045,-2.67098
1570726864,-0.83969116,-18.590668,-5.3436737,1.1915894,0.64016724,0.4150238,-2.3642488,-12.2133045,-2.67098
1570726864,-0.83969116,-18.590668,-5.3436737,1.1915894,0.64016724,0.4150238,-2.3642488,-12.2133045,-2.67098
1570726864,-0.83969116,-18.590668,-5.3436737,1.1915894,0.64016724,0.4150238,-2.3642488,-12.2133045,-2.67098
1570726864,-0.83969116,-18.590668,-5.3436737,1.1915894,0.64016724,0.4150238,-2.3642488,-12.2133045,-2.67098
1570726864,-0.83969116,-18.590668,-5.3436737,1.1915894,0.64016724,0.4150238,-2.3642488,-12.2133045,-2.67098
1570726864,-0.83969116,-18.590668,-5.3436737,1.1915894,0.64016724,0.4150238,-2.3642488,-12.2133045,-2.67098
1570726864,-0.83969116,-18.590668,-5.3436737,1.1915894,0.64016724,0.4150238,-2.3642488,-12.2133045,-2.67098
1570726864,-0.83969116,-18.590668,-5.3436737,1.1915894,0.64016724,0.4150238,-2.3642488,-12.2133045,-2.67098
1570726864,-0.83969116,-18.590668,-5.3436737,1.1915894,0.64016724,0.4150238,-2.3642488,-12.2133045,-2.67098
1570726864,-0.83969116,-18.590668,-5.3436737,1.1915894,0.64016724,0.4150238,-2.3642488,-12.2133045,-2.67098
1570726864,-0.83969116,-18.590668,-5.3436737,1.1915894,0.64016724,0.4150238,-2.3642488,-12.2133045,-2.67098
1570726864,-0.83969116,-18.590668,-5.3436737,1.1915894,0.64016724,0.4150238,-2.3642488,-12.2133045,-2.67098
1570726864,-0.83969116,-18.590668,-5.3436737,1.1915894,0.64016724,0.4150238,-2.3642488,-12.2133045,-2.67098
1570726864,-0.83969116,-18.590668,-5.3436737,1.1915894,0.64016724,0.4150238,-2.3642488,-12.2133045,-2.67098
1570726864,-0.83969116,-18.590668,-5.3436737,1.1915894,0.64016724,0.4150238,-2.3642488,-12.2133045,-2.67098
1570726864,-0.83969116,-18.590668,-5.3436737,1.1915894,0.64016724,0.4150238,-2.3642488,-12.2133045,-2.67098
1570726864,-0.83969116,-18.590668,-5.3436737,1.1915894,0.64016724,0.4150238,-2.3642488,-12.2133045,-2.67098
1570726864,-0.83969116,-18.590668,-5.3436737,1.1915894,0.64016724,0.4150238,-2.3642488,-12.2133045,-2.67098
1570726864,-0.83969116,-18.590668,-5.3436737,1.1915894,0.64016724,0.4150238,-2.3642488,-12.2133045,-2.67098
1570726864,-0.83969116,-18.590668,-5.3436737,1.1915894,0.64016724,0.4150238,-2.3642488,-12.2133045,-2.67098
1570726864,-0.83969116,-18.590668,-5.3436737,1.1915894,0.64016724,0.4150238,-2.3642488,-12.2133045,-2.67098
1570726864,-0.83969116,-18.590668,-5.3436737,1.1915894,0.64016724,0.4150238,-2.3642488,-12.2133045,-2.67098
1570726864,1.038559,-8.798386,-1.6434326,1.1915894,0.64016724,0.4150238,-2.1424787,2.0346265,2.3974185
1570726864,-1.2598724,-9.11322,5.004074,1.1915894,0.64016724,0.4150238,-0.87062854,0.6336403,-0.5596292
1570726864,-6.397827,-2.9756775,9.124496,1.1915894,0.64016724,0.4150238,1.1424694,0.25007534,0.8856039
1570726864,-6.397827,-2.9756775,9.124496,1.1915894,0.64016724,0.4150238,1.1424694,0.25007534,0.8856039
1570726875,2.798294,-8.840286,-1.1059265,1.1915894,0.64016724,0.4150238,2.4016342,-0.40048695,0.4907987
1570726875,2.798294,-8.840286,-1.1059265,1.1915894,0.64016724,0.4150238,2.4016342,-0.40048695,0.4907987
1570726875,2.798294,-8.840286,-1.1059265,1.1915894,0.64016724,0.4150238,2.4016342,-0.40048695,0.4907987
1570726875,2.798294,-8.840286,-1.1059265,1.1915894,0.64016724,0.4150238,2.4016342,-0.40048695,0.4907987
1570726875,2.798294,-8.840286,-1.1059265,1.1915894,0.64016724,0.4150238,2.4016342,-0.40048695,0.4907987
1570726875,2.798294,-8.840286,-1.1059265,1.1915894,0.64016724,0.4150238,2.4016342,-0.40048695,0.4907987
1570726875,2.798294,-8.840286,-1.1059265,1.1915894,0.64016724,0.4150238,2.4016342,-0.40048695,0.4907987
1570726875,2.798294,-8.840286,-1.1059265,1.1915894,0.64016724,0.4150238,2.4016342,-0.40048695,0.4907987
1570726875,2.798294,-8.840286,-1.1059265,1.1915894,0.64016724,0.4150238,2.4016342,-0.40048695,0.4907987
1570726875,2.798294,-8.840286,-1.1059265,1.1915894,0.64016724,0.4150238,2.4016342,-0.40048695,0.4907987
1570726875,2.798294,-8.840286,-1.1059265,1.1915894,0.64016724,0.4150238,2.4016342,-0.40048695,0.4907987
1570726875,2.798294,-8.840286,-1.1059265,1.1915894,0.64016724,0.4150238,2.4016342,-0.40048695,0.4907987
1570726875,2.798294,-8.840286,-1.1059265,1.1915894,0.64016724,0.4150238,2.4016342,-0.40048695,0.4907987
1570726875,2.798294,-8.840286,-1.1059265,1.1915894,0.64016724,0.4150238,2.4016342,-0.40048695,0.4907987
1570726875,2.798294,-8.840286,-1.1059265,1.1915894,0.64016724,0.4150238,2.4016342,-0.40048695,0.4907987
1570726875,2.798294,-8.840286,-1.1059265,1.1915894,0.64016724,0.4150238,2.4016342,-0.40048695,0.4907987
1570726875,2.798294,-8.840286,-1.1059265,1.1915894,0.64016724,0.4150238,2.4016342,-0.40048695,0.4907987
1570726875,2.798294,-8.840286,-1.1059265,1.1915894,0.64016724,0.4150238,2.4016342,-0.40048695,0.4907987
1570726875,2.798294,-8.840286,-1.1059265,1.1915894,0.64016724,0.4150238,2.4016342,-0.40048695,0.4907987
1570726875,2.798294,-8.840286,-1.1059265,1.1915894,0.64016724,0.4150238,2.4016342,-0.40048695,0.4907987
1570726875,2.798294,-8.840286,-1.1059265,1.1915894,0.64016724,0.4150238,2.4016342,-0.40048695,0.4907987
1570726875,2.798294,-8.840286,-1.1059265,1.1915894,0.64016724,0.4150238,2.4016342,-0.40048695,0.4907987
1570726875,2.798294,-8.840286,-1.1059265,1.1915894,0.64016724,0.4150238,2.4016342,-0.40048695,0.4907987
1570726875,2.798294,-8.840286,-1.1059265,1.1915894,0.64016724,0.4150238,2.4016342,-0.40048695,0.4907987
1570726875,2.798294,-8.840286,-1.1059265,1.1915894,0.64016724,0.4150238,2.4016342,-0.40048695,0.4907987
1570726875,2.798294,-8.840286,-1.1059265,1.1915894,0.64016724,0.4150238,2.4016342,-0.40048695,0.4907987
1570726875,2.798294,-8.840286,-1.1059265,1.1915894,0.64016724,0.4150238,2.4016342,-0.40048695,0.4907987
1570726875,2.798294,-8.840286,-1.1059265,1.1915894,0.64016724,0.4150238,2.4016342,-0.40048695,0.4907987
1570726875,2.798294,-8.840286,-1.1059265,1.1915894,0.64016724,0.4150238,2.4016342,-0.40048695,0.4907987
1570726875,2.798294,-8.840286,-1.1059265,1.1915894,0.64016724,0.4150238,2.4016342,-0.40048695,0.4907987
1570726875,2.798294,-8.840286,-1.1059265,1.1915894,0.64016724,0.4150238,2.4016342,-0.40048695,0.4907987
1570726875,2.798294,-8.840286,-1.1059265,1.1915894,0.64016724,0.4150238,2.4016342,-0.40048695,0.4907987
1570726875,2.798294,-8.840286,-1.1059265,1.1915894,0.64016724,0.4150238,2.4016342,-0.40048695,0.4907987
1570726875,2.798294,-8.840286,-1.1059265,1.1915894,0.64016724,0.4150238,2.4016342,-0.40048695,0.4907987
1570726875,2.798294,-8.840286,-1.1059265,1.1915894,0.64016724,0.4150238,2.4016342,-0.40048695,0.4907987
1570726875,2.798294,-8.840286,-1.1059265,1.1915894,0.64016724,0.4150238,2.4016342,-0.40048695,0.4907987
1570726875,2.798294,-8.840286,-1.1059265,1.1915894,0.64016724,0.4150238,2.4016342,-0.40048695,0.4907987
1570726875,2.798294,-8.840286,-1.1059265,1.1915894,0.64016724,0.4150238,2.4016342,-0.40048695,0.4907987
1570726875,2.798294,-8.840286,-1.1059265,1.1915894,0.64016724,0.4150238,2.4016342,-0.40048695,0.4907987
1570726875,2.798294,-8.840286,-1.1059265,1.1915894,0.64016724,0.4150238,2.4016342,-0.40048695,0.4907987
1570726875,2.798294,-8.840286,-1.1059265,1.1915894,0.64016724,0.4150238,2.4016342,-0.40048695,0.4907987
1570726875,2.798294,-8.840286,-1.1059265,1.1915894,0.64016724,0.4150238,2.4016342,-0.40048695,0.4907987
1570726875,2.798294,-8.840286,-1.1059265,1.1915894,0.64016724,0.4150238,2.4016342,-0.40048695,0.4907987
1570726875,2.798294,-8.840286,-1.1059265,1.1915894,0.64016724,0.4150238,2.4016342,-0.40048695,0.4907987
1570726875,2.798294,-8.840286,-1.1059265,1.1915894,0.64016724,0.4150238,2.4016342,-0.40048695,0.4907987
1570726875,2.798294,-8.840286,-1.1059265,1.1915894,0.64016724,0.4150238,2.4016342,-0.40048695,0.4907987
1570726875,2.798294,-8.840286,-1.1059265,1.1915894,0.64016724,0.4150238,2.4016342,-0.40048695,0.4907987
1570726875,2.798294,-8.840286,-1.1059265,1.1915894,0.64016724,0.4150238,2.4016342,-0.40048695,0.4907987
1570726875,2.798294,-8.840286,-1.1059265,1.1915894,0.64016724,0.4150238,2.4016342,-0.40048695,0.4907987
1570726875,2.798294,-8.840286,-1.1059265,1.1915894,0.64016724,0.4150238,2.4016342,-0.40048695,0.4907987
1570726875,2.798294,-8.840286,-1.1059265,1.1915894,0.64016724,0.4150238,2.4016342,-0.40048695,0.4907987
1570726875,2.798294,-8.840286,-1.1059265,1.1915894,0.64016724,0.4150238,2.4016342,-0.40048695,0.4907987
1570726875,2.798294,-8.840286,-1.1059265,1.1915894,0.64016724,0.4150238,2.4016342,-0.40048695,0.4907987
1570726875,2.798294,-8.840286,-1.1059265,1.1915894,0.64016724,0.4150238,2.4016342,-0.40048695,0.4907987
1570726875,2.798294,-8.840286,-1.1059265,1.1915894,0.64016724,0.4150238,2.4016342,-0.40048695,0.4907987
1570726875,2.798294,-8.840286,-1.1059265,1.1915894,0.64016724,0.4150238,2.4016342,-0.40048695,0.4907987
1570726875,2.798294,-8.840286,-1.1059265,1.1915894,0.64016724,0.4150238,2.4016342,-0.40048695,0.4907987
1570726875,2.798294,-8.840286,-1.1059265,1.1915894,0.64016724,0.4150238,2.4016342,-0.40048695,0.4907987
1570726875,2.798294,-8.840286,-1.1059265,1.1915894,0.64016724,0.4150238,2.4016342,-0.40048695,0.4907987
1570726875,2.798294,-8.840286,-1.1059265,1.1915894,0.64016724,0.4150238,2.4016342,-0.40048695,0.4907987
1570726875,2.798294,-8.840286,-1.1059265,1.1915894,0.64016724,0.4150238,2.4016342,-0.40048695,0.4907987
1570726875,2.798294,-8.840286,-1.1059265,1.1915894,0.64016724,0.4150238,2.4016342,-0.40048695,0.4907987
1570726875,2.798294,-8.840286,-1.1059265,1.1915894,0.64016724,0.4150238,2.4016342,-0.40048695,0.4907987
1570726875,2.798294,-8.840286,-1.1059265,1.1915894,0.64016724,0.4150238,2.4016342,-0.40048695,0.4907987
1570726875,2.798294,-8.840286,-1.1059265,1.1915894,0.64016724,0.4150238,2.4016342,-0.40048695,0.4907987
1570726875,2.798294,-8.840286,-1.1059265,1.1915894,0.64016724,0.4150238,2.4016342,-0.40048695,0.4907987
1570726875,2.798294,-8.840286,-1.1059265,1.1915894,0.64016724,0.4150238,2.4016342,-0.40048695,0.4907987
1570726875,2.798294,-8.840286,-1.1059265,1.1915894,0.64016724,0.4150238,2.4016342,-0.40048695,0.4907987
1570726875,2.798294,-8.840286,-1.1059265,1.1915894,0.64016724,0.4150238,2.4016342,-0.40048695,0.4907987
1570726875,2.798294,-8.840286,-1.1059265,1.1915894,0.64016724,0.4150238,2.4016342,-0.40048695,0.4907987
1570726875,2.798294,-8.840286,-1.1059265,1.1915894,0.64016724,0.4150238,2.4016342,-0.40048695,0.4907987
1570726875,2.798294,-8.840286,-1.1059265,1.1915894,0.64016724,0.4150238,2.4016342,-0.40048695,0.4907987
1570726875,2.798294,-8.840286,-1.1059265,1.1915894,0.64016724,0.4150238,2.4016342,-0.40048695,0.4907987
1570726875,2.798294,-8.840286,-1.1059265,1.1915894,0.64016724,0.4150238,2.4016342,-0.40048695,0.4907987
1570726875,2.798294,-8.840286,-1.1059265,1.1915894,0.64016724,0.4150238,2.4016342,-0.40048695,0.4907987
1570726875,2.798294,-8.840286,-1.1059265,1.1915894,0.64016724,0.4150238,2.4016342,-0.40048695,0.4907987
1570726875,2.798294,-8.840286,-1.1059265,1.1915894,0.64016724,0.4150238,2.4016342,-0.40048695,0.4907987
1570726875,2.798294,-8.840286,-1.1059265,1.1915894,0.64016724,0.4150238,2.4016342,-0.40048695,0.4907987
1570726875,2.798294,-8.840286,-1.1059265,1.1915894,0.64016724,0.4150238,2.4016342,-0.40048695,0.4907987
1570726875,2.798294,-8.840286,-1.1059265,1.1915894,0.64016724,0.4150238,2.4016342,-0.40048695,0.4907987
1570726875,2.798294,-8.840286,-1.1059265,1.1915894,0.64016724,0.4150238,2.4016342,-0.40048695,0.4907987
1570726875,2.798294,-8.840286,-1.1059265,1.1915894,0.64016724,0.4150238,2.4016342,-0.40048695,0.4907987
1570726875,2.798294,-8.840286,-1.1059265,1.1915894,0.64016724,0.4150238,2.4016342,-0.40048695,0.4907987
1570726875,2.798294,-8.840286,-1.1059265,1.1915894,0.64016724,0.4150238,2.4016342,-0.40048695,0.4907987
1570726875,2.798294,-8.840286,-1.1059265,1.1915894,0.64016724,0.4150238,2.4016342,-0.40048695,0.4907987
1570726875,2.798294,-8.840286,-1.1059265,1.1915894,0.64016724,0.4150238,2.4016342,-0.40048695,0.4907987
1570726875,2.798294,-8.840286,-1.1059265,1.1915894,0.64016724,0.4150238,2.4016342,-0.40048695,0.4907987
1570726875,2.798294,-8.840286,-1.1059265,1.1915894,0.64016724,0.4150238,2.4016342,-0.40048695,0.4907987
1570726875,2.798294,-8.840286,-1.1059265,1.1915894,0.64016724,0.4150238,2.4016342,-0.40048695,0.4907987
1570726875,2.798294,-8.840286,-1.1059265,1.1915894,0.64016724,0.4150238,2.4016342,-0.40048695,0.4907987
1570726875,2.798294,-8.840286,-1.1059265,1.1915894,0.64016724,0.4150238,2.4016342,-0.40048695,0.4907987
1570726875,2.798294,-8.840286,-1.1059265,1.1915894,0.64016724,0.4150238,2.4016342,-0.40048695,0.4907987
1570726875,2.798294,-8.840286,-1.1059265,1.1915894,0.64016724,0.4150238,2.4016342,-0.40048695,0.4907987
1570726875,2.798294,-8.840286,-1.1059265,1.1915894,0.64016724,0.4150238,2.4016342,-0.40048695,0.4907987
1570726875,2.798294,-8.840286,-1.1059265,1.1915894,0.64016724,0.4150238,2.4016342,-0.40048695,0.4907987
1570726875,2.798294,-8.840286,-1.1059265,1.1915894,0.64016724,0.4150238,2.4016342,-0.40048695,0.4907987
1570726875,2.798294,-8.840286,-1.1059265,1.1915894,0.64016724,0.4150238,2.4016342,-0.40048695,0.4907987
1570726875,2.798294,-8.840286,-1.1059265,1.1915894,0.64016724,0.4150238,0.8935951,-3.0780687,-5.3414536
1570726875,2.798294,-8.840286,-1.1059265,1.1915894,0.64016724,0.4150238,-4.9381847,0.8714156,2.4138985
1570726875,2.798294,-8.840286,-1.1059265,1.1915894,0.64016724,0.4150238,0.54316056,3.5004473,-1.2075477
1570726875,0.12756348,-6.922531,-1.4147797,1.1915894,0.64016724,0.4150238,-6.847478,2.2254553,15.8241005
1570726875,-1.1186066,-8.484741,-2.399994,1.1915894,0.64016724,0.4150238,-6.847478,2.2254553,15.8241005
1570726875,1.5221863,-11.447571,0.5484619,1.1915894,0.64016724,0.4150238,-6.847478,2.2254553,15.8241005
1570726875,-0.49012756,-12.873322,-6.3181,1.1915894,0.64016724,0.4150238,-6.847478,2.2254553,15.8241005
1570726875,-2.170868,-9.013855,1.3708649,1.1915894,0.64016724,0.4150238,-6.847478,2.2254553,15.8241005
1570726875,0.2855835,-12.386093,-5.5016785,1.1915894,0.64016724,0.4150238,-6.847478,2.2254553,15.8241005
1570726875,0.98828125,-4.7150726,-19.097153,1.1915894,0.64016724,0.4150238,-6.847478,2.2254553,15.8241005
1570726875,0.5298004,-8.537415,-2.088745,1.1915894,0.64016724,0.4150238,-6.847478,2.2254553,15.8241005
1570726875,-2.0822754,-7.400177,-2.9841766,1.1915894,0.64016724,0.4150238,-1.526187,0.23887825,-1.3397801
1570726875,-2.0822754,-7.400177,-2.9841766,1.1915894,0.64016724,0.4150238,-0.08792208,-1.049593,-1.9798529
1570726875,-2.0822754,-7.400177,-2.9841766,1.1915894,0.64016724,0.4150238,-3.6711965,-2.4575691,-0.19983959
1570726875,-2.0822754,-7.400177,-2.9841766,1.1915894,0.64016724,0.4150238,-1.085629,3.3220148,1.1206512
1570726875,-2.0822754,-7.400177,-2.9841766,1.1915894,0.64016724,0.4150238,-0.7314739,-4.781253,-3.6723533
1570726875,-2.0822754,-7.400177,-2.9841766,1.1915894,0.64016724,0.4150238,4.435298,-4.553323,-4.5742702
1570726875,-2.0822754,-7.400177,-2.9841766,1.1074219,-0.5710449,0.43206787,-0.50455946,-2.7706861,2.3501928
1570726875,-2.0822754,-7.400177,-2.9841766,0.025115967,-0.49754333,0.11355591,-0.50455946,-2.7706861,2.3501928
1570726875,-2.0822754,-7.400177,-2.9841766,1.6358032,1.9067688,-0.23052979,-0.50455946,-2.7706861,2.3501928
1570726875,-2.0822754,-7.400177,-2.9841766,0.15188599,-0.15133667,0.33833313,-0.50455946,-2.7706861,2.3501928
1570726875,-2.0822754,-7.400177,-2.9841766,-2.781845,2.1485748,-0.9442444,-0.50455946,-2.7706861,2.3501928
1570726875,-2.0822754,-7.400177,-2.9841766,-2.0904999,0.6657257,-1.3117676,-0.50455946,-2.7706861,2.3501928
1570726875,-2.0822754,-7.400177,-2.9841766,-2.7498932,-0.5561371,-0.4116211,-0.50455946,-2.7706861,2.3501928
1570726875,-2.0822754,-7.400177,-2.9841766,0.24349976,0.24176025,0.4139557,-0.50455946,-2.7706861,2.3501928
1570726875,-2.0822754,-7.400177,-2.9841766,0.5662689,0.8201904,0.32980347,-0.50455946,-2.7706861,2.3501928
1570726875,-2.0822754,-7.400177,-2.9841766,2.1971893,2.1091614,0.67388916,-0.50455946,-2.7706861,2.3501928
1570726875,-2.0822754,-7.400177,-2.9841766,2.2185059,0.23855591,1.0392761,-0.50455946,-2.7706861,2.3501928
1570726875,-2.0822754,-7.400177,-2.9841766,0.41714478,0.091552734,0.10076904,-0.50455946,-2.7706861,2.3501928
1570726875,-2.0822754,-7.400177,-2.9841766,1.1915894,1.3400421,-0.027053833,-0.50455946,-2.7706861,2.3501928
1570726875,-2.0822754,-7.400177,-2.9841766,0.28077698,0.5623932,0.54818726,-0.50455946,-2.7706861,2.3501928
1570726875,-2.0822754,-7.400177,-2.9841766,-2.7200623,1.4891815,-1.1072388,-0.50455946,-2.7706861,2.3501928
1570726875,-2.0822754,-7.400177,-2.9841766,-2.0659943,1.5498962,-0.89845276,-0.50455946,-2.7706861,2.3501928
1570726875,-2.0822754,-7.400177,-2.9841766,-2.4580078,2.1272736,-0.035583496,-0.50455946,-2.7706861,2.3501928
1570726875,-2.0822754,-7.400177,-2.9841766,-1.7677155,-0.6690521,-0.068603516,-0.50455946,-2.7706861,2.3501928
1570726875,-2.0822754,-7.400177,-2.9841766,-0.70991516,-0.5870209,0.23500061,-0.50455946,-2.7706861,2.3501928
1570726875,-2.0822754,-7.400177,-2.9841766,0.36813354,1.7224731,0.8890686,-0.50455946,-2.7706861,2.3501928
1570726875,-2.0822754,-7.400177,-2.9841766,2.1833496,2.7855988,1.359909,-0.50455946,-2.7706861,2.3501928
1570726875,-2.0822754,-7.400177,-2.9841766,1.4493713,3.266037,1.9202423,-0.50455946,-2.7706861,2.3501928
1570726875,-2.0822754,-7.400177,-2.9841766,0.39370728,-0.84695435,0.49917603,-0.50455946,-2.7706861,2.3501928
1570726875,-2.0822754,-7.400177,-2.9841766,1.9351349,1.9792023,-0.27101135,-0.50455946,-2.7706861,2.3501928
1570726875,-2.0822754,-7.400177,-2.9841766,0.2584076,0.52937317,0.5652313,-0.50455946,-2.7706861,2.3501928
1570726875,-2.0822754,-7.400177,-2.9841766,-2.267334,2.102768,-0.4947052,-0.50455946,-2.7706861,2.3501928
1570726875,-2.0822754,-7.400177,-2.9841766,-2.110733,0.8340454,-1.0912628,-0.50455946,-2.7706861,2.3501928
1570726875,-2.0822754,-7.400177,-2.9841766,-1.9232483,-0.39634705,-1.7549133,-0.50455946,-2.7706861,2.3501928
1570726875,-2.0822754,-7.400177,-2.9841766,0.3532257,-1.528717,-0.5277405,-0.50455946,-2.7706861,2.3501928
1570726875,-2.0822754,-7.400177,-2.9841766,1.5250092,-0.9694519,0.9689636,-0.50455946,-2.7706861,2.3501928
1570726875,-2.0822754,-7.400177,-2.9841766,1.457901,-0.5433502,1.2661743,-0.50455946,-2.7706861,2.3501928
1570726875,-2.0822754,-7.400177,-2.9841766,1.0168762,-1.2165985,0.3404541,-0.50455946,-2.7706861,2.3501928
1570726875,-2.0822754,-7.400177,-2.9841766,0.3574829,-0.32710266,0.6802826,-0.50455946,-2.7706861,2.3501928
1570726875,-2.0822754,-7.400177,-2.9841766,0.29782104,-0.21418762,0.32341003,-0.50455946,-2.7706861,2.3501928
1570726875,-2.0822754,-7.400177,-2.9841766,-2.7839813,1.1696014,-0.886734,-0.50455946,-2.7706861,2.3501928
1570726875,-2.0822754,-7.400177,-2.9841766,-1.568512,-0.40167236,-1.3852692,-0.50455946,-2.7706861,2.3501928
1570726875,-2.0822754,-7.400177,-2.9841766,-1.3874207,0.37597656,-1.3543854,-0.50455946,-2.7706861,2.3501928
1570726875,-2.0822754,-7.400177,-2.9841766,1.026474,-0.33561707,0.3958435,-0.50455946,-2.7706861,2.3501928
1570726875,-2.0822754,-7.400177,-2.9841766,1.2959747,0.15226746,1.2150421,-0.50455946,-2.7706861,2.3501928
1570726875,-2.0822754,-7.400177,-2.9841766,1.3790741,-0.20884705,1.246994,-0.50455946,-2.7706861,2.3501928
1570726875,-2.0822754,-7.400177,-2.9841766,0.8538971,-0.93110657,0.26055908,-0.50455946,-2.7706861,2.3501928
1570726875,-2.0822754,-7.400177,-2.9841766,0.9380493,-0.45492554,0.60783386,-0.50455946,-2.7706861,2.3501928
1570726875,-2.0822754,-7.400177,-2.9841766,0.6536255,-0.24293518,0.50556946,-0.50455946,-2.7706861,2.3501928
1570726875,-2.0822754,-7.400177,-2.9841766,-2.4143372,1.114212,-0.7588959,-0.50455946,-2.7706861,2.3501928
1570726875,-2.0822754,-7.400177,-2.9841766,-2.0596008,-0.20033264,-1.5216217,-0.50455946,-2.7706861,2.3501928
1570726875,-2.0822754,-7.400177,-2.9841766,-1.9552002,-0.44641113,-1.5535889,-0.50455946,-2.7706861,2.3501928
1570726875,-2.0822754,-7.400177,-2.9841766,-0.31044006,-1.3167267,-0.5873871,-0.50455946,-2.7706861,2.3501928
1570726875,-2.0822754,-7.400177,-2.9841766,2.20784,2.676941,0.38200378,-0.50455946,-2.7706861,2.3501928
1570726875,-2.0822754,-7.400177,-2.9841766,1.0190125,-0.2727661,2.0395508,-0.50455946,-2.7706861,2.3501928
1570726875,-2.0822754,-7.400177,-2.9841766,1.697586,0.17784119,0.3905182,-0.50455946,-2.7706861,2.3501928
1570726875,-2.0822754,-7.400177,-2.9841766,1.1351318,-0.7191162,0.1870575,-0.50455946,-2.7706861,2.3501928
1570726875,-0.9534149,-7.001541,-2.300644,0.7878418,-0.91192627,0.32341003,0.78844035,-1.0080042,0.48504424
1570726875,-0.9534149,-7.001541,-2.300644,0.7878418,-0.91192627,0.32341003,-4.5393395,2.8758478,5.3337235
1570726875,-0.9534149,-7.001541,-2.300644,0.7878418,-0.91192627,0.32341003,-0.26592803,-4.832583,9.964479
1570726875,-0.6541443,-7.041046,-2.2395782,0.7878418,-0.91192627,0.32341003,-2.0622563,-0.5474987,3.0713851
1570726875,-0.6541443,-7.041046,-2.2395782,0.7878418,-0.91192627,0.32341003,0.7190991,1.4744387,-0.38762754
1570726875,-0.6541443,-7.041046,-2.2395782,0.7878418,-0.91192627,0.32341003,2.745121,-0.3712139,-0.0338791
1570726875,-0.6541443,-7.041046,-2.2395782,0.7878418,-0.91192627,0.32341003,1.5426307,-3.6837397,-2.6276371
1570726875,-0.6541443,-7.041046,-2.2395782,0.7878418,-0.91192627,0.32341003,-1.0333196,0.09861755,0.5342493
1570726875,-0.2926178,-7.0506134,-2.063614,0.7558899,-0.83096313,0.31808472,-2.5965195,3.0117145,4.944264
1570726875,-0.2926178,-7.0506134,-2.063614,0.7558899,-0.83096313,0.31808472,-0.86746335,-10.869746,3.988954
1570726875,-0.2926178,-7.0506134,-2.063614,0.7558899,-0.83096313,0.31808472,2.6614742,-1.3325729,1.257963
1570726875,-0.2926178,-7.0506134,-2.063614,0.7558899,-0.83096313,0.31808472,1.081514,1.7940722,0.7396684
1570726875,-0.2926178,-7.0506134,-2.063614,0.7558899,-0.83096313,0.31808472,1.5196884,-2.8035774,-0.9281614
1570726875,-0.2926178,-7.0506134,-2.063614,0.7558899,-0.83096313,0.31808472,2.5646918,-3.3731565,-0.84076446
1570726875,-0.2926178,-7.0506134,-2.063614,0.7558899,-0.83096313,0.31808472,-1.9974529,-0.31494045,4.0682774
1570726875,-0.2926178,-7.0506134,-2.063614,0.7558899,-0.83096313,0.31808472,-3.8884351,4.6171937,4.6769967
1570726875,-0.2926178,-7.0506134,-2.063614,0.7558899,-0.83096313,0.31808472,-3.5815306,8.468042,-0.100067616
1570726875,-0.2926178,-7.0506134,-2.063614,0.7558899,-0.83096313,0.31808472,2.639157,0.3714323,-0.5884843
1570726875,2.3757172,-7.5294495,1.4486847,1.0733337,0.69129944,-0.023864746,3.4868722,0.9205742,1.6186857
1570726875,0.050949097,-8.369827,-1.6985016,1.2885284,1.1568146,-0.016403198,1.9905168,-0.15004253,-1.6595886
1570726875,-0.5021057,-8.329117,-0.07762146,1.2885284,1.1568146,-0.016403198,0.37141657,-7.5925684,-2.7886238
1570726875,-0.09150696,-9.936829,2.1286316,1.2885284,1.1568146,-0.016403198,0.37141657,-7.5925684,-2.7886238
1570726875,-0.97854614,-16.077957,-2.166565,1.2885284,1.1568146,-0.016403198,0.37141657,-7.5925684,-2.7886238
1570726875,1.4443817,-10.872955,-4.194458,1.2885284,1.1568146,-0.016403198,0.37141657,-7.5925684,-2.7886238
1570726875,-0.96299744,-10.063721,3.893158,1.2885284,1.1568146,-0.016403198,0.37141657,-7.5925684,-2.7886238
1570726875,-0.06277466,-7.364258,-2.0372772,1.2885284,1.1568146,-0.016403198,-2.283892,-2.10703,3.222689
1570726875,-1.2550812,-7.364258,-2.0372772,1.2885284,1.1568146,-0.016403198,1.6441058,0.14137077,0.44283688
1570726875,-1.2550812,-7.364258,-2.0372772,1.2885284,1.1568146,-0.016403198,1.9458525,-5.117651,-3.6898108
1570726875,-1.2550812,-7.364258,-2.0372772,1.2885284,1.1568146,-0.016403198,3.2949111,-2.5698051,-1.8502984
1570726875,-1.4502106,-6.7848663,-2.6705475,1.2885284,1.1568146,-0.016403198,-6.025762,-1.0479851,2.5768008
1570726875,-2.4617615,-4.8802795,-0.10874939,1.2885284,1.1568146,-0.016403198,-6.025762,-1.0479851,2.5768008
1570726875,0.19580078,-3.2043304,-1.6266632,1.2885284,1.1568146,-0.016403198,-6.025762,-1.0479851,2.5768008
1570726875,-1.5806885,0.4432373,-10.738998,1.2885284,1.1568146,-0.016403198,-6.025762,-1.0479851,2.5768008
1570726875,3.2891083,-21.766571,-15.540573,1.2885284,1.1568146,-0.016403198,-6.025762,-1.0479851,2.5768008
1570726875,-2.926239,-10.16069,-2.693283,1.2885284,1.1568146,-0.016403198,-6.025762,-1.0479851,2.5768008
1570726875,2.6450653,-8.439255,-0.49780273,1.2885284,1.1568146,-0.016403198,-6.025762,-1.0479851,2.5768008
1570726875,0.09524536,-7.6132507,-2.0265045,1.2885284,1.1568146,-0.016403198,-6.025762,-1.0479851,2.5768008
1570726875,3.0041962,-8.420105,-1.0484619,1.2885284,1.1568146,-0.016403198,-6.025762,-1.0479851,2.5768008
1570726875,0.21257019,-8.536224,0.5987396,1.2885284,1.1568146,-0.016403198,-6.025762,-1.0479851,2.5768008
1570726875,0.16108704,-9.896118,2.3824158,1.2885284,1.1568146,-0.016403198,-6.025762,-1.0479851,2.5768008
1570726875,1.0625,-13.438339,-0.32901,1.2885284,1.1568146,-0.016403198,-6.025762,-1.0479851,2.5768008
1570726875,-0.28303528,-12.465103,-3.2535248,1.2885284,1.1568146,-0.016403198,-6.025762,-1.0479851,2.5768008
1570726875,2.469101,-11.041748,-0.5241394,1.2885284,1.1568146,-0.016403198,-6.025762,-1.0479851,2.5768008
1570726875,-4.4609222,-10.069702,1.2858734,1.2885284,1.1568146,-0.016403198,-6.025762,-1.0479851,2.5768008
1570726875,-2.8567963,-7.8215485,-2.8524933,1.2885284,1.1568146,-0.016403198,-6.025762,-1.0479851,2.5768008
1570726875,0.084472656,-6.2569427,-1.5249176,1.2885284,1.1568146,-0.016403198,-6.025762,-1.0479851,2.5768008
1570726875,-0.010101318,-3.371933,1.6545868,1.2885284,1.1568146,-0.016403198,-6.025762,-1.0479851,2.5768008
1570726875,-1.0156555,-3.5718384,0.8621063,1.2885284,1.1568146,-0.016403198,-6.025762,-1.0479851,2.5768008
1570726875,4.7196503,-12.954712,-7.9725037,1.2885284,1.1568146,-0.016403198,-6.025762,-1.0479851,2.5768008
1570726875,-5.267761,-6.333557,2.7140198,1.2885284,1.1568146,-0.016403198,-6.025762,-1.0479851,2.5768008
1570726875,-1.1676941,-15.966629,3.165329,1.2885284,1.1568146,-0.016403198,-6.025762,-1.0479851,2.5768008
1570726875,0.006668091,-7.516281,-0.64624023,1.2885284,1.1568146,-0.016403198,-6.025762,-1.0479851,2.5768008
1570726875,-0.43267822,-8.405731,2.6661377,1.2885284,1.1568146,-0.016403198,-6.025762,-1.0479851,2.5768008
1570726875,1.8693542,-9.68544,-0.4092102,1.2885284,1.1568146,-0.016403198,-6.025762,-1.0479851,2.5768008
1570726875,0.95596313,-8.739731,0.5592346,1.2885284,1.1568146,-0.016403198,-6.025762,-1.0479851,2.5768008
1570726875,1.6251373,-8.126816,-0.5217438,1.2885284,1.1568146,-0.016403198,-6.025762,-1.0479851,2.5768008
1570726875,2.046524,-12.696136,-0.9539032,1.2885284,1.1568146,-0.016403198,-6.025762,-1.0479851,2.5768008
1570726875,-3.8504028,-12.47348,0.88365173,1.2885284,1.1568146,-0.016403198,-6.025762,-1.0479851,2.5768008
1570726875,-3.954544,-10.404892,9.678757,1.2885284,1.1568146,-0.016403198,-6.025762,-1.0479851,2.5768008
1570726875,-3.8468018,-10.166672,-1.9259491,1.2885284,1.1568146,-0.016403198,-6.025762,-1.0479851,2.5768008
1570726875,1.8621674,-5.756546,-0.5744171,1.2885284,1.1568146,-0.016403198,-6.025762,-1.0479851,2.5768008
1570726875,1.1702423,-0.06074524,-2.4430847,1.2885284,1.1568146,-0.016403198,-6.025762,-1.0479851,2.5768008
1570726875,-3.85878,-4.0746307,-26.553894,1.2885284,1.1568146,-0.016403198,-6.025762,-1.0479851,2.5768008
1570726875,-1.4274597,-13.226456,-11.485992,1.2885284,1.1568146,-0.016403198,-6.025762,-1.0479851,2.5768008
1570726875,-0.7127991,-8.192657,-1.1203003,1.2885284,1.1568146,-0.016403198,-6.025762,-1.0479851,2.5768008
1570726875,5.2355957,-10.67305,-1.0987549,1.2885284,1.1568146,-0.016403198,-6.025762,-1.0479851,2.5768008
1570726875,0.7297058,-7.1918793,-3.3349304,1.2885284,1.1568146,-0.016403198,-6.025762,-1.0479851,2.5768008
1570726875,0.10722351,-8.379395,-1.6841278,1.2885284,1.1568146,-0.016403198,-1.6466856,2.1661701,2.2182517
1570726875,0.10722351,-8.379395,-1.6841278,1.2885284,1.1568146,-0.016403198,-1.5154777,2.5305862,1.7381128
1570726875,0.10722351,-8.379395,-1.6841278,1.2885284,1.1568146,-0.016403198,-7.266996,-2.2170877,4.730073
1570726875,0.10722351,-8.379395,-1.6841278,1.2885284,1.1568146,-0.016403198,-1.3142765,-0.25326633,3.7545505
1570726875,0.10722351,-8.379395,-1.6841278,1.2885284,1.1568146,-0.016403198,-0.14596742,0.90960693,1.8809459
1570726875,0.10722351,-8.379395,-1.6841278,1.2885284,1.1568146,-0.016403198,1.8619685,2.2220612E-4,0.21064854
1570726875,0.10722351,-8.379395,-1.6841278,1.2885284,1.1568146,-0.016403198,1.8120433,-0.98120785,-3.1705992
1570726875,0.10722351,-8.379395,-1.6841278,1.2885284,1.1568146,-0.016403198,-4.197057,-3.6742897,0.45223743
1570726875,0.10722351,-8.379395,-1.6841278,1.2885284,1.1568146,-0.016403198,-1.0606139,-3.246891,-2.7065072
1570726875,0.10722351,-8.379395,-1.6841278,1.2885284,1.1568146,-0.016403198,-1.2527494,3.809163,4.1386094
1570726875,0.10722351,-8.379395,-1.6841278,1.2885284,1.1568146,-0.016403198,1.5419643,-3.288857,18.391407
1570726875,0.10722351,-8.379395,-1.6841278,1.2885284,1.1568146,-0.016403198,-1.8393208,-2.4601426,1.9738588
1570726875,0.10722351,-8.379395,-1.6841278,1.2885284,1.1568146,-0.016403198,3.7701132,1.4077053,0.48333478
1570726875,0.10722351,-8.379395,-1.6841278,1.2885284,1.1568146,-0.016403198,4.116193,1.2657518,2.7664073
1570726875,0.10722351,-8.379395,-1.6841278,1.2885284,1.1568146,-0.016403198,1.6448312,-3.4295645,-3.9166768
1570726875,0.10722351,-8.379395,-1.6841278,1.2885284,1.1568146,-0.016403198,0.9284126,-3.4907322,1.3323166
1570726875,0.10722351,-8.379395,-1.6841278,1.2885284,1.1568146,-0.016403198,-3.435281,0.5186815,0.2169826
1570726875,0.10722351,-8.379395,-1.6841278,1.2885284,1.1568146,-0.016403198,-1.141779,2.8437333,4.7465205
1570726875,0.10722351,-8.379395,-1.6841278,1.2885284,1.1568146,-0.016403198,-0.57025194,-14.827381,-7.7485948
1570726875,4.383255,-7.6922607,3.2144012,1.2885284,1.1568146,-0.016403198,-1.1333032,-14.827381,-7.7485948
1570726875,1.0218048,-9.44841,1.6294403,1.2885284,1.1568146,-0.016403198,-1.1333032,-14.827381,-7.7485948
1570726875,1.3210754,-12.443558,-1.8553162,1.2885284,1.1568146,-0.016403198,-1.1333032,-14.827381,-7.7485948
1570726875,-0.70321655,-13.672974,-4.6038513,1.2885284,1.1568146,-0.016403198,-1.1333032,-14.827381,-7.7485948
1570726875,0.8565979,-12.511795,-0.56843567,1.2885284,1.1568146,-0.016403198,-1.1333032,-14.827381,-7.7485948
1570726875,-1.8727875,-10.085266,1.2727051,1.2885284,1.1568146,-0.016403198,-1.1333032,-14.827381,-7.7485948
1570726875,-1.7830048,-7.7700806,-1.012558,1.2885284,1.1568146,-0.016403198,-1.1333032,-14.827381,-7.7485948
1570726875,-1.5818939,-5.0311127,-0.23683167,1.2885284,1.1568146,-0.016403198,-1.1333032,-14.827381,-7.7485948
1570726875,0.9416046,-2.2035522,0.19412231,1.2885284,1.1568146,-0.016403198,-1.1333032,-14.827381,-7.7485948
1570726875,2.829422,-4.1021576,-2.7854614,1.2885284,1.1568146,-0.016403198,-1.1333032,-14.827381,-7.7485948
1570726875,3.1406708,-8.784012,-0.5540619,1.2885284,1.1568146,-0.016403198,-1.1333032,-14.827381,-7.7485948
1570726875,-0.27345276,-7.918518,-1.3046417,1.2885284,1.1568146,-0.016403198,-1.1333032,-14.827381,-7.7485948
1570726875,-2.0200348,-7.8598633,-2.8608856,1.2885284,1.1568146,-0.016403198,-1.1333032,-14.827381,-7.7485948
1570726875,1.8980865,-9.556152,2.229187,1.2885284,1.1568146,-0.016403198,-1.1333032,-14.827381,-7.7485948
1570726875,1.7592163,-12.882889,-0.02494812,1.2885284,1.1568146,-0.016403198,-1.1333032,-14.827381,-7.7485948
1570726875,1.7592163,-12.882889,-0.02494812,1.2885284,1.1568146,-0.016403198,-1.1333032,-14.827381,-7.7485948
1570726875,1.7592163,-12.882889,-0.02494812,1.2885284,1.1568146,-0.016403198,-1.1333032,-14.827381,-7.7485948
1570726875,1.7592163,-12.882889,-0.02494812,1.2885284,1.1568146,-0.016403198,-1.1333032,-14.827381,-7.7485948
1570726875,1.7592163,-12.882889,-0.02494812,1.2885284,1.1568146,-0.016403198,-1.1333032,-14.827381,-7.7485948
1570726875,1.7592163,-12.882889,-0.02494812,1.2885284,1.1568146,-0.016403198,-1.1333032,-14.827381,-7.7485948
1570726875,1.7592163,-12.882889,-0.02494812,1.2885284,1.1568146,-0.016403198,-1.1333032,-14.827381,-7.7485948
1570726875,1.7592163,-12.882889,-0.02494812,1.2885284,1.1568146,-0.016403198,-1.1333032,-14.827381,-7.7485948
1570726875,1.7592163,-12.882889,-0.02494812,1.2885284,1.1568146,-0.016403198,-1.1333032,-14.827381,-7.7485948
1570726875,1.7592163,-12.882889,-0.02494812,1.2885284,1.1568146,-0.016403198,-1.1333032,-14.827381,-7.7485948
1570726875,1.7592163,-12.882889,-0.02494812,1.2885284,1.1568146,-0.016403198,-1.1333032,-14.827381,-7.7485948
1570726875,1.7592163,-12.882889,-0.02494812,1.2885284,1.1568146,-0.016403198,-1.1333032,-14.827381,-7.7485948
1570726875,1.7592163,-12.882889,-0.02494812,1.2885284,1.1568146,-0.016403198,-1.1333032,-14.827381,-7.7485948
1570726875,1.7592163,-12.882889,-0.02494812,1.2885284,1.1568146,-0.016403198,-1.1333032,-14.827381,-7.7485948
1570726875,1.7592163,-12.882889,-0.02494812,1.2885284,1.1568146,-0.016403198,-1.1333032,-14.827381,-7.7485948
1570726875,1.7592163,-12.882889,-0.02494812,1.2885284,1.1568146,-0.016403198,-1.1333032,-14.827381,-7.7485948
1570726875,1.7592163,-12.882889,-0.02494812,1.2885284,1.1568146,-0.016403198,-1.1333032,-14.827381,-7.7485948
1570726875,1.7592163,-12.882889,-0.02494812,1.2885284,1.1568146,-0.016403198,-1.1333032,-14.827381,-7.7485948
1570726875,1.7592163,-12.882889,-0.02494812,1.2885284,1.1568146,-0.016403198,-1.1333032,-14.827381,-7.7485948
1570726875,1.7592163,-12.882889,-0.02494812,1.2885284,1.1568146,-0.016403198,-1.1333032,-14.827381,-7.7485948
1570726875,1.7592163,-12.882889,-0.02494812,1.2885284,1.1568146,-0.016403198,-1.1333032,-14.827381,-7.7485948
1570726875,1.7592163,-12.882889,-0.02494812,1.2885284,1.1568146,-0.016403198,-1.1333032,-14.827381,-7.7485948
1570726875,1.7592163,-12.882889,-0.02494812,1.2885284,1.1568146,-0.016403198,-1.1333032,-14.827381,-7.7485948
1570726875,1.7592163,-12.882889,-0.02494812,1.2885284,1.1568146,-0.016403198,-1.1333032,-14.827381,-7.7485948
1570726875,1.7592163,-12.882889,-0.02494812,1.2885284,1.1568146,-0.016403198,-1.1333032,-14.827381,-7.7485948
1570726875,1.7592163,-12.882889,-0.02494812,1.2885284,1.1568146,-0.016403198,-1.1333032,-14.827381,-7.7485948
1570726875,1.7592163,-12.882889,-0.02494812,1.2885284,1.1568146,-0.016403198,-1.1333032,-14.827381,-7.7485948
1570726875,1.7592163,-12.882889,-0.02494812,1.2885284,1.1568146,-0.016403198,-1.1333032,-14.827381,-7.7485948
1570726875,1.7592163,-12.882889,-0.02494812,1.2885284,1.1568146,-0.016403198,-1.1333032,-14.827381,-7.7485948
1570726875,1.7592163,-12.882889,-0.02494812,1.2885284,1.1568146,-0.016403198,-1.1333032,-14.827381,-7.7485948
1570726875,1.7592163,-12.882889,-0.02494812,1.2885284,1.1568146,-0.016403198,-1.1333032,-14.827381,-7.7485948
1570726875,1.7592163,-12.882889,-0.02494812,1.2885284,1.1568146,-0.016403198,-1.1333032,-14.827381,-7.7485948
1570726875,1.7592163,-12.882889,-0.02494812,1.2885284,1.1568146,-0.016403198,-1.1333032,-14.827381,-7.7485948
1570726875,1.7592163,-12.882889,-0.02494812,1.2885284,1.1568146,-0.016403198,-1.1333032,-14.827381,-7.7485948
1570726875,1.7592163,-12.882889,-0.02494812,1.2885284,1.1568146,-0.016403198,-1.1333032,-14.827381,-7.7485948
1570726875,1.7592163,-12.882889,-0.02494812,1.2885284,1.1568146,-0.016403198,-1.1333032,-14.827381,-7.7485948
1570726875,1.7592163,-12.882889,-0.02494812,1.2885284,1.1568146,-0.016403198,-1.1333032,-14.827381,-7.7485948
1570726875,1.7592163,-12.882889,-0.02494812,1.2885284,1.1568146,-0.016403198,-1.1333032,-14.827381,-7.7485948
1570726875,1.7592163,-12.882889,-0.02494812,1.2885284,1.1568146,-0.016403198,-1.1333032,-14.827381,-7.7485948
1570726875,1.7592163,-12.882889,-0.02494812,1.2885284,1.1568146,-0.016403198,-1.1333032,-14.827381,-7.7485948
1570726875,1.7592163,-12.882889,-0.02494812,1.2885284,1.1568146,-0.016403198,-1.1333032,-14.827381,-7.7485948
1570726875,1.7592163,-12.882889,-0.02494812,1.2885284,1.1568146,-0.016403198,-1.1333032,-14.827381,-7.7485948
1570726875,1.7592163,-12.882889,-0.02494812,1.2885284,1.1568146,-0.016403198,-1.1333032,-14.827381,-7.7485948
1570726875,1.7592163,-12.882889,-0.02494812,1.2885284,1.1568146,-0.016403198,-1.1333032,-14.827381,-7.7485948
1570726875,1.7592163,-12.882889,-0.02494812,1.2885284,1.1568146,-0.016403198,-1.1333032,-14.827381,-7.7485948
1570726875,1.7592163,-12.882889,-0.02494812,1.2885284,1.1568146,-0.016403198,-1.1333032,-14.827381,-7.7485948
1570726875,1.7592163,-12.882889,-0.02494812,1.2885284,1.1568146,-0.016403198,-1.1333032,-14.827381,-7.7485948
1570726875,1.7592163,-12.882889,-0.02494812,1.2885284,1.1568146,-0.016403198,-1.1333032,-14.827381,-7.7485948
1570726875,1.7592163,-12.882889,-0.02494812,1.2885284,1.1568146,-0.016403198,-1.1333032,-14.827381,-7.7485948
1570726875,1.7592163,-12.882889,-0.02494812,1.2885284,1.1568146,-0.016403198,-1.1333032,-14.827381,-7.7485948
1570726875,1.7592163,-12.882889,-0.02494812,1.2885284,1.1568146,-0.016403198,-1.1333032,-14.827381,-7.7485948
1570726875,1.7592163,-12.882889,-0.02494812,1.2885284,1.1568146,-0.016403198,-1.1333032,-14.827381,-7.7485948
1570726875,1.7592163,-12.882889,-0.02494812,1.2885284,1.1568146,-0.016403198,-1.1333032,-14.827381,-7.7485948
1570726875,1.7592163,-12.882889,-0.02494812,1.2885284,1.1568146,-0.016403198,-1.1333032,-14.827381,-7.7485948
1570726875,1.7592163,-12.882889,-0.02494812,1.2885284,1.1568146,-0.016403198,-1.1333032,-14.827381,-7.7485948
1570726875,1.7592163,-12.882889,-0.02494812,1.2885284,1.1568146,-0.016403198,-1.1333032,-14.827381,-7.7485948
1570726875,1.7592163,-12.882889,-0.02494812,1.2885284,1.1568146,-0.016403198,-1.1333032,-14.827381,-7.7485948
1570726875,1.7592163,-12.882889,-0.02494812,1.2885284,1.1568146,-0.016403198,-1.1333032,-14.827381,-7.7485948
1570726875,1.7592163,-12.882889,-0.02494812,1.2885284,1.1568146,-0.016403198,-1.1333032,-14.827381,-7.7485948
1570726875,1.7592163,-12.882889,-0.02494812,1.2885284,1.1568146,-0.016403198,-1.1333032,-14.827381,-7.7485948
1570726875,1.7592163,-12.882889,-0.02494812,1.2885284,1.1568146,-0.016403198,-1.1333032,-14.827381,-7.7485948
1570726875,1.7592163,-12.882889,-0.02494812,1.2885284,1.1568146,-0.016403198,-1.1333032,-14.827381,-7.7485948
1570726875,1.7592163,-12.882889,-0.02494812,1.2885284,1.1568146,-0.016403198,-1.1333032,-14.827381,-7.7485948
1570726875,1.7592163,-12.882889,-0.02494812,1.2885284,1.1568146,-0.016403198,-1.1333032,-14.827381,-7.7485948
1570726875,1.7592163,-12.882889,-0.02494812,1.2885284,1.1568146,-0.016403198,-1.1333032,-14.827381,-7.7485948
1570726875,1.7592163,-12.882889,-0.02494812,1.2885284,1.1568146,-0.016403198,-1.1333032,-14.827381,-7.7485948
1570726875,1.7592163,-12.882889,-0.02494812,1.2885284,1.1568146,-0.016403198,-1.1333032,-14.827381,-7.7485948
1570726875,1.7592163,-12.882889,-0.02494812,1.2885284,1.1568146,-0.016403198,-1.1333032,-14.827381,-7.7485948
1570726875,1.7592163,-12.882889,-0.02494812,1.2885284,1.1568146,-0.016403198,-1.1333032,-14.827381,-7.7485948
1570726875,1.7592163,-12.882889,-0.02494812,1.2885284,1.1568146,-0.016403198,-1.1333032,-14.827381,-7.7485948
1570726875,1.7592163,-12.882889,-0.02494812,1.2885284,1.1568146,-0.016403198,-1.1333032,-14.827381,-7.7485948
1570726875,1.7592163,-12.882889,-0.02494812,1.2885284,1.1568146,-0.016403198,-1.1333032,-14.827381,-7.7485948
1570726875,1.7592163,-12.882889,-0.02494812,1.2885284,1.1568146,-0.016403198,-1.1333032,-14.827381,-7.7485948
1570726875,1.7592163,-12.882889,-0.02494812,1.2885284,1.1568146,-0.016403198,-1.1333032,-14.827381,-7.7485948
1570726875,1.7592163,-12.882889,-0.02494812,1.2885284,1.1568146,-0.016403198,-1.1333032,-14.827381,-7.7485948
1570726875,1.7592163,-12.882889,-0.02494812,1.2885284,1.1568146,-0.016403198,-1.1333032,-14.827381,-7.7485948
1570726875,1.7592163,-12.882889,-0.02494812,1.2885284,1.1568146,-0.016403198,-1.1333032,-14.827381,-7.7485948
1570726875,1.7592163,-12.882889,-0.02494812,1.2885284,1.1568146,-0.016403198,-1.1333032,-14.827381,-7.7485948
1570726875,1.7592163,-12.882889,-0.02494812,1.2885284,1.1568146,-0.016403198,-1.1333032,-14.827381,-7.7485948
1570726875,1.7592163,-12.882889,-0.02494812,1.2885284,1.1568146,-0.016403198,-1.1333032,-14.827381,-7.7485948
1570726875,1.7592163,-12.882889,-0.02494812,1.2885284,1.1568146,-0.016403198,-1.1333032,-14.827381,-7.7485948
1570726875,1.7592163,-12.882889,-0.02494812,1.2885284,1.1568146,-0.016403198,-1.1333032,-14.827381,-7.7485948
1570726875,1.7592163,-12.882889,-0.02494812,1.2885284,1.1568146,-0.016403198,-1.1333032,-14.827381,-7.7485948
1570726875,1.7592163,-12.882889,-0.02494812,1.2885284,1.1568146,-0.016403198,-1.1333032,-14.827381,-7.7485948
1570726875,1.7592163,-12.882889,-0.02494812,1.2885284,1.1568146,-0.016403198,-1.1333032,-14.827381,-7.7485948
1570726875,1.7592163,-12.882889,-0.02494812,1.2885284,1.1568146,-0.016403198,-1.1333032,-14.827381,-7.7485948
1570726875,1.7592163,-12.882889,-0.02494812,1.2885284,1.1568146,-0.016403198,-1.1333032,-14.827381,-7.7485948
1570726875,1.7592163,-12.882889,-0.02494812,1.2885284,1.1568146,-0.016403198,-1.1333032,-14.827381,-7.7485948
1570726875,1.7592163,-12.882889,-0.02494812,1.2885284,1.1568146,-0.016403198,-1.1333032,-14.827381,-7.7485948
1570726875,1.7592163,-12.882889,-0.02494812,1.2885284,1.1568146,-0.016403198,-1.1333032,-14.827381,-7.7485948
1570726875,1.7592163,-12.882889,-0.02494812,1.2885284,1.1568146,-0.016403198,-1.1333032,-14.827381,-7.7485948
1570726875,1.7592163,-12.882889,-0.02494812,1.2885284,1.1568146,-0.016403198,-1.1333032,-14.827381,-7.7485948
1570726875,1.7592163,-12.882889,-0.02494812,1.2885284,1.1568146,-0.016403198,-1.1333032,-14.827381,-7.7485948
1570726875,1.7592163,-12.882889,-0.02494812,1.2885284,1.1568146,-0.016403198,-1.1333032,-14.827381,-7.7485948
1570726875,1.7592163,-12.882889,-0.02494812,1.2885284,1.1568146,-0.016403198,-1.1333032,-14.827381,-7.7485948
1570726875,1.7592163,-12.882889,-0.02494812,1.2885284,1.1568146,-0.016403198,-1.1333032,-14.827381,-7.7485948
1570726875,1.7592163,-12.882889,-0.02494812,1.2885284,1.1568146,-0.016403198,-1.1333032,-14.827381,-7.7485948
1570726875,1.7592163,-12.882889,-0.02494812,1.2885284,1.1568146,-0.016403198,-1.1333032,-14.827381,-7.7485948
1570726875,1.7592163,-12.882889,-0.02494812,1.2885284,1.1568146,-0.016403198,-1.1333032,-14.827381,-7.7485948
1570726875,1.7592163,-12.882889,-0.02494812,1.2885284,1.1568146,-0.016403198,-1.1333032,-14.827381,-7.7485948
1570726875,1.7592163,-12.882889,-0.02494812,1.2885284,1.1568146,-0.016403198,-1.1333032,-14.827381,-7.7485948
1570726875,-4.013199,-4.0219574,2.9115448,-0.4180298,-0.077819824,0.75697327,-1.4073923,4.411351,1.9278686
1570726875,-5.9596863,-15.678116,7.082245,3.1442108,6.638672,-0.21987915,-3.1816368,-6.307453,4.7617164
1570726875,-5.5921783,-21.669617,10.249771,3.068573,2.1847992,0.1359253,-3.050132,-13.158692,9.106377
1570726875,-1.0503845,-20.464127,4.6269836,3.75354,2.755783,-0.6843262,1.3020356,-12.569349,2.4150753
1570726875,1.967514,-18.557144,7.2953186,3.8749847,4.091614,-2.5240326,4.5875983,-10.842698,3.830358
1570726875,2.9072418,-14.481018,9.086182,4.248886,3.5579224,-5.0732117,5.4486685,-6.938352,5.398409
1570726875,-0.5176697,-14.235611,8.992813,5.1639557,3.9552612,-6.7595367,1.2718358,-6.580449,4.3628
1570726875,-2.5287933,-12.568054,8.729446,6.0981903,4.034088,-7.271927,-1.923842,-5.667989,3.1971912
1570726876,-3.496048,-9.759659,7.902252,6.4859467,3.8604584,-6.877777,-3.6684232,-4.1477165,1.0610461
1570726876,-2.8580017,-6.471222,6.1484985,5.794586,3.375763,-6.5518036,-3.4016893,-2.1460814,-1.6161165
1570726876,-2.574295,-5.79126,4.497696,5.055298,3.554718,-6.908661,-2.9269845,-2.730748,-3.9554214
1570726876,-2.6664581,-4.139267,4.1014557,4.0443573,3.0625763,-6.8958893,-2.487375,-2.6202676,-4.9091797
1570726876,-2.7634277,-3.5059967,3.7243652,3.0110626,2.6322021,-6.6636505,-2.249612,-2.6526616,-5.42432
1570726876,-3.2518463,0.1798706,4.2307434,2.0139618,1.1759949,-5.7219696,-2.9242969,0.090112895,-4.6038666
1570726876,-2.9765167,-0.74668884,7.656845,0.5779877,-0.17156982,-4.646042,-2.6478481,0.38915908,-5.2471743
1570726876,-1.5028839,3.4958496,10.557419,1.0051575,0.1085968,-2.8649292,-0.96472347,3.6899076,1.8152485
1570726876,1.3318481,0.22416687,11.021896,1.2160797,-1.2719879,-2.0531921,1.6204976,0.82501394,0.24384117
1570726876,0.2963562,0.26846313,9.129288,1.1990356,-2.2829285,-2.0531921,0.6506344,-0.10328308,-0.023983955
1570726876,0.7069702,0.98791504,8.2673645,0.94018555,-1.4882355,-1.8507843,0.5593661,0.1602174,-0.8184223
1570726876,0.47712708,2.0617218,8.637268,0.7015686,-0.65945435,-1.5195007,0.24300781,0.9727931,-0.38265705
1570726876,0.35263062,1.9456024,9.438141,0.73991394,-0.5050049,-1.2457275,0.13506731,0.7541274,0.3697853
1570726876,0.8769531,1.944397,9.490799,0.7825165,-0.7404175,-1.1849976,0.5149105,0.31354284,0.7238188
1570726876,0.62435913,2.9463654,8.212296,0.5609436,-0.4197693,-1.1178894,-0.01789254,1.287658,-0.66716576
1570726876,0.8961029,2.6255493,8.808456,0.29463196,-0.22802734,-0.8845978,0.21587938,1.0289488,-0.24959755
1570726876,0.73210144,2.4986572,9.360321,0.28823853,-0.25360107,-0.8494415,0.040094793,0.6278503,0.36800957
1570726876,0.34783936,2.9164429,9.201111,0.062408447,-0.5518646,-0.9272003,-0.26477635,0.7375736,0.6001806
1570726876,0.88053894,2.9104614,9.240616,-0.11869812,-0.365448,-0.63105774,-0.071908176,1.2021674,0.19110298
1570726876,1.3258667,2.620758,9.92775,0.06347656,-0.59980774,-0.5362549,0.423558,0.7125405,1.0499973
1570726876,1.2061615,2.308319,9.171173,0.23284912,-0.7446747,-0.53518677,0.18524611,0.3470602,0.38144302
1570726876,1.0170135,2.5680847,8.596573,0.15507507,-0.66052246,-0.52879333,-0.08460677,0.5153334,-0.18202686
1570726876,1.6395111,2.4711304,8.9748535,-0.1762085,-0.15026855,-0.46488953,0.4037416,0.46903253,0.13148594
1570726876,1.8513947,2.5202026,9.561432,-0.15490723,-0.061843872,-0.45529175,0.5753652,0.53012276,0.7964115
1570726876,1.5856323,2.1467133,8.630096,-0.35943604,-0.08634949,-0.50642395,0.37230754,0.17985332,-0.18702507
1570726876,1.6179657,2.3825378,9.316025,-0.53201294,0.2108612,-0.5937805,0.42706466,0.45070493,0.51305676
1570726876,1.1044006,2.581253,10.345535,0.049621582,-0.027755737,-0.5884552,0.0071538687,0.7453885,1.4560318
1570726876,1.1295471,2.3849335,9.73143,0.31381226,-0.51138306,-0.4947052,-0.0576005,0.48394072,0.9197502
1570726876,1.7232971,2.7057495,9.247787,0.3574829,-0.5454712,-0.4403839,0.42755044,0.6761749,0.43226242
1570726876,1.6873932,2.620758,8.82402,0.30421448,-0.29408264,-0.48512268,0.46250725,0.5042124,0.124155045
1570726876,1.7268982,2.8793335,9.052673,0.2083435,-0.042678833,-0.45317078,0.34906816,0.6575811,0.24629974
1570726876,2.058487,3.08284,9.515945,0.27545166,-0.18754578,-0.36260986,0.67042863,0.796546,0.7385969
1570726876,1.8502045,3.1115723,9.166397,0.24456787,-0.2589264,-0.32214355,0.4301293,0.7348769,0.45769596
1570726876,1.8896942,3.0660858,9.070618,0.14762878,-0.25360107,-0.26887512,0.37580097,0.63007426,0.3434887
1570726877,2.0944061,2.6937866,9.304062,0.13270569,-0.3153839,-0.37113953,0.5498309,0.17872119,0.6093178
1570726877,2.303894,3.1079865,9.262161,0.20301819,-0.36012268,-0.46061707,0.7127024,0.533654,0.58944416
1570726877,1.7783661,3.5892181,9.380676,0.19450378,-0.24932861,-0.47979736,0.1921742,0.9130564,0.7319269
1570726877,1.7975311,3.6790009,9.381866,0.23710632,-0.23867798,-0.48405457,0.13864481,0.95337176,0.76666355
1570726877,2.0058136,3.7400513,9.171173,0.2733307,-0.21737671,-0.54478455,0.33972788,0.90648127,0.62645626
1570726877,1.6562653,3.9268036,8.942535,0.2637329,-0.2589264,-0.57141113,-0.021909595,0.96955156,0.383049
1570726877,1.8956909,4.202133,9.223846,0.3479004,-0.44215393,-0.52027893,0.119007826,1.1409853,0.7133522
1570726877,1.9747009,4.1362915,9.067032,0.41926575,-0.5167084,-0.50323486,0.16777134,0.9576676,0.6253071
1570726877,1.730484,4.538513,8.988022,0.34683228,-0.50819397,-0.3700714,-0.14853823,1.1853342,0.5762167
1570726877,2.1039886,4.6342926,9.09935,0.38838196,-0.63175964,-0.24969482,0.08591342,1.1829207,0.7852888
1570726877,2.4391632,4.186569,8.395462,0.28398132,-0.44108582,-0.22839355,0.3131013,0.6435292,0.16426277
1570726877,2.5983887,4.695343,8.326035,0.10821533,-0.30685425,-0.20709229,0.37697005,1.0523665,0.08595848
1570726877,2.5217743,4.9156036,8.8168335,-0.0068359375,-0.070373535,-0.15063477,0.31392837,1.2886751,0.58134556
1570726877,2.2512207,4.5899963,8.309265,-0.18260193,0.2300415,-0.037704468,-0.0041487217,0.85957503,-0.40921497
1570726877,2.18898,4.825821,9.258575,-0.25930786,0.3642578,0.07946777,0.08184862,1.2312484,0.9170761
1570726877,2.0477142,5.0460815,9.851135,-0.052642822,-0.018173218,0.25097656,-0.002543211,1.4640591,1.5811996
1570726877,2.0477142,4.3685303,8.630096,0.04748535,-0.15771484,0.36495972,-0.19104981,0.86491466,0.3538494
1570726877,3.0413055,4.1135406,8.567841,-0.051574707,0.10220337,0.27548218,0.8066554,0.6647599,0.22173023
