time,ax,ay,az,gx,gy,gz,la_x,la_y,la_z,fox,foy,foz
1570715331,12.477982,0.5057678,9.827606,-0.21360779,1.4632721,3.9846954,5.102491,-2.498074,3.0273318
1570715331,19.58577,4.1802826,19.612701,2.509201,1.6667328,2.7564545,7.3168178,-0.63682556,12.827028
1570715331,8.210312,-1.1923065,4.1802826,2.2929535,2.1919098,1.6379242,0.910995,-3.2004523,-2.6195312
1570715331,11.896194,-1.5993195,8.313263,1.6229095,1.6241302,1.2799988,6.139527,-3.4113004,1.7284336
1570715331,12.063187,-2.126648,6.6319427,1.008255,2.0875092,0.7175293,4.4922433,-5.153277,-0.60834694
1570715331,10.922348,6.2686157,-0.89064026,0.6162262,-2.3834076,-0.49473572,4.3991494,0.76805234,-9.474423
1570715331,7.505829,11.4622345,10.093948,2.9022827,-2.950119,-1.6249847,0.7285886,8.630327,4.0088754
1570715331,9.567825,8.605957,-4.5429993,2.5198517,-3.1333466,-3.2473755,-0.40935087,3.5066452,-8.634006
1570715331,7.9948425,9.039902,3.1052856,-0.017608643,-5.8998413,-4.8346252,0.15222073,3.209515,-2.9258018
1570715331,9.592377,7.250244,4.8793793,-0.18804932,-5.975479,-5.2511444,1.9313374,0.49225283,2.2531946
1570715331,13.664902,5.8167114,4.3035736,-1.5686188,-5.8242035,-5.067917,6.529992,-1.3521657,1.4115689
1570715331,15.288773,2.0614014,9.925156,-2.1161652,-2.3652954,-3.2729492,9.105607,-6.060112,6.620976
1570715331,13.77623,-0.59495544,3.5511932,-0.11987305,2.1620789,-1.7741241,9.424786,-8.484308,3.3235972
1570715331,12.17392,0.3471527,-0.35673523,1.0284882,3.1378632,0.64190674,7.0630174,-9.350972,-2.6978645
1570715331,11.281479,4.8931427,-2.826355,1.1925354,2.6797943,1.4206085,6.58875,-4.2655306,-5.765398
1570715331,8.806473,3.1926727,-6.341049,0.42767334,0.65792847,2.2770844,3.1776567,-6.2140045,-9.559742
1570715332,8.312073,4.7686462,1.5316925,1.0732269,0.3106537,2.066162,2.3666406,-2.7329378,-0.74409246
1570715332,7.5369415,6.486496,0.3321991,0.29664612,0.4608612,1.9425812,1.6161532,-1.4312124,-6.082562
1570715332,6.0693054,5.6640778,4.660309,0.26255798,-0.25074768,1.9883881,-1.0281043,4.8100905,1.0645359
1570715332,8.510193,2.135025,-0.38786316,0.6694946,-0.85261536,2.5338135,-0.32583904,-5.407372,-1.9505057
1570715332,14.043198,7.2197113,7.507614,0.9869385,-0.13569641,2.7436676,4.6306915,0.5266218,4.3147097
1570715332,9.529526,6.8970947,-2.6617584,0.7557831,1.7860413,1.2874451,1.5513115,0.84860754,-3.823102
1570715332,7.7745667,10.685318,-5.4222717,-1.2597046,-0.6779175,-1.6537476,-0.85239124,3.9304237,-1.6936443
1570715332,6.988083,9.260773,-1.8471222,-5.124481,-4.713135,-1.2713165,-2.453352,1.8527474,-1.8318136
1570715332,6.9910736,12.458221,7.3274536,-5.2416534,-4.989044,-3.111023,0.22839737,5.723669,3.9640698
1570715332,2.4618378,3.9516296,5.5407867,-2.032013,-1.7911072,-4.4276886,-3.4340796,-1.2711277,4.7553387
1570715332,2.0290833,7.0616913,3.3536835,-0.19230652,-0.54582214,-3.4838715,-3.658965,-0.73873997,2.1409724
1570715332,5.158905,11.498749,7.171234,0.49479675,-0.8877716,-2.9629517,-2.1129541,2.6601543,4.2569337
1570715332,5.787979,9.097366,1.177948,-0.6397095,-0.30187988,-3.1099548,1.6397424,-0.16627121,0.15197921
1570715332,10.426743,7.991852,9.394852,-1.8977966,0.3894806,-2.0787811,5.471415,-0.3898945,6.2543
1570715332,9.085999,6.250061,2.9753876,-1.4216156,2.5168152,-1.0454865,5.4313474,-2.8727436,1.3155334
1570715332,9.179962,5.5162354,2.8054047,-1.3438568,1.9969635,0.22111511,5.6300664,-3.6861944,-1.7002685
1570715332,10.081985,9.008179,3.7529144,-0.35635376,2.3634186,0.48849487,6.643441,0.08814716,-1.7344043
1570715332,7.826645,5.756851,-3.493744,1.1126404,2.5903168,-0.09739685,4.8592925,-2.56781,-5.642521
1570715332,4.9781494,5.6862335,-5.8137207,1.1829529,-0.58203125,0.91993713,1.6812065,-4.139703,-9.923243
1570715332,4.2203827,7.187393,-0.8595123,0.963501,-3.2547913,0.6482849,0.9168627,-1.3515663,-4.4760156
1570715332,2.8700562,6.9623413,1.60112,0.2913208,-3.5978088,0.5140686,-1.5833368,-1.9627361,-0.18676889
1570715332,2.8700562,6.9623413,1.60112,0.2913208,-3.5978088,0.5140686,-1.5833368,-1.9627361,-0.18676889
1570715332,6.1680603,9.011169,0.18974304,-0.48738098,-2.6987152,0.7612152,0.15975094,-0.1125927,-0.4188946
1570715332,6.1680603,9.011169,0.18974304,-0.48738098,-2.6987152,0.7612152,0.15975094,-0.1125927,-0.4188946
1570715332,7.6243286,8.538315,1.790268,-1.1158905,-2.1170807,0.2637329,2.2594995,-0.24043751,1.2842813
1570715332,6.8911133,8.638275,2.5019379,-1.2160187,-1.9189453,0.15081787,1.5431933,-0.0384264,1.7153741
1570715332,7.8565674,7.9188232,1.2521667,-0.92840576,-0.95913696,0.80807495,1.8772826,-1.1173277,1.989526
1570715332,8.771164,8.383896,-0.25198364,-0.6088257,0.43421936,1.3535004,3.7457862,1.4823642,-1.2424287
1570715332,8.201935,7.7937317,0.14245605,-0.72387695,0.41184998,1.3108826,3.7457862,1.4823642,-1.2424287
1570715332,9.265564,4.158722,5.209778,0.060165405,-0.73117065,2.7873383,0.80471516,-6.29197,6.0895195
1570715332,9.265564,4.158722,5.209778,0.060165405,-0.73117065,2.7873383,0.80471516,-6.29197,6.0895195
1570715332,4.7423096,7.713516,-0.47105408,1.3193054,-0.74928284,2.6786804,-3.9810886,-3.6278992,-0.692692
1570715332,4.7423096,7.713516,-0.47105408,1.3193054,-0.74928284,2.6786804,-3.9810886,-3.6278992,-0.692692
1570715333,3.5793304,8.278549,-0.58299255,1.2756348,-1.4704742,1.4887848,-6.876074,1.252842,0.8117358
1570715333,5.88974,9.099167,-1.790268,0.060165405,-0.69496155,1.6517639,-1.894269,9.820389,1.1508048
1570715333,5.88974,9.099167,-1.790268,0.060165405,-0.69496155,1.6517639,-1.894269,9.820389,1.1508048
1570715333,8.060074,2.4061737,-5.566513,-0.9347992,-0.08029175,1.3811951,-1.2707882,-1.4015975,-4.8838964
1570715333,9.405029,2.1290436,0.83018494,-0.5214691,0.24887085,-1.6154022,-0.033554077,-1.8864412,1.8759598
1570715333,9.405029,2.1290436,0.83018494,-0.5214691,0.24887085,-1.6154022,-0.033554077,-1.8864412,1.8759598
1570715333,15.015244,-0.23043823,2.0745697,-0.43624878,1.1777802,-0.8398895,5.4801493,-7.193703,3.3736005
1570715333,15.015244,-0.23043823,2.0745697,-0.43624878,1.1777802,-0.8398895,5.4801493,-7.193703,3.3736005
1570715333,10.794266,7.1526794,-3.8612518,-0.7132263,1.3918915,-1.327774,2.4648008,0.45862246,-4.7720695
1570715333,7.55072,8.3545685,-1.5245056,-0.7963104,1.9671326,-1.627121,-0.49811268,2.2646828,-2.193456
1570715333,5.7065735,5.828079,-3.2190094,-1.1925812,0.8422241,-2.0159302,-1.5267296,1.2531915,-5.788585
1570715333,2.2649078,5.4689484,8.452133,-2.9374847,-0.7705841,-1.9871674,-4.660399,-0.22484207,5.7544136
1570715333,2.2170258,4.786606,9.146454,-2.860794,-0.71733093,-1.9339142,-4.660399,-0.22484207,5.7544136
1570715333,2.0422516,-0.6937256,7.9912415,-1.5686188,0.40333557,-1.1157837,-4.7645764,-6.7522902,5.8554153
1570715333,2.2230225,-3.8492737,4.6944275,-0.4330597,0.013442993,0.8144684,-4.792577,-10.711357,2.0263495
1570715333,7.906845,3.534439,0.9008179,1.4194336,-2.3578339,1.8861237,-0.06441355,-4.3217487,-1.9541023
1570715333,8.194748,3.534439,3.1842957,0.8079834,-2.2971191,1.2821198,0.37889862,-1.6542115,1.4806061
1570715333,8.753799,1.1139069,3.1699219,0.6876068,-1.2702026,1.9479065,-0.06715679,-5.8202214,2.4074588
1570715333,6.7654114,5.012863,-2.4175415,0.90171814,-1.6036224,3.1868134,-2.1435509,1.7983117,-1.959291
1570715333,6.7654114,5.012863,-2.4175415,0.90171814,-1.6036224,3.1868134,-2.1435509,1.7983117,-1.959291
1570715333,12.644974,6.5876465,14.0234375,2.1161194,1.8254547,1.0019531,2.659256,3.2381303,14.273918
1570715333,12.644974,6.5876465,14.0234375,2.1161194,1.8254547,1.0019531,2.659256,3.2381303,14.273918
1570715333,9.31105,2.5067291,-0.90859985,3.3592834,5.4526825,0.5545502,1.7993784,0.41100693,-0.34405887
1570715333,8.246826,0.6793518,0.881073,-0.19017029,0.12210083,1.0072784,-2.526845,-2.389345,-3.5548632
1570715333,9.021957,0.87268066,3.0585938,-0.22853088,-0.062194824,0.73350525,-1.3221884,-2.2465203,-1.8350551
1570715333,5.715561,1.4724274,5.4330444,-1.6772766,-2.1746063,-0.6630554,-3.6189346,-0.7337153,-7.0950737
1570715333,5.715561,1.4724274,5.4330444,-1.6772766,-2.1746063,-0.6630554,-3.6189346,-0.7337153,-7.0950737
1570715333,8.928574,4.4759674,-9.290695,-0.11773682,-3.0087128,-4.706787,0.646225,1.1220193,-13.131853
1570715333,19.612701,-0.93733215,2.1553802,-1.0157471,-3.1386719,-2.0968933,10.959783,-2.5128279,2.6505358
1570715333,19.612701,-0.93733215,2.1553802,-1.0157471,-3.1386719,-2.0968933,10.959783,-2.5128279,2.6505358
1570715333,6.7893524,4.9637756,-3.0490112,-1.2330627,-0.60121155,-2.5187378,1.366817,-0.7439313,-4.4038177
1570715333,6.7893524,4.9637756,-3.0490112,-1.2330627,-0.60121155,-2.5187378,1.366817,-0.7439313,-4.4038177
1570715333,12.081741,9.015961,5.5832825,4.7089844,7.042053,1.5718689,3.7285447,3.801324,6.7928147
1570715333,12.081741,9.015961,5.5832825,4.7089844,7.042053,1.5718689,3.7285447,3.801324,6.7928147
1570715334,9.880875,4.194046,-1.2270355,3.4658203,-2.2832642,1.7199402,2.6330223,-4.586227,-7.9576283
1570715334,8.1887665,7.8092804,-0.052078247,1.5089264,-8.860214,-2.79039,2.9941244,1.738411,2.5500114
1570715334,8.1887665,7.8092804,-0.052078247,1.5089264,-8.860214,-2.79039,2.9941244,1.738411,2.5500114
1570715334,3.8923798,6.158478,-0.85054016,-0.19442749,0.57164,-0.24865723,-3.6766434,0.5623226,3.3499274
1570715334,3.8923798,6.158478,-0.85054016,-0.19442749,0.57164,-0.24865723,-3.6766434,0.5623226,3.3499274
1570715334,7.5166016,6.5247955,-2.3307495,0.22421265,1.5772552,0.2679901,1.0362816,-0.12099028,1.2591796
1570715334,2.3744507,4.905121,-3.6673126,0.75257874,0.19241333,0.6578827,-2.2344398,-1.3861861,-0.6270182
1570715334,6.7546387,5.4898987,-4.165909,-0.5992279,-1.1626129,1.2128754,0.4721222,0.3809147,-1.9193628
1570715334,6.7546387,5.4898987,-4.165909,-0.5992279,-1.1626129,1.2128754,0.4721222,0.3809147,-1.9193628
1570715334,7.6387024,5.0098724,-2.7341766,0.20930481,-0.38282776,0.20513916,0.5321379,-0.9208894,0.62078786
1570715334,7.6387024,5.0098724,-2.7341766,0.20930481,-0.38282776,0.20513916,0.5321379,-0.9208894,0.62078786
1570715334,2.597107,5.1774597,-5.4581757,-0.28071594,0.090148926,-1.1381531,-3.273388,-1.6718025,-1.3077755
1570715334,2.597107,5.1774597,-5.4581757,-0.28071594,0.090148926,-1.1381531,-3.273388,-1.6718025,-1.3077755
1570715334,8.7155,5.210388,-3.8923798,-1.983017,1.8595428,-2.600769,2.8147893,-2.4611154,-0.08131933
1570715334,8.7155,5.210388,-3.8923798,-1.983017,1.8595428,-2.600769,2.8147893,-2.4611154,-0.08131933
1570715334,7.5722656,5.170883,-4.594467,-0.103881836,0.55033875,0.0037994385,1.7517295,-1.7684059,-2.9904451
1570715334,7.5722656,5.170883,-4.594467,-0.103881836,0.55033875,0.0037994385,1.7517295,-1.7684059,-2.9904451
1570715334,6.2716064,3.3542786,-3.8690338,0.34352112,0.50772095,0.30633545,0.7609315,-3.6862392,-1.7937526
1570715334,6.2716064,3.3542786,-3.8690338,0.34352112,0.50772095,0.30633545,0.7609315,-3.6862392,-1.7937526
1570715334,6.2716064,3.3542786,-3.8690338,0.34352112,0.50772095,0.30633545,0.7609315,-3.6862392,-1.7937526
1570715334,2.21344,5.339676,3.3854065,-0.8154907,0.7250366,0.21792603,-3.6347284,-2.6774883,4.121731
1570715334,2.21344,5.339676,3.3854065,-0.8154907,0.7250366,0.21792603,-3.6347284,-2.6774883,4.121731
1570715334,3.628418,7.416046,0.21009827,-0.3638153,1.4717865,-0.99754333,-3.9494414,-1.4525938,2.610664
1570715334,3.9546204,5.817917,-0.64105225,-0.776062,0.87098694,-2.201294,-1.5388775,-2.338626,0.1370059
1570715334,4.4855347,5.9627533,-0.66319275,-0.836792,0.77830505,-2.2865143,-1.5388775,-2.338626,0.1370059
1570715334,4.4855347,5.9627533,-0.66319275,-0.836792,0.77830505,-2.2865143,-1.5388775,-2.338626,0.1370059
1570715334,4.4855347,5.9627533,-0.66319275,-0.836792,0.77830505,-2.2865143,-1.5388775,-2.338626,0.1370059
1570715334,-2.6348114,-0.7068939,0.9313507,-0.8932495,0.39694214,-5.1286316,-1.5388775,-2.338626,0.1370059
1570715334,-3.1004944,0.9624634,0.18255615,-1.2767487,0.70266724,-3.0545654,-2.090241,-9.011993,-1.6497198
1570715334,2.0835571,19.612701,7.167038,-1.8296204,-1.3820496,1.0094147,2.826765,9.907192,4.151434
1570715334,2.0835571,19.612701,7.167038,-1.8296204,-1.3820496,1.0094147,2.826765,9.907192,4.151434
1570715334,2.0835571,19.612701,7.167038,-1.8296204,-1.3820496,1.0094147,2.826765,9.907192,4.151434
1570715334,2.0835571,19.612701,7.167038,-1.8296204,-1.3820496,1.0094147,2.826765,9.907192,4.151434
1570715335,2.0835571,19.612701,7.167038,-1.8296204,-1.3820496,1.0094147,2.826765,9.907192,4.151434
1570715335,6.2997437,10.715851,-1.3066406,0.4042511,-0.5064087,0.14228821,7.609461,2.3063984,-4.638158
1570715335,3.1238403,8.353363,-4.122223,1.7603302,0.6451416,0.87306213,5.113866,-0.5068712,-7.7025995
1570715335,1.6921082,9.215286,-0.3818817,3.4721985,0.026229858,1.077591,2.7759032,-0.37396622,-4.285755
1570715335,-1.5688019,9.557053,4.5920715,4.247711,0.28295898,0.85920715,0.15189296,0.011462212,1.8259053
1570715335,-1.5688019,9.557053,4.5920715,4.247711,0.28295898,0.85920715,0.15189296,0.011462212,1.8259053
1570715335,-1.5688019,9.557053,4.5920715,4.247711,0.28295898,0.85920715,0.15189296,0.011462212,1.8259053
1570715335,-1.5688019,9.557053,4.5920715,4.247711,0.28295898,0.85920715,0.15189296,0.011462212,1.8259053
1570715335,-0.83317566,19.612701,-4.735138,2.8788605,-0.22091675,2.9769592,-3.056547,10.076541,-1.5634937
1570715335,5.406708,11.909958,-6.2626343,2.4612732,-2.7338715,1.7263336,3.0527413,3.4795008,-0.73506355
1570715335,5.406708,11.909958,-6.2626343,2.4612732,-2.7338715,1.7263336,3.0527413,3.4795008,-0.73506355
1570715335,5.3139343,11.939285,-6.5625,2.2492828,-3.1930084,1.7199402,3.0636997,3.1999846,-2.2251625
1570715335,5.3139343,11.939285,-6.5625,2.2492828,-3.1930084,1.7199402,3.0636997,3.1999846,-2.2251625
1570715335,5.3139343,11.939285,-6.5625,2.2492828,-3.1930084,1.7199402,3.0636997,3.1999846,-2.2251625
1570715335,5.3139343,11.939285,-6.5625,2.2492828,-3.1930084,1.7199402,3.0636997,3.1999846,-2.2251625
1570715335,-3.0561981,-0.8439636,1.5622101,-2.478363,4.6132507,-0.72058105,-4.1416154,-10.499646,5.1559467
1570715335,-2.4935608,4.6513367,-7.0700836,-0.46287537,4.3959503,-0.49899292,-4.1987715,-3.8580484,-4.9297185
1570715335,-2.9107513,3.8690338,-2.2349854,-0.51400757,4.4758453,-0.6470642,-4.3325,-4.477742,-3.552927
1570715335,-2.9107513,3.8690338,-2.2349854,-0.51400757,4.4758453,-0.6470642,-4.3325,-4.477742,-3.552927
1570715335,-2.9107513,3.8690338,-2.2349854,-0.51400757,4.4758453,-0.6470642,-4.3325,-4.477742,-3.552927
1570715335,-2.9107513,3.8690338,-2.2349854,-0.51400757,4.4758453,-0.6470642,-4.3325,-4.477742,-3.552927
1570715335,-2.9107513,3.8690338,-2.2349854,-0.51400757,4.4758453,-0.6470642,-4.3325,-4.477742,-3.552927
1570715335,13.822922,17.495026,19.480423,-6.2962646,-5.2489624,-2.185318,21.228823,10.526016,13.986431
1570715335,6.518814,13.211212,8.859741,-5.3194275,8.821045,3.2656403,2.7697155,3.8027573,15.567384
1570715335,6.518814,13.211212,8.859741,-5.3194275,8.821045,3.2656403,2.7697155,3.8027573,15.567384
1570715335,6.518814,13.211212,8.859741,-5.3194275,8.821045,3.2656403,2.7697155,3.8027573,15.567384
1570715335,6.518814,13.211212,8.859741,-5.3194275,8.821045,3.2656403,2.7697155,3.8027573,15.567384
1570715335,9.48703,1.5472565,-1.1689758,2.2460785,-0.8654022,-0.40205383,13.609451,-6.1672983,-5.0248804
1570715335,9.052475,1.8968048,-1.2731171,2.2354279,-1.1210632,-0.24865723,13.609451,-6.1672983,-5.0248804
1570715335,6.71933,0.36032104,-0.8666992,2.043686,-2.1756744,0.95295715,9.244013,-7.7534256,-4.3813305
1570715335,1.10672,-0.6799469,-2.6306305,3.445572,2.5381165,1.969223,5.2331905,-9.53689,-2.0665383
1570715335,1.10672,-0.6799469,-2.6306305,3.445572,2.5381165,1.969223,5.2331905,-9.53689,-2.0665383
1570715335,1.10672,-0.6799469,-2.6306305,3.445572,2.5381165,1.969223,5.2331905,-9.53689,-2.0665383
1570715336,1.10672,-0.6799469,-2.6306305,3.445572,2.5381165,1.969223,5.2331905,-9.53689,-2.0665383
1570715336,1.10672,-0.6799469,-2.6306305,3.445572,2.5381165,1.969223,5.2331905,-9.53689,-2.0665383
1570715336,14.9440155,19.612701,-0.6464386,2.9971008,-1.7804565,3.942093,9.648513,10.94188,2.7530565
1570715336,-7.3980865,3.7241821,5.9501953,2.7073517,-4.79303,2.1354065,-7.301202,-2.160509,11.481102
1570715336,-7.210739,-2.5408478,8.493423,2.2407532,-4.9815826,1.7977142,-8.231436,-7.2865314,11.471099
1570715336,-7.210739,-2.5408478,8.493423,2.2407532,-4.9815826,1.7977142,-8.231436,-7.2865314,11.471099
1570715336,-7.210739,-2.5408478,8.493423,2.2407532,-4.9815826,1.7977142,-8.231436,-7.2865314,11.471099
1570715336,-7.210739,-2.5408478,8.493423,2.2407532,-4.9815826,1.7977142,-8.231436,-7.2865314,11.471099
1570715336,-5.072708,-1.2270355,1.1558075,-2.8778381,7.1560364,-1.3117981,-6.2877507,-17.456598,13.03908
1570715336,-0.34835815,10.530899,6.027405,-2.045868,5.254547,0.21685791,-2.243732,0.6777735,4.3063645
1570715336,-0.33818054,15.444992,12.518677,-0.7334595,5.7424316,-0.82710266,-0.32862628,5.1854706,13.52183
1570715336,-0.33818054,15.444992,12.518677,-0.7334595,5.7424316,-0.82710266,-0.32862628,5.1854706,13.52183
1570715336,-0.33818054,15.444992,12.518677,-0.7334595,5.7424316,-0.82710266,-0.32862628,5.1854706,13.52183
1570715336,-0.33818054,15.444992,12.518677,-0.7334595,5.7424316,-0.82710266,-0.32862628,5.1854706,13.52183
1570715336,12.962799,19.612701,17.228668,-9.043594,-3.0161743,-0.39033508,20.136837,11.087862,17.84672
1570715336,12.962799,19.612701,17.228668,-9.043594,-3.0161743,-0.39033508,20.136837,11.087862,17.84672
1570715336,-3.596695,14.755463,8.075638,0.5054474,-1.800705,0.30633545,0.80109024,7.656801,0.12383556
1570715336,-3.596695,14.755463,8.075638,0.5054474,-1.800705,0.30633545,0.80109024,7.656801,0.12383556
1570715336,-5.688019,13.590683,8.446747,0.011154175,-0.6864319,0.14442444,0.80109024,7.656801,0.12383556
1570715336,-5.688019,13.590683,8.446747,0.011154175,-0.6864319,0.14442444,0.80109024,7.656801,0.12383556
1570715336,-5.688019,13.590683,8.446747,0.011154175,-0.6864319,0.14442444,0.80109024,7.656801,0.12383556
1570715336,-5.688019,13.590683,8.446747,0.011154175,-0.6864319,0.14442444,0.80109024,7.656801,0.12383556
1570715336,0.47584534,-0.4303589,-1.2216339,3.7704773,-0.80255127,1.9660187,2.8956642,-8.421096,-1.9179661
1570715336,-0.99838257,2.5163116,-2.482788,4.591797,-1.6494293,2.3910675,0.93775463,-7.4100857,-3.351653
1570715336,-1.1587982,9.1853485,-2.7072449,5.3012695,-2.680603,2.894928,0.035878897,-1.1497021,-2.4219286
1570715336,-1.1587982,9.1853485,-2.7072449,5.3012695,-2.680603,2.894928,0.035878897,-1.1497021,-2.4219286
1570715336,-1.1587982,9.1853485,-2.7072449,5.3012695,-2.680603,2.894928,0.035878897,-1.1497021,-2.4219286
1570715336,-1.1587982,9.1853485,-2.7072449,5.3012695,-2.680603,2.894928,0.035878897,-1.1497021,-2.4219286
1570715336,-6.6265564,-10.406403,8.291122,0.79945374,-6.17894,1.3535004,-7.0548983,-16.173588,14.63163
1570715336,-6.6265564,-10.406403,8.291122,0.79945374,-6.17894,1.3535004,-7.0548983,-16.173588,14.63163
1570715336,-9.237427,-12.340317,7.4723053,-2.9151154,-1.7080231,-0.094192505,-9.517637,-19.991892,12.113827
1570715336,-9.237427,-12.340317,7.4723053,-2.9151154,-1.7080231,-0.094192505,-9.517637,-19.991892,12.113827
1570715336,-9.237427,-12.340317,7.4723053,-2.9151154,-1.7080231,-0.094192505,-9.517637,-19.991892,12.113827
1570715336,-9.237427,-12.340317,7.4723053,-2.9151154,-1.7080231,-0.094192505,-9.517637,-19.991892,12.113827
1570715337,-9.237427,-12.340317,7.4723053,-2.9151154,-1.7080231,-0.094192505,-9.517637,-19.991892,12.113827
1570715337,4.8560333,15.165466,10.386047,-0.8005676,6.2132874,0.30101013,2.2861853,6.427547,8.579697
1570715337,1.2324219,19.612701,8.058884,0.24339294,7.6641693,-4.9858856,6.1341105,11.54073,10.653584
1570715337,-12.008118,12.82753,4.027054,0.50331116,6.129135,-5.44928,-4.971324,11.451852,7.637725
1570715337,-12.539627,7.626129,-1.1474152,0.7632446,4.5504,-4.655655,-13.655472,0.6994982,0.21524966
1570715337,-12.539627,7.626129,-1.1474152,0.7632446,4.5504,-4.655655,-13.655472,0.6994982,0.21524966
1570715337,-12.539627,7.626129,-1.1474152,0.7632446,4.5504,-4.655655,-13.655472,0.6994982,0.21524966
1570715337,-12.539627,7.626129,-1.1474152,0.7632446,4.5504,-4.655655,-13.655472,0.6994982,0.21524966
1570715337,-4.043213,16.996445,-0.6476288,-2.5337524,2.4305267,-0.11230469,4.1950245,12.36353,1.6692455
1570715337,6.375168,4.3179474,-5.3791656,-0.123062134,-1.484314,-1.7783813,7.577079,-3.870009,-11.054033
1570715337,11.89679,2.684494,-0.5817871,1.9861603,2.5988464,-0.47555542,13.442084,-4.332014,-3.9382188
1570715337,11.89679,2.684494,-0.5817871,1.9861603,2.5988464,-0.47555542,13.442084,-4.332014,-3.9382188
1570715337,11.89679,2.684494,-0.5817871,1.9861603,2.5988464,-0.47555542,13.442084,-4.332014,-3.9382188
1570715337,11.89679,2.684494,-0.5817871,1.9861603,2.5988464,-0.47555542,13.442084,-4.332014,-3.9382188
1570715337,7.6003876,19.612106,-4.4220886,4.95932,-4.051605,2.3250122,5.511063,11.529193,-2.277507
1570715337,-4.301178,19.612701,1.4850006,6.087433,-5.3150024,2.4219513,-4.425385,11.468177,0.11575779
1570715337,-5.1690826,19.612701,0.4985962,5.9734497,1.7466278,3.3775024,-7.1958857,11.592208,4.0017653
1570715337,-8.5203705,19.612701,-6.8893127,3.9451752,4.071045,2.162033,-6.246557,11.676325,-0.35199857
1570715337,-8.5203705,19.612701,-6.8893127,3.9451752,4.071045,2.162033,-6.246557,11.676325,-0.35199857
1570715337,-8.5203705,19.612701,-6.8893127,3.9451752,4.071045,2.162033,-6.246557,11.676325,-0.35199857
1570715337,-8.5203705,19.612701,-6.8893127,3.9451752,4.071045,2.162033,-6.246557,11.676325,-0.35199857
1570715337,-8.696945,-2.5965118,6.3793488,-3.5063477,6.733139,-0.2859497,-9.813928,-10.514726,11.163187
1570715337,-8.696945,-2.5965118,6.3793488,-3.5063477,6.733139,-0.2859497,-9.813928,-10.514726,11.163187
1570715337,-6.138138,-1.1707611,1.5843658,-2.8032684,6.54245,-0.7951355,-7.5953045,-8.882327,4.972499
1570715337,-5.5282135,-0.4842224,0.27053833,-2.6445465,6.207962,-0.9176483,-7.2710414,-8.488935,4.2524843
1570715337,-5.5282135,-0.4842224,0.27053833,-2.6445465,6.207962,-0.9176483,-7.2710414,-8.488935,4.2524843
1570715337,-5.5282135,-0.4842224,0.27053833,-2.6445465,6.207962,-0.9176483,-7.2710414,-8.488935,4.2524843
1570715337,-5.5282135,-0.4842224,0.27053833,-2.6445465,6.207962,-0.9176483,-7.2710414,-8.488935,4.2524843
1570715337,14.581284,19.612701,18.406021,-3.005661,-15.822769,-2.4590912,10.8440485,10.76259,8.160362
1570715337,3.708023,19.612701,-0.6188965,-11.593826,7.8260956,-0.32643127,6.349124,12.04849,17.781029
1570715337,11.071991,19.612701,-19.24878,-16.4003,9.157669,0.49809265,6.07042,12.120602,-11.637207
1570715337,11.071991,19.612701,-19.24878,-16.4003,9.157669,0.49809265,6.07042,12.120602,-11.637207
1570715338,11.071991,19.612701,-19.24878,-16.4003,9.157669,0.49809265,6.07042,12.120602,-11.637207
1570715338,11.071991,19.612701,-19.24878,-16.4003,9.157669,0.49809265,6.07042,12.120602,-11.637207
1570715338,7.8889008,-0.06463623,-6.7702026,1.4439392,-2.3184204,0.44908142,10.846415,-6.5365186,-9.471092
1570715338,6.6433105,-0.7775116,-0.73262024,0.94007874,-2.361023,0.6706543,9.4456215,-7.212771,-5.9596515
1570715338,1.7681122,1.4083862,-0.98760986,3.510559,-1.0571442,2.3314056,4.0598326,-6.225226,-2.3343534
1570715338,0.67097473,1.9297333,0.5093689,4.003769,-1.6217346,2.4752197,2.6801653,-5.2503448,-3.363626
1570715338,0.67097473,1.9297333,0.5093689,4.003769,-1.6217346,2.4752197,2.6801653,-5.2503448,-3.363626
1570715338,0.67097473,1.9297333,0.5093689,4.003769,-1.6217346,2.4752197,2.6801653,-5.2503448,-3.363626
1570715338,0.67097473,1.9297333,0.5093689,4.003769,-1.6217346,2.4752197,2.6801653,-5.2503448,-3.363626
1570715338,-4.6148224,5.2744293,11.4814,4.387268,-8.205063,1.7508392,-1.6405337,2.544744,15.566738
1570715338,-4.6148224,5.2744293,11.4814,4.387268,-8.205063,1.7508392,-1.6405337,2.544744,15.566738
1570715338,-10.107117,-10.29686,10.609299,2.8639374,-9.283112,1.2917175,-12.522591,-14.612371,16.243134
1570715338,-7.723694,-11.517899,10.00177,2.1054688,-8.933716,1.3588257,-10.726544,-16.84054,14.984307
1570715338,-7.723694,-11.517899,10.00177,2.1054688,-8.933716,1.3588257,-10.726544,-16.84054,14.984307
1570715338,-7.723694,-11.517899,10.00177,2.1054688,-8.933716,1.3588257,-10.726544,-16.84054,14.984307
1570715338,-7.723694,-11.517899,10.00177,2.1054688,-8.933716,1.3588257,-10.726544,-16.84054,14.984307
1570715338,-7.9822693,18.889053,-2.6629486,-1.1371918,5.840439,1.0403137,-9.283534,8.56309,-9.000939
1570715338,2.8927917,15.61438,8.101379,-0.2423706,10.489258,-4.498001,2.9080603,11.916502,11.907059
1570715338,2.8927917,15.61438,8.101379,-0.2423706,10.489258,-4.498001,2.9080603,11.916502,11.907059
1570715338,2.8927917,15.61438,8.101379,-0.2423706,10.489258,-4.498001,2.9080603,11.916502,11.907059
1570715338,2.8927917,15.61438,8.101379,-0.2423706,10.489258,-4.498001,2.9080603,11.916502,11.907059
1570715338,2.8927917,15.61438,8.101379,-0.2423706,10.489258,-4.498001,2.9080603,11.916502,11.907059
1570715338,3.2944183,16.300919,-9.795273,-2.5699768,1.2267761,-1.2521362,8.722335,13.33606,-12.513039
1570715338,7.740448,2.308014,-2.664154,0.029266357,0.2605896,-1.7815704,7.1472273,-3.5933146,-6.930532
1570715338,7.740448,2.308014,-2.664154,0.029266357,0.2605896,-1.7815704,7.1472273,-3.5933146,-6.930532
1570715338,17.66742,1.921341,-4.241928,1.99469,2.8875275,-0.6342926,20.84884,-4.6254444,-7.115801
1570715338,17.66742,1.921341,-4.241928,1.99469,2.8875275,-0.6342926,20.84884,-4.6254444,-7.115801
1570715338,17.66742,1.921341,-4.241928,1.99469,2.8875275,-0.6342926,20.84884,-4.6254444,-7.115801
1570715338,17.66742,1.921341,-4.241928,1.99469,2.8875275,-0.6342926,20.84884,-4.6254444,-7.115801
1570715338,12.227783,19.592957,-1.7028809,4.912445,-3.4998016,3.0259552,-0.82257915,12.40872,-8.086154
1570715338,-0.5782013,19.612701,-2.553421,5.725235,-3.903534,2.9066467,4.072806,12.560317,-2.693134
1570715338,1.051651,19.612701,0.11312866,5.7838287,0.5609894,5.8180237,-1.6883209,12.703225,-0.31503916
1570715338,1.051651,19.612701,0.11312866,5.7838287,0.5609894,5.8180237,-1.6883209,12.703225,-0.31503916
1570715338,1.051651,19.612701,0.11312866,5.7838287,0.5609894,5.8180237,-1.6883209,12.703225,-0.31503916
1570715338,1.051651,19.612701,0.11312866,5.7838287,0.5609894,5.8180237,-1.6883209,12.703225,-0.31503916
1570715339,1.051651,19.612701,0.11312866,5.7838287,0.5609894,5.8180237,-1.6883209,12.703225,-0.31503916
1570715339,-13.095688,-11.870453,14.433441,-3.5031433,2.4252014,-1.1317596,-13.774491,-18.169682,20.550924
1570715339,-8.009796,-1.3868408,-0.015563965,-3.5095367,5.3088684,-0.8750305,-8.733206,-7.7551293,3.282696
1570715339,-7.379532,-0.7769165,-0.99838257,-3.4307098,5.1309814,-0.89527893,-8.733206,-7.7551293,3.282696
1570715339,-7.379532,-0.7769165,-0.99838257,-3.4307098,5.1309814,-0.89527893,-8.733206,-7.7551293,3.282696
1570715339,-7.379532,-0.7769165,-0.99838257,-3.4307098,5.1309814,-0.89527893,-8.733206,-7.7551293,3.282696
1570715339,-7.379532,-0.7769165,-0.99838257,-3.4307098,5.1309814,-0.89527893,-8.733206,-7.7551293,3.282696
1570715339,-7.379532,-0.7769165,-0.99838257,-3.4307098,5.1309814,-0.89527893,-8.733206,-7.7551293,3.282696
1570715339,8.815445,19.612106,19.612701,-5.9734955,-6.467621,-5.0135956,11.062975,13.092524,20.151148
1570715339,8.015793,19.612701,19.612701,-7.030243,-4.6598663,-5.2671204,11.062975,13.092524,20.151148
1570715339,-10.744583,19.612701,2.1374207,-10.401794,0.09120178,-3.5360718,3.564817,13.128366,19.525776
1570715339,-10.744583,19.612701,2.1374207,-10.401794,0.09120178,-3.5360718,3.564817,13.128366,19.525776
1570715339,-10.744583,19.612701,2.1374207,-10.401794,0.09120178,-3.5360718,3.564817,13.128366,19.525776
1570715339,-10.744583,19.612701,2.1374207,-10.401794,0.09120178,-3.5360718,3.564817,13.128366,19.525776
1570715339,0.056259155,1.4580688,-1.1504211,2.110794,-1.9274597,1.4472351,2.9857264,-5.0860314,-4.0747166
1570715339,0.056259155,1.4580688,-1.1504211,2.110794,-1.9274597,1.4472351,2.9857264,-5.0860314,-4.0747166
1570715339,-3.3393097,3.2190094,3.454239,3.699112,-0.77697754,1.380127,-1.7143705,-2.4770951,1.3762054
1570715339,-3.3393097,3.2190094,3.454239,3.699112,-0.77697754,1.380127,-1.7143705,-2.4770951,1.3762054
1570715339,-3.3393097,3.2190094,3.454239,3.699112,-0.77697754,1.380127,-1.7143705,-2.4770951,1.3762054
1570715339,-3.3393097,3.2190094,3.454239,3.699112,-0.77697754,1.380127,-1.7143705,-2.4770951,1.3762054
1570715339,1.4957733,19.612701,2.5001526,3.9984436,-0.5287781,3.484024,-3.6284125,13.29673,9.750646
1570715339,8.222885,19.612701,-2.2313995,4.11882,-2.457962,3.2858887,1.9014058,13.346905,3.0809157
1570715339,-4.225174,0.7176666,10.432129,3.6756744,-6.6401978,2.2515106,-4.2914,-3.7957368,14.883269
1570715339,-10.2005005,-11.026489,12.649765,2.0234528,-7.149399,1.6293945,-6.9236546,-10.317734,13.519327
1570715339,-10.2005005,-11.026489,12.649765,2.0234528,-7.149399,1.6293945,-6.9236546,-10.317734,13.519327
1570715339,-10.2005005,-11.026489,12.649765,2.0234528,-7.149399,1.6293945,-6.9236546,-10.317734,13.519327
1570715339,-10.2005005,-11.026489,12.649765,2.0234528,-7.149399,1.6293945,-6.9236546,-10.317734,13.519327
1570715339,1.6885071,19.612701,19.612701,-2.2631836,6.2676086,0.20939636,-4.9262433,11.5037365,14.790945
1570715339,3.095108,19.606125,19.562424,-2.0139008,6.656433,-0.047332764,-0.1481489,13.424353,20.70869
1570715339,2.74794,19.612701,13.197433,0.39997864,5.7573547,-3.890808,2.9716291,13.376347,12.549558
1570715339,1.3078308,19.612701,13.89296,0.30517578,5.63591,-4.3094482,2.9716291,13.376347,12.549558
1570715339,1.3078308,19.612701,13.89296,0.30517578,5.63591,-4.3094482,2.9716291,13.376347,12.549558
1570715339,1.3078308,19.612701,13.89296,0.30517578,5.63591,-4.3094482,2.9716291,13.376347,12.549558
1570715340,-10.563217,16.350601,-8.128906,-3.1334991,2.961029,-1.039093,3.7506964,14.099966,-10.726177
1570715340,-10.563217,16.350601,-8.128906,-3.1334991,2.961029,-1.039093,3.7506964,14.099966,-10.726177
1570715340,12.283447,0.6248932,-5.300171,-0.05595398,-0.830246,-2.0702667,8.83844,-4.969347,-6.4879932
1570715340,14.841064,0.917572,-5.088272,1.2074585,2.2963104,-0.41271973,18.95178,-4.426127,-7.9413
1570715340,14.841064,0.917572,-5.088272,1.2074585,2.2963104,-0.41271973,18.95178,-4.426127,-7.9413
1570715340,14.841064,0.917572,-5.088272,1.2074585,2.2963104,-0.41271973,18.95178,-4.426127,-7.9413
1570715340,14.841064,0.917572,-5.088272,1.2074585,2.2963104,-0.41271973,18.95178,-4.426127,-7.9413
1570715340,-3.047821,19.612701,-8.20314,6.237625,-1.9828644,2.5199585,0.22436702,5.6644483,-0.85751694
1570715340,2.6886902,19.612701,-7.063492,6.1960907,-2.5250854,2.8267517,-2.41848,12.01483,-7.664736
1570715340,-0.79067993,19.612701,-9.15004,6.094879,1.4504852,6.432678,-1.2819662,13.492535,-5.370611
1570715340,-0.79067993,19.612701,-9.15004,6.094879,1.4504852,6.432678,-1.2819662,13.492535,-5.370611
1570715340,-0.79067993,19.612701,-9.15004,6.094879,1.4504852,6.432678,-1.2819662,13.492535,-5.370611
1570715340,-0.79067993,19.612701,-9.15004,6.094879,1.4504852,6.432678,-1.2819662,13.492535,-5.370611
1570715340,-0.79067993,19.612701,-9.15004,6.094879,1.4504852,6.432678,-1.2819662,13.492535,-5.370611
1570715340,0.42018127,19.612701,-14.138367,6.094879,1.4504852,6.432678,-1.2819662,13.492535,-5.370611
1570715340,-8.771759,-8.789108,18.152237,-4.259491,4.8018036,-0.7259064,-9.43102,-16.342983,22.540762
1570715340,-8.351578,1.9411011,1.3994141,-3.4371033,7.885742,-1.3139191,-9.455885,-4.2003593,5.649337
1570715340,-8.351578,1.9411011,1.3994141,-3.4371033,7.885742,-1.3139191,-9.455885,-4.2003593,5.649337
1570715340,-8.351578,1.9411011,1.3994141,-3.4371033,7.885742,-1.3139191,-9.455885,-4.2003593,5.649337
1570715340,-8.351578,1.9411011,1.3994141,-3.4371033,7.885742,-1.3139191,-9.455885,-4.2003593,5.649337
1570715340,-17.250229,-0.77812195,-3.1136627,0.46603394,3.740799,-3.4987793,-16.19519,-2.144536,3.0535262
1570715340,-17.250229,-0.77812195,-3.1136627,0.46603394,3.740799,-3.4987793,-16.19519,-2.144536,3.0535262
1570715340,-1.0845795,19.612701,19.612701,-3.0727844,6.673477,-5.1723175,1.8130512,13.786793,19.102737
1570715340,-1.0845795,19.612701,19.612701,-3.0727844,6.673477,-5.1723175,1.8130512,13.786793,19.102737
1570715340,-2.593521,19.612701,19.612701,-3.2538757,6.958969,-5.1265106,0.7450248,13.8152275,19.03612
1570715340,-2.593521,19.612701,19.612701,-3.2538757,6.958969,-5.1265106,0.7450248,13.8152275,19.03612
1570715340,-2.593521,19.612701,19.612701,-3.2538757,6.958969,-5.1265106,0.7450248,13.8152275,19.03612
1570715340,-2.593521,19.612701,19.612701,-3.2538757,6.958969,-5.1265106,0.7450248,13.8152275,19.03612
1570715340,0.7481842,1.6017151,0.2059021,3.6714172,-1.2403717,1.9511108,2.8538015,-4.727277,-1.5039845
1570715340,0.7481842,1.6017151,0.2059021,3.6714172,-1.2403717,1.9511108,2.8538015,-4.727277,-1.5039845
1570715340,-0.5997467,2.7204132,2.4061737,4.310562,-1.5034943,2.2802734,1.2814827,-2.5607076,-0.7105551
1570715340,-0.5997467,2.7204132,2.4061737,4.310562,-1.5034943,2.2802734,1.2814827,-2.5607076,-0.7105551
1570715341,-0.5997467,2.7204132,2.4061737,4.310562,-1.5034943,2.2802734,1.2814827,-2.5607076,-0.7105551
1570715341,-0.5997467,2.7204132,2.4061737,4.310562,-1.5034943,2.2802734,1.2814827,-2.5607076,-0.7105551
1570715341,1.6077118,2.9065552,13.527832,4.4298706,-6.8756256,1.8147583,5.832634,2.2184162,17.13501
1570715341,1.6077118,2.9065552,13.527832,4.4298706,-6.8756256,1.8147583,5.832634,2.2184162,17.13501
1570715341,-7.000046,-14.6596985,11.784866,-0.23065186,-5.384247,-0.21670532,-12.221796,-21.300167,15.194832
1570715341,-7.000046,-14.6596985,11.784866,-0.23065186,-5.384247,-0.21670532,-12.221796,-21.300167,15.194832
1570715341,-7.000046,-14.6596985,11.784866,-0.23065186,-5.384247,-0.21670532,-12.221796,-21.300167,15.194832
1570715341,-7.000046,-14.6596985,11.784866,-0.23065186,-5.384247,-0.21670532,-12.221796,-21.300167,15.194832
1570715341,5.7622375,19.612106,7.7111206,-1.713501,6.2345886,0.6813202,2.3102207,14.147318,-0.26880443
1570715341,5.7622375,19.612106,7.7111206,-1.713501,6.2345886,0.6813202,2.3102207,14.147318,-0.26880443
1570715341,2.0823517,19.612701,19.612701,0.72702026,9.38884,-3.4252777,3.3353734,14.00391,20.246649
1570715341,-18.157028,9.452911,-0.4925995,1.3395386,4.867859,-3.5637665,-18.746538,8.335007,1.727928
1570715341,-16.235687,6.99765,-1.9865875,1.2266235,4.6079254,-3.2750854,-18.746538,8.335007,1.727928
1570715341,-16.235687,6.99765,-1.9865875,1.2266235,4.6079254,-3.2750854,-18.746538,8.335007,1.727928
1570715341,-16.235687,6.99765,-1.9865875,1.2266235,4.6079254,-3.2750854,-18.746538,8.335007,1.727928
1570715341,1.6621704,-3.8744202,-2.7832642,-1.2277374,-2.20018,-1.6856995,2.8256135,-8.996372,-5.618187
1570715341,1.6621704,-3.8744202,-2.7832642,-1.2277374,-2.20018,-1.6856995,2.8256135,-8.996372,-5.618187
1570715341,10.961258,3.6613312,-3.9773712,1.9680481,-0.75567627,0.13270569,13.3021345,-0.77233076,-4.0520897
1570715341,10.961258,3.6613312,-3.9773712,1.9680481,-0.75567627,0.13270569,13.3021345,-0.77233076,-4.0520897
1570715341,10.961258,3.6613312,-3.9773712,1.9680481,-0.75567627,0.13270569,13.3021345,-0.77233076,-4.0520897
1570715341,10.961258,3.6613312,-3.9773712,1.9680481,-0.75567627,0.13270569,13.3021345,-0.77233076,-4.0520897
1570715341,10.961258,3.6613312,-3.9773712,1.9680481,-0.75567627,0.13270569,13.3021345,-0.77233076,-4.0520897
1570715341,11.777679,19.612701,-1.0995331,5.1926117,-3.7927399,3.6842957,3.77899,13.97418,-2.2177687
1570715341,1.8956146,19.612701,-11.215637,5.0828857,2.7831268,5.011612,1.9974823,14.050411,-3.6040354
1570715341,1.8956146,19.612701,-11.215637,5.0828857,2.7831268,5.011612,1.9974823,14.050411,-3.6040354
1570715341,-11.619659,19.612701,4.56575,2.2599335,3.4595795,4.0773773,-13.706032,14.167354,4.7741466
1570715341,-11.619659,19.612701,4.56575,2.2599335,3.4595795,4.0773773,-13.706032,14.167354,4.7741466
1570715341,-11.619659,19.612701,4.56575,2.2599335,3.4595795,4.0773773,-13.706032,14.167354,4.7741466
1570715341,-11.619659,19.612701,4.56575,2.2599335,3.4595795,4.0773773,-13.706032,14.167354,4.7741466
1570715341,-6.6941833,-5.455185,9.594162,-3.989975,6.2164764,-0.45318604,-7.8146267,-11.826817,12.939205
1570715341,-6.6277466,-1.8656769,4.3035736,-3.2954254,6.350708,-0.818573,-7.038965,-8.595539,8.729689
1570715341,-5.3863525,1.6962891,-6.019623,-2.638153,4.1424103,-1.0113983,-6.0870056,-2.7344122,-2.8524852
1570715341,-4.6537323,1.1198883,-8.858551,-2.6338959,3.3115082,-0.76104736,-5.634494,-3.6442509,-5.260733
1570715341,-4.6537323,1.1198883,-8.858551,-2.6338959,3.3115082,-0.76104736,-5.634494,-3.6442509,-5.260733
1570715342,-4.6537323,1.1198883,-8.858551,-2.6338959,3.3115082,-0.76104736,-5.634494,-3.6442509,-5.260733
1570715342,-4.6537323,1.1198883,-8.858551,-2.6338959,3.3115082,-0.76104736,-5.634494,-3.6442509,-5.260733
1570715342,9.579803,19.612701,19.612701,-4.358551,-0.42437744,-4.640747,15.378874,14.2037115,19.180874
1570715342,19.594742,19.612701,-19.612701,-19.74524,0.0070495605,-2.60289,21.267769,14.530566,-20.966871
1570715342,8.238449,12.490555,-18.980637,-3.2378998,1.0094604,-1.152008,19.085045,14.772796,-10.321914
1570715342,8.238449,12.490555,-18.980637,-3.2378998,1.0094604,-1.152008,19.085045,14.772796,-10.321914
1570715342,8.238449,12.490555,-18.980637,-3.2378998,1.0094604,-1.152008,19.085045,14.772796,-10.321914
1570715342,8.238449,12.490555,-18.980637,-3.2378998,1.0094604,-1.152008,19.085045,14.772796,-10.321914
1570715342,0.95529175,2.0979156,-0.9798279,3.5190735,-1.7612915,2.413437,3.6230462,-3.9166446,-4.241073
1570715342,-2.6707306,1.8423309,-2.4684296,4.196579,-1.9040375,2.4453888,-0.8895273,-3.2666855,-2.9459345
1570715342,-4.3897705,3.0526123,-1.743576,4.525757,-2.3716888,2.208908,-2.9414914,-2.4446225,-3.9616632
1570715342,-1.6579895,10.484207,-0.3429718,5.3790283,-2.471817,2.2461853,-2.0967898,3.5931454,-0.15387058
1570715342,-1.6579895,10.484207,-0.3429718,5.3790283,-2.471817,2.2461853,-2.0967898,3.5931454,-0.15387058
1570715342,-1.6579895,10.484207,-0.3429718,5.3790283,-2.471817,2.2461853,-2.0967898,3.5931454,-0.15387058
1570715342,-1.6579895,10.484207,-0.3429718,5.3790283,-2.471817,2.2461853,-2.0967898,3.5931454,-0.15387058
1570715342,-12.25293,-15.454575,8.8489685,1.9872284,-6.0212708,1.254425,-13.997234,-18.006008,11.844772
1570715342,-11.183319,-10.785873,19.208084,-3.3369598,-0.91760254,-2.5027618,-11.346192,-13.945255,18.0408
1570715342,-11.183319,-10.785873,19.208084,-3.3369598,-0.91760254,-2.5027618,-11.346192,-13.945255,18.0408
1570715342,-11.183319,-10.785873,19.208084,-3.3369598,-0.91760254,-2.5027618,-11.346192,-13.945255,18.0408
1570715342,-11.183319,-10.785873,19.208084,-3.3369598,-0.91760254,-2.5027618,-11.346192,-13.945255,18.0408
1570715342,-11.183319,-10.785873,19.208084,-3.3369598,-0.91760254,-2.5027618,-11.346192,-13.945255,18.0408
1570715342,-11.183319,-10.785873,19.208084,-3.3369598,-0.91760254,-2.5027618,-11.346192,-13.945255,18.0408
1570715342,3.2124176,19.612701,-3.0681763,0.37548828,8.007187,-2.728592,3.366577,14.394161,-1.8141617
1570715342,-5.5114594,-1.3233948,2.1577759,-0.076187134,4.7634583,-3.0385895,-5.719967,-5.761581,0.21478766
1570715342,-0.89901733,-4.1754913,-3.1016846,-1.029602,0.19773865,-2.6902466,-3.13577,-9.043308,5.145553
1570715342,-0.89901733,-4.1754913,-3.1016846,-1.029602,0.19773865,-2.6902466,-3.13577,-9.043308,5.145553
1570715342,-0.89901733,-4.1754913,-3.1016846,-1.029602,0.19773865,-2.6902466,-3.13577,-9.043308,5.145553
1570715342,-0.89901733,-4.1754913,-3.1016846,-1.029602,0.19773865,-2.6902466,-3.13577,-9.043308,5.145553
1570715342,-0.89901733,-4.1754913,-3.1016846,-1.029602,0.19773865,-2.6902466,-3.13577,-9.043308,5.145553
1570715342,11.361084,2.7700958,-3.8666382,1.9925537,0.34155273,0.3106079,15.532701,-1.6677876,-8.444739
1570715342,7.8721313,0.89123535,-4.846466,1.6846924,-2.1160126,1.1606903,9.733203,-3.0522308,-6.702687
1570715342,3.9737701,1.3132172,-1.7782898,2.6050873,-1.437439,1.762558,7.414024,-4.0115376,-4.120489
1570715342,3.9737701,1.3132172,-1.7782898,2.6050873,-1.437439,1.762558,7.414024,-4.0115376,-4.120489
1570715343,3.9737701,1.3132172,-1.7782898,2.6050873,-1.437439,1.762558,7.414024,-4.0115376,-4.120489
1570715343,3.9737701,1.3132172,-1.7782898,2.6050873,-1.437439,1.762558,7.414024,-4.0115376,-4.120489
1570715343,6.8498077,19.612701,0.64224243,2.7329102,2.3133545,4.8720703,1.979016,14.658237,12.74885
1570715343,6.8498077,19.612701,0.64224243,2.7329102,2.3133545,4.8720703,1.979016,14.658237,12.74885
1570715343,-1.1360474,3.3985748,19.439117,4.621628,-8.945435,1.4919739,4.7287874,6.5741186,20.706451
1570715343,-1.1360474,3.3985748,19.439117,4.621628,-8.945435,1.4919739,4.7287874,6.5741186,20.706451
1570715343,-1.1360474,3.3985748,19.439117,4.621628,-8.945435,1.4919739,4.7287874,6.5741186,20.706451
1570715343,-1.1360474,3.3985748,19.439117,4.621628,-8.945435,1.4919739,4.7287874,6.5741186,20.706451
1570715343,-5.55455,3.7583008,-3.178894,-4.345764,5.3898315,-1.2201843,-7.048298,-1.6485782,0.26976037
1570715343,-5.55455,3.7583008,-3.178894,-4.345764,5.3898315,-1.2201843,-7.048298,-1.6485782,0.26976037
1570715343,-4.0905,19.579178,3.9815521,-1.235199,5.267334,0.8709259,-6.8566766,14.850538,-0.30969644
1570715343,17.898453,19.612701,19.536682,-0.16993713,6.7725525,0.5417633,6.2642574,14.792477,10.403076
1570715343,17.898453,19.612701,19.536682,-0.16993713,6.7725525,0.5417633,6.2642574,14.792477,10.403076
1570715343,17.898453,19.612701,19.536682,-0.16993713,6.7725525,0.5417633,6.2642574,14.792477,10.403076
1570715343,17.898453,19.612701,19.536682,-0.16993713,6.7725525,0.5417633,6.2642574,14.792477,10.403076
1570715343,0.9044037,19.612701,19.612701,-0.7249298,0.9998779,-0.044128418,-1.8211828,15.153698,5.885445
1570715343,0.9044037,19.612701,19.612701,-0.7249298,0.9998779,-0.044128418,-1.8211828,15.153698,5.885445
1570715343,8.880692,-7.159256,-9.696518,-3.0184479,-2.0765991,-1.8380432,8.517868,-1.3857679,-12.005144
1570715343,16.646286,-12.657547,-9.149445,-0.45968628,-3.3432007,-1.5408325,16.167078,-19.172012,-10.037424
1570715343,16.646286,-12.657547,-9.149445,-0.45968628,-3.3432007,-1.5408325,16.167078,-19.172012,-10.037424
1570715343,16.646286,-12.657547,-9.149445,-0.45968628,-3.3432007,-1.5408325,16.167078,-19.172012,-10.037424
1570715343,9.080017,19.612701,-7.577057,5.8637238,-5.2979584,3.3849487,5.6465483,14.692148,-5.876821
1570715343,8.507202,19.612701,-8.285141,5.7923584,-5.209549,3.1750946,5.6465483,14.692148,-5.876821
1570715343,0.11431885,19.612701,-14.660294,5.502594,4.888092,4.4949646,-2.5113463,14.775972,-0.13160348
1570715343,0.9708557,19.612701,-5.4258575,2.3355713,4.1445465,4.7825775,0.054737687,14.876383,-10.96343
1570715343,0.9708557,19.612701,-5.4258575,2.3355713,4.1445465,4.7825775,0.054737687,14.876383,-10.96343
1570715343,0.9708557,19.612701,-5.4258575,2.3355713,4.1445465,4.7825775,0.054737687,14.876383,-10.96343
1570715343,0.9708557,19.612701,-5.4258575,2.3355713,4.1445465,4.7825775,0.054737687,14.876383,-10.96343
1570715343,0.9708557,19.612701,-5.4258575,2.3355713,4.1445465,4.7825775,0.054737687,14.876383,-10.96343
1570715343,-9.771927,-3.4356842,5.3534393,-4.2573547,6.8396606,-1.0028687,-10.423566,-10.99231,9.8290825
1570715343,-7.6357117,1.019928,-1.8429413,-4.599304,6.7405853,-1.2649231,-9.531432,-3.4804635,2.0480938
1570715343,-6.391922,1.5292969,-4.135391,-4.819809,5.0084686,-1.2766418,-6.1975064,-3.1454406,-2.9079347
1570715343,-6.391922,1.5292969,-4.135391,-4.819809,5.0084686,-1.2766418,-6.1975064,-3.1454406,-2.9079347
1570715344,-6.391922,1.5292969,-4.135391,-4.819809,5.0084686,-1.2766418,-6.1975064,-3.1454406,-2.9079347
1570715344,-6.391922,1.5292969,-4.135391,-4.819809,5.0084686,-1.2766418,-6.1975064,-3.1454406,-2.9079347
1570715344,19.612701,19.6109,19.612701,-7.348755,2.8726196,-3.7810822,20.748745,14.906192,19.222834
1570715344,15.85022,19.612701,19.612701,-7.684311,7.512909,-3.9121094,20.838789,14.975431,19.050606
1570715344,-12.398376,13.423096,0.79008484,-2.5678406,-4.592758,0.19767761,-9.014428,14.540434,-18.60859
1570715344,3.7104187,19.612701,9.48822,1.199997,0.29467773,-0.053710938,-0.111156106,13.128151,15.145836
1570715344,3.7104187,19.612701,9.48822,1.199997,0.29467773,-0.053710938,-0.111156106,13.128151,15.145836
1570715344,3.7104187,19.612701,9.48822,1.199997,0.29467773,-0.053710938,-0.111156106,13.128151,15.145836
1570715344,3.7104187,19.612701,9.48822,1.199997,0.29467773,-0.053710938,-0.111156106,13.128151,15.145836
1570715344,-2.0805664,3.3153687,-1.0582428,4.3297424,-1.6078949,3.387085,-0.3542552,-3.1534362,-1.3163558
1570715344,-2.0805664,3.3153687,-1.0582428,4.3297424,-1.6078949,3.387085,-0.3542552,-3.1534362,-1.3163558
1570715344,5.8801575,19.574997,-5.5443726,5.056259,-1.8688812,4.2840424,-1.881467,13.461544,-3.711492
1570715344,5.8801575,19.574997,-5.5443726,5.056259,-1.8688812,4.2840424,-1.881467,13.461544,-3.711492
1570715344,5.8801575,19.574997,-5.5443726,5.056259,-1.8688812,4.2840424,-1.881467,13.461544,-3.711492
1570715344,5.8801575,19.574997,-5.5443726,5.056259,-1.8688812,4.2840424,-1.881467,13.461544,-3.711492
1570715344,-9.974838,-14.724945,7.878723,0.5043793,-5.466278,0.7356415,-12.715515,-18.12461,11.615366
1570715344,-9.974838,-14.724945,7.878723,0.5043793,-5.466278,0.7356415,-12.715515,-18.12461,11.615366
1570715344,-12.118851,-7.31369,14.3628235,-2.6349487,-3.3602448,-1.7464294,-12.663853,-10.9810705,16.263243
1570715344,-17.241837,-12.594696,16.360779,-2.7020721,2.7724762,-1.7762451,-18.402262,-15.904311,21.79565
1570715344,-17.241837,-12.594696,16.360779,-2.7020721,2.7724762,-1.7762451,-18.402262,-15.904311,21.79565
1570715344,-17.241837,-12.594696,16.360779,-2.7020721,2.7724762,-1.7762451,-18.402262,-15.904311,21.79565
1570715344,-17.241837,-12.594696,16.360779,-2.7020721,2.7724762,-1.7762451,-18.402262,-15.904311,21.79565
1570715344,-1.138443,19.612701,4.7536926,0.17626953,6.50943,-4.4862823,-0.20350236,15.024685,4.4367642
1570715344,-2.1362305,-3.0532074,-7.510605,-0.33291626,3.3051147,-2.5656128,-2.1629,-7.0901456,-3.8578458
1570715344,-2.1362305,-3.0532074,-7.510605,-0.33291626,3.3051147,-2.5656128,-2.1629,-7.0901456,-3.8578458
1570715344,-6.499054,-2.3696594,4.625595,-2.5561218,-3.3613129,-2.6838531,-2.4311867,-9.991196,-8.25346
1570715344,-6.499054,-2.3696594,4.625595,-2.5561218,-3.3613129,-2.6838531,-2.4311867,-9.991196,-8.25346
1570715344,-6.499054,-2.3696594,4.625595,-2.5561218,-3.3613129,-2.6838531,-2.4311867,-9.991196,-8.25346
1570715344,19.433731,19.612701,-19.612701,-2.5561218,-3.3613129,-2.6838531,3.2010837,15.090153,19.232233
1570715344,12.633011,10.59494,0.24899292,1.0945282,0.2328949,-0.7536011,12.232081,5.559229,-5.721286
1570715344,8.470093,0.5626373,-0.6434479,1.5142517,-1.0550079,0.83258057,10.537821,-1.9581037,-5.64538
1570715344,1.7346039,-1.0229187,-2.2487488,3.7779388,-0.910141,1.795578,4.695553,-4.925948,-3.108842
1570715344,-0.2962799,-0.36392212,-2.1362305,4.165695,-1.339447,2.148178,2.4408493,-5.0343046,-3.8361485
1570715344,-0.2962799,-0.36392212,-2.1362305,4.165695,-1.339447,2.148178,2.4408493,-5.0343046,-3.8361485
1570715345,-0.2962799,-0.36392212,-2.1362305,4.165695,-1.339447,2.148178,2.4408493,-5.0343046,-3.8361485
1570715345,-0.2962799,-0.36392212,-2.1362305,4.165695,-1.339447,2.148178,2.4408493,-5.0343046,-3.8361485
1570715345,13.368027,19.612701,2.2726898,3.9856567,-2.2704773,3.3157196,7.1085186,15.309687,0.2871498
1570715345,-1.1755524,5.151718,17.35736,3.9632874,-6.468689,1.348175,3.4162793,5.9407806,20.170265
1570715345,-11.7938385,-13.034637,8.511978,3.3955078,-6.201309,1.0136719,-13.2790785,-13.376768,14.494059
1570715345,-11.7938385,-13.034637,8.511978,3.3955078,-6.201309,1.0136719,-13.2790785,-13.376768,14.494059
1570715345,-11.7938385,-13.034637,8.511978,3.3955078,-6.201309,1.0136719,-13.2790785,-13.376768,14.494059
1570715345,-11.7938385,-13.034637,8.511978,3.3955078,-6.201309,1.0136719,-13.2790785,-13.376768,14.494059
1570715345,-11.514908,11.534668,6.209961,-3.5798492,1.0403595,-0.18580627,-13.637388,4.238626,-3.1030424
1570715345,-10.094559,11.566391,10.201096,-3.433899,1.7445068,0.06878662,-12.239611,6.818579,5.0569463
1570715345,5.8167114,19.611511,19.612701,0.7653656,7.675888,-2.3983612,8.327467,15.244362,20.119774
1570715345,4.7854156,19.612701,14.54837,1.7486115,8.117981,-3.031128,4.6728964,15.232177,19.064022
1570715345,4.7854156,19.612701,14.54837,1.7486115,8.117981,-3.031128,4.6728964,15.232177,19.064022
1570715345,4.7854156,19.612701,14.54837,1.7486115,8.117981,-3.031128,4.6728964,15.232177,19.064022
1570715345,4.7854156,19.612701,14.54837,1.7486115,8.117981,-3.031128,4.6728964,15.232177,19.064022
1570715345,10.112503,17.345398,-13.1058655,-0.10282898,1.256607,0.7036896,2.4825816,14.34732,-15.018484
1570715345,10.594345,4.0306396,-3.221405,-0.01121521,-0.34555054,-1.9893036,9.830551,-1.6985655,-7.2418933
1570715345,15.9878845,6.8126984,-5.431244,0.9421997,1.3876343,-1.374649,15.451567,2.0365384,-5.399691
1570715345,16.192581,7.886505,-5.5533447,0.963501,1.6475677,-1.2564087,17.490685,2.6260147,-7.04303
1570715345,16.192581,7.886505,-5.5533447,0.963501,1.6475677,-1.2564087,17.490685,2.6260147,-7.04303
1570715345,16.192581,7.886505,-5.5533447,0.963501,1.6475677,-1.2564087,17.490685,2.6260147,-7.04303
1570715345,1.8830414,19.612701,-6.0657043,4.481018,-5.3299255,3.454193,8.353876,15.064419,-9.740475
1570715345,-2.7617188,19.612701,-2.8287506,4.54599,-5.351227,3.6086578,8.353876,15.064419,-9.740475
1570715345,2.3271637,19.612701,-14.5651245,4.213623,-1.2254639,5.265152,0.5299367,15.090437,-13.55872
1570715345,2.3271637,19.612701,-14.5651245,4.213623,-1.2254639,5.265152,0.5299367,15.090437,-13.55872
1570715345,2.3271637,19.612701,-14.5651245,4.213623,-1.2254639,5.265152,0.5299367,15.090437,-13.55872
1570715345,2.3271637,19.612701,-14.5651245,4.213623,-1.2254639,5.265152,0.5299367,15.090437,-13.55872
1570715345,2.3271637,19.612701,-14.5651245,4.213623,-1.2254639,5.265152,0.5299367,15.090437,-13.55872
1570715345,-15.289978,-12.949646,19.612701,-2.7563934,0.89868164,-1.6707916,-13.6936,-14.761686,22.226212
1570715345,-15.459961,-12.376831,17.508194,-3.2378998,3.5501251,-1.1626587,-15.741835,-16.564116,21.584425
1570715345,-7.8296356,-0.12869263,-5.9555817,-3.1036682,5.1671906,-0.8111267,-9.056086,-4.7448473,-3.261301
1570715345,-7.8296356,-0.12869263,-5.9555817,-3.1036682,5.1671906,-0.8111267,-9.056086,-4.7448473,-3.261301
1570715345,-7.8296356,-0.12869263,-5.9555817,-3.1036682,5.1671906,-0.8111267,-9.056086,-4.7448473,-3.261301
1570715346,-7.8296356,-0.12869263,-5.9555817,-3.1036682,5.1671906,-0.8111267,-9.056086,-4.7448473,-3.261301
1570715346,-7.8296356,-0.12869263,-5.9555817,-3.1036682,5.1671906,-0.8111267,-9.056086,-4.7448473,-3.261301
1570715346,19.047668,19.612701,19.612701,-4.962555,1.8520966,-5.32251,20.664083,15.220161,19.687885
1570715346,16.448761,19.612701,19.612701,-5.6091766,3.6193695,-5.2809753,20.664083,15.220161,19.687885
1570715346,9.689331,19.612701,19.612701,-17.47728,4.3650513,-3.1056976,21.014822,15.483536,-20.934408
1570715346,9.689331,19.612701,19.612701,-17.47728,4.3650513,-3.1056976,21.014822,15.483536,-20.934408
1570715346,9.689331,19.612701,19.612701,-17.47728,4.3650513,-3.1056976,21.014822,15.483536,-20.934408
1570715346,9.689331,19.612701,19.612701,-17.47728,4.3650513,-3.1056976,21.014822,15.483536,-20.934408
1570715346,-2.3421326,5.9549713,0.73262024,3.8876648,-0.34129333,2.7287598,-0.46362424,1.6060047,-1.1954936
1570715346,-2.9251099,5.8077393,0.17536926,3.8503723,-0.15913391,2.6925354,-1.1843133,1.8894892,-0.5872463
1570715346,-3.4452515,4.458008,5.272629,5.3204346,-1.3277283,2.5338135,-3.1655483,-1.2399988,5.4294047
1570715346,-0.12031555,8.712494,-3.0142975,5.4951477,-2.0180206,3.0259552,-1.1356418,2.7336178,1.436031
1570715346,-0.12031555,8.712494,-3.0142975,5.4951477,-2.0180206,3.0259552,-1.1356418,2.7336178,1.436031
1570715346,-0.12031555,8.712494,-3.0142975,5.4951477,-2.0180206,3.0259552,-1.1356418,2.7336178,1.436031
1570715346,-0.12031555,8.712494,-3.0142975,5.4951477,-2.0180206,3.0259552,-1.1356418,2.7336178,1.436031
1570715346,-11.452667,-19.612701,12.322357,3.0748596,-8.206131,0.6706543,-16.513681,-23.045208,16.722328
1570715346,-11.452667,-19.612701,12.322357,3.0748596,-8.206131,0.6706543,-16.513681,-23.045208,16.722328
1570715346,-5.228943,-4.7854156,19.612701,-3.4903564,-2.5080414,-1.7996826,-5.118266,-9.871353,19.927065
1570715346,-5.228943,-4.7854156,19.612701,-3.4903564,-2.5080414,-1.7996826,-5.118266,-9.871353,19.927065
1570715346,-5.228943,-4.7854156,19.612701,-3.4903564,-2.5080414,-1.7996826,-5.118266,-9.871353,19.927065
1570715346,-5.228943,-4.7854156,19.612701,-3.4903564,-2.5080414,-1.7996826,-5.118266,-9.871353,19.927065
1570715346,5.6150055,19.612701,19.612701,1.1904144,10.61496,-1.8508148,5.7675753,15.26022,20.09763
1570715346,4.8129425,19.612701,19.612701,1.1904144,10.61496,-1.8508148,5.7675753,15.26022,20.09763
1570715346,-4.0503845,12.293625,1.8345642,1.3565826,10.183517,-3.413559,-0.8118542,14.933861,4.525523
1570715346,-1.2030792,-1.7645264,0.05986023,-0.028259277,2.4049683,-2.8905182,-1.1992472,-6.276596,2.451243
1570715346,-1.2030792,-1.7645264,0.05986023,-0.028259277,2.4049683,-2.8905182,-1.1992472,-6.276596,2.451243
1570715346,-1.2030792,-1.7645264,0.05986023,-0.028259277,2.4049683,-2.8905182,-1.1992472,-6.276596,2.451243
1570715346,-1.2030792,-1.7645264,0.05986023,-0.028259277,2.4049683,-2.8905182,-1.1992472,-6.276596,2.451243
1570715346,-1.2030792,-1.7645264,0.05986023,-0.028259277,2.4049683,-2.8905182,-1.1992472,-6.276596,2.451243
1570715346,9.375092,2.9718018,-2.0225067,1.2852173,-1.81987,0.12844849,11.283518,-1.237937,-4.760933
1570715346,5.325897,0.15861511,1.3317719,1.566452,-0.58309937,1.1042175,7.732353,-3.7491329,-1.4967953
1570715346,5.325897,0.15861511,1.3317719,1.566452,-0.58309937,1.1042175,7.732353,-3.7491329,-1.4967953
1570715346,5.325897,0.15861511,1.3317719,1.566452,-0.58309937,1.1042175,7.732353,-3.7491329,-1.4967953
1570715346,5.325897,0.15861511,1.3317719,1.566452,-0.58309937,1.1042175,7.732353,-3.7491329,-1.4967953
1570715347,-1.1647797,19.612701,-1.7399902,5.977707,-2.152237,5.728531,-0.2834379,15.1234665,-0.25466436
1570715347,-2.5701752,19.612701,-2.3786469,5.9841003,-1.6195984,5.773285,-0.2834379,15.1234665,-0.25466436
1570715347,11.073181,19.612701,-12.898163,2.4548798,-0.43395996,4.7016296,1.616366,15.349109,-10.264946
1570715347,11.073181,19.612701,-12.898163,2.4548798,-0.43395996,4.7016296,1.616366,15.349109,-10.264946
1570715347,13.673279,18.250397,12.931076,3.6032257,-7.8151855,2.7916107,17.545355,15.461197,7.8792543
1570715347,13.673279,18.250397,12.931076,3.6032257,-7.8151855,2.7916107,17.545355,15.461197,7.8792543
1570715347,13.673279,18.250397,12.931076,3.6032257,-7.8151855,2.7916107,17.545355,15.461197,7.8792543
1570715347,-8.75679,-0.71406555,1.9375153,-3.002472,5.478256,-1.0763702,-9.95284,-5.9784775,5.2608323
1570715347,-8.75679,-0.71406555,1.9375153,-2.9449463,5.365341,-1.1029968,-9.95284,-5.9784775,5.2608323
1570715347,-6.1022186,3.5069122,-9.598358,-2.6946106,1.8680725,-1.058258,-6.8051424,-1.4496377,-6.644243
1570715347,1.6531982,15.53537,10.089172,-1.9968567,7.83461,0.6674652,-1.7248195,12.823355,4.8885293
1570715347,1.6531982,15.53537,10.089172,-1.9968567,7.83461,0.6674652,-1.7248195,12.823355,4.8885293
1570715347,1.6531982,15.53537,10.089172,-1.9968567,7.83461,0.6674652,-1.7248195,12.823355,4.8885293
1570715347,1.6531982,15.53537,10.089172,-1.9968567,7.83461,0.6674652,-1.7248195,12.823355,4.8885293
1570715347,1.6531982,15.53537,10.089172,-1.9968567,7.83461,0.6674652,-1.7248195,12.823355,4.8885293
1570715347,11.876434,19.582779,-1.4335327,-1.059433,5.2651978,-0.7823639,18.133497,15.072135,-8.701614
1570715347,11.876434,19.582779,-1.4335327,-1.059433,5.2651978,-0.7823639,18.133497,15.072135,-8.701614
1570715347,2.9161377,-8.279755,-3.937271,-1.7422638,-0.09095764,-2.3877106,4.191487,-11.101606,-2.5943305
1570715347,2.9161377,-8.279755,-3.937271,-1.7422638,-0.09095764,-2.3877106,4.191487,-11.101606,-2.5943305
1570715347,2.9161377,-8.279755,-3.937271,-1.7422638,-0.09095764,-2.3877106,4.191487,-11.101606,-2.5943305
1570715347,2.9161377,-8.279755,-3.937271,-1.7422638,-0.09095764,-2.3877106,4.191487,-11.101606,-2.5943305
1570715347,-3.063385,7.589615,5.7586517,5.6954193,-1.7208099,2.656311,-2.4701262,1.2870297,5.501455
1570715347,-3.063385,7.589615,5.7586517,5.6954193,-1.7208099,2.656311,-2.4701262,1.2870297,5.501455
1570715347,6.6516876,19.612701,2.613266,5.35347,-4.016449,3.8856354,17.857786,15.248497,-1.289449
1570715347,6.6516876,19.612701,2.613266,5.35347,-4.016449,3.8856354,17.857786,15.248497,-1.289449
1570715347,6.6516876,19.612701,2.613266,5.35347,-4.016449,3.8856354,17.857786,15.248497,-1.289449
1570715347,6.6516876,19.612701,2.613266,5.35347,-4.016449,3.8856354,17.857786,15.248497,-1.289449
1570715347,-10.634445,-13.432068,10.886429,-1.6740875,-5.606888,0.24455261,-11.563577,-18.813599,13.359614
1570715347,-10.634445,-13.432068,10.886429,-1.6740875,-5.606888,0.24455261,-11.563577,-18.813599,13.359614
1570715347,-12.387009,-2.0171204,1.893219,-4.107147,7.6322174,-0.75146484,-13.822245,-6.034752,5.8526464
1570715347,-12.137405,-2.0207062,0.5608368,-4.071991,7.4862823,-0.72483826,-13.822245,-6.034752,5.8526464
1570715347,-12.137405,-2.0207062,0.5608368,-4.071991,7.4862823,-0.72483826,-13.822245,-6.034752,5.8526464
1570715348,-12.137405,-2.0207062,0.5608368,-4.071991,7.4862823,-0.72483826,-13.822245,-6.034752,5.8526464
1570715348,-12.137405,-2.0207062,0.5608368,-4.071991,7.4862823,-0.72483826,-13.822245,-6.034752,5.8526464
1570715348,-8.407242,0.7080841,-1.877655,-3.2016754,0.017700195,-3.1333923,-9.131909,-0.46255636,0.32801712
1570715348,-8.407242,0.7080841,-1.877655,-3.2016754,0.017700195,-3.1333923,-9.131909,-0.46255636,0.32801712
1570715348,17.249619,19.576187,19.612701,-1.5515747,0.5886841,-2.3365784,16.013103,15.3407135,19.561106
1570715348,12.589905,19.612701,19.612701,-5.4312744,7.227417,-3.0758667,16.744005,15.330885,19.415892
1570715348,12.589905,19.612701,19.612701,-5.4312744,7.227417,-3.0758667,16.744005,15.330885,19.415892
1570715348,12.589905,19.612701,19.612701,-5.4312744,7.227417,-3.0758667,16.744005,15.330885,19.415892
1570715348,12.589905,19.612701,19.612701,-5.4312744,7.227417,-3.0758667,16.744005,15.330885,19.415892
1570715348,4.9829254,0.64164734,1.9381104,2.8628693,-1.9903107,1.6613617,7.94695,-3.243105,1.7091837
1570715348,4.520859,0.9690552,1.3138123,3.0769958,-1.9093628,1.8041077,6.3750925,-3.3556933,0.8274158
1570715348,-1.8177948,1.3623047,-2.339737,4.020813,-1.1242523,3.0078583,-0.30892992,-3.0219126,-2.0258925
1570715348,-1.8177948,1.3623047,-2.339737,4.020813,-1.1242523,3.0078583,-0.30892992,-3.0219126,-2.0258925
1570715348,-1.8177948,1.3623047,-2.339737,4.020813,-1.1242523,3.0078583,-0.30892992,-3.0219126,-2.0258925
1570715348,-1.8177948,1.3623047,-2.339737,4.020813,-1.1242523,3.0078583,-0.30892992,-3.0219126,-2.0258925
1570715348,-1.8177948,1.3623047,-2.339737,4.020813,-1.1242523,3.0078583,-0.30892992,-3.0219126,-2.0258925
1570715348,12.214615,19.014755,19.183548,3.4860535,-9.107346,2.4784088,16.044378,15.945675,9.446891
1570715348,-7.5764465,-19.600723,1.956665,2.6572723,-6.4292755,1.3300629,-14.357757,-21.509426,9.194201
1570715348,-5.922058,-18.840576,9.149445,-0.50442505,-6.5219574,0.4671936,-6.7983584,-22.748743,10.291666
1570715348,-5.922058,-18.840576,9.149445,-0.50442505,-6.5219574,0.4671936,-6.7983584,-22.748743,10.291666
1570715348,-5.922058,-18.840576,9.149445,-0.50442505,-6.5219574,0.4671936,-6.7983584,-22.748743,10.291666
1570715348,-5.922058,-18.840576,9.149445,-0.50442505,-6.5219574,0.4671936,-6.7983584,-22.748743,10.291666
1570715348,-5.922058,-18.840576,9.149445,-0.50442505,-6.5219574,0.4671936,-6.7983584,-22.748743,10.291666
1570715348,9.130295,19.591156,19.612701,-0.88471985,12.871185,-3.447647,9.0988245,15.276077,20.120577
1570715348,9.130295,19.591156,19.612701,-0.88471985,12.871185,-3.447647,9.0988245,15.276077,20.120577
1570715348,-4.538208,19.612701,19.382263,0.81863403,8.090286,-6.3483734,-1.2750213,15.440378,19.928059
1570715348,-4.538208,19.612701,19.382263,0.81863403,8.090286,-6.3483734,-1.2750213,15.440378,19.928059
1570715348,-4.538208,19.612701,19.382263,0.81863403,8.090286,-6.3483734,-1.2750213,15.440378,19.928059
1570715348,-4.538208,19.612701,19.382263,0.81863403,8.090286,-6.3483734,-1.2750213,15.440378,19.928059
1570715348,-4.538208,19.612701,19.382263,0.81863403,8.090286,-6.3483734,-1.2750213,15.440378,19.928059
1570715348,14.655502,8.7957,-6.573288,1.1030579,0.5940094,-0.13041687,15.329859,3.031122,-5.999902
1570715348,15.536575,9.451111,-9.530121,1.1776276,-0.5383606,0.23710632,16.782127,5.611002,-9.992317
1570715348,10.282501,5.782593,-3.2040405,1.4620514,-2.4760742,1.012619,12.807275,3.2552874,-5.945997
1570715348,10.282501,5.782593,-3.2040405,1.4620514,-2.4760742,1.012619,12.807275,3.2552874,-5.945997
1570715349,10.282501,5.782593,-3.2040405,1.4620514,-2.4760742,1.012619,12.807275,3.2552874,-5.945997
1570715349,10.282501,5.782593,-3.2040405,1.4620514,-2.4760742,1.012619,12.807275,3.2552874,-5.945997
1570715349,2.4097595,19.612701,-3.6068573,3.7640839,2.2952423,7.465988,-1.9242362,15.575258,-5.8691435
1570715349,2.4097595,19.612701,-3.6068573,3.7640839,2.2952423,7.465988,-1.9242362,15.575258,-5.8691435
1570715349,19.612701,19.612701,-13.546387,2.7052155,-5.5568237,2.795868,11.6956835,15.871384,-14.325053
1570715349,19.612701,19.612701,-13.546387,2.7052155,-5.5568237,2.795868,11.6956835,15.871384,-14.325053
1570715349,19.612701,19.612701,-13.546387,2.7052155,-5.5568237,2.795868,11.6956835,15.871384,-14.325053
1570715349,19.612701,19.612701,-13.546387,2.7052155,-5.5568237,2.795868,11.6956835,15.871384,-14.325053
1570715349,-6.8288574,-0.010772705,-1.0049591,-4.215805,4.182892,-1.0486755,-8.228139,-3.6732874,1.4301648
1570715349,-6.8288574,-0.010772705,-1.0049591,-4.215805,4.182892,-1.0486755,-8.228139,-3.6732874,1.4301648
1570715349,-8.556274,11.607681,8.084015,-3.0972748,3.9900818,0.09436035,-10.350471,4.7932954,-1.1553072
1570715349,0.15562439,11.581955,11.407776,-2.3942108,6.145111,0.54922485,-4.97431,8.220272,11.14908
1570715349,0.15562439,11.581955,11.407776,-2.3942108,6.145111,0.54922485,-4.97431,8.220272,11.14908
1570715349,0.15562439,11.581955,11.407776,-2.3942108,6.145111,0.54922485,-4.97431,8.220272,11.14908
1570715349,0.15562439,11.581955,11.407776,-2.3942108,6.145111,0.54922485,-4.97431,8.220272,11.14908
1570715349,0.15562439,11.581955,11.407776,-2.3942108,6.145111,0.54922485,-4.97431,8.220272,11.14908
1570715349,-1.9824066,9.117722,-8.981842,-3.7225952,-0.048339844,-1.6484222,0.911947,15.506362,-17.732275
1570715349,-1.9824066,9.117722,-8.981842,-3.7225952,-0.048339844,-1.6484222,0.911947,15.506362,-17.732275
1570715349,5.1648865,-2.4163513,1.8938141,-3.050415,-2.282196,-2.1288605,1.1670446,-0.33307242,-6.0596304
1570715349,5.1648865,-2.4163513,1.8938141,-3.050415,-2.282196,-2.1288605,1.1670446,-0.33307242,-6.0596304
1570715349,5.1648865,-2.4163513,1.8938141,-3.050415,-2.282196,-2.1288605,1.1670446,-0.33307242,-6.0596304
1570715349,-1.5532379,1.6376343,1.3341675,4.3787384,-1.7825928,2.0991821,-0.6684134,-1.997314,-0.08926356
1570715349,-1.5532379,1.6376343,1.3341675,4.3787384,-1.7825928,2.0991821,-0.6684134,-1.997314,-0.08926356
1570715349,-3.2327728,9.755173,-2.0177155,6.027771,-3.0981903,2.6967926,-1.5019205,4.3683944,1.5833788
1570715349,8.164825,19.612701,-0.90800476,4.9518585,-3.2207031,4.0635223,11.2070675,15.330181,-4.1650696
1570715349,5.4641724,19.612701,0.6183014,5.1276245,-2.4760742,4.2531433,11.2070675,15.330181,-4.1650696
1570715349,5.4641724,19.612701,0.6183014,5.1276245,-2.4760742,4.2531433,11.2070675,15.330181,-4.1650696
1570715349,5.4641724,19.612701,0.6183014,5.1276245,-2.4760742,4.2531433,11.2070675,15.330181,-4.1650696
1570715349,-5.436035,-10.071213,9.23085,-1.1616974,-6.5081024,-1.1892853,-6.6548476,-15.843321,10.980938
1570715349,-12.0069275,-10.466248,19.582779,-2.746811,-3.5104523,-2.792511,-9.212899,-12.4468975,22.34626
1570715349,-11.1731415,-3.4129333,1.9937744,-4.4586945,7.7472687,-1.1754456,-12.838829,-8.479519,6.710701
1570715349,-11.1731415,-3.4129333,1.9937744,-4.4586945,7.7472687,-1.1754456,-12.838829,-8.479519,6.710701
1570715349,-11.1731415,-3.4129333,1.9937744,-4.4586945,7.7472687,-1.1754456,-12.838829,-8.479519,6.710701
1570715349,-11.1731415,-3.4129333,1.9937744,-4.4586945,7.7472687,-1.1754456,-12.838829,-8.479519,6.710701
1570715350,-11.1731415,-3.4129333,1.9937744,-4.4586945,7.7472687,-1.1754456,-12.838829,-8.479519,6.710701
1570715350,-11.1731415,-3.4129333,1.9937744,-4.4586945,7.7472687,-1.1754456,-12.838829,-8.479519,6.710701
1570715350,2.9879608,0.4740448,14.022842,-0.6972351,-4.080368,-2.5826569,1.5766401,-5.422458,7.778597
1570715350,16.048935,19.612701,-17.568054,-5.121277,8.614395,-3.9941254,9.429646,15.506809,19.302498
1570715350,16.048935,19.612701,-17.568054,-5.121277,8.614395,-3.9941254,9.429646,15.506809,19.302498
1570715350,16.048935,19.612701,-17.568054,-5.121277,8.614395,-3.9941254,9.429646,15.506809,19.302498
1570715350,16.048935,19.612701,-17.568054,-5.121277,8.614395,-3.9941254,9.429646,15.506809,19.302498
1570715350,16.048935,19.612701,-17.568054,-5.121277,8.614395,-3.9941254,9.429646,15.506809,19.302498
1570715350,10.047867,2.6306305,1.1773529,1.3853455,-3.3272247,0.9550934,13.20774,-0.1397996,-2.384735
1570715350,0.71347046,4.1718903,1.5640106,3.6959076,-1.4992371,2.59346,2.1803849,-0.5406425,0.3876667
1570715350,-4.597473,2.106903,3.0962982,4.2626343,-0.7109375,2.7596436,-3.9013245,-2.2543006,1.0750079
1570715350,-4.597473,2.106903,3.0962982,4.2626343,-0.7109375,2.7596436,-3.9013245,-2.2543006,1.0750079
1570715350,-4.597473,2.106903,3.0962982,4.2626343,-0.7109375,2.7596436,-3.9013245,-2.2543006,1.0750079
1570715350,-4.597473,2.106903,3.0962982,4.2626343,-0.7109375,2.7596436,-3.9013245,-2.2543006,1.0750079
1570715350,-9.934143,-0.98880005,15.91246,4.005905,-6.5070343,1.2150116,-3.061675,2.5765297,21.4217
1570715350,-11.816589,-3.6541443,13.017273,4.050644,-6.6401978,1.2554932,-3.061675,2.5765297,21.4217
1570715350,-8.228867,-12.602478,12.812576,-0.6152191,-7.770447,-0.35305786,-8.925077,-17.91641,12.837132
1570715350,-9.2721405,-10.228027,17.111954,-1.7209625,-6.8564453,-0.9666443,-10.044717,-14.58206,17.384277
1570715350,-9.2721405,-10.228027,17.111954,-1.7209625,-6.8564453,-0.9666443,-10.044717,-14.58206,17.384277
1570715350,-9.2721405,-10.228027,17.111954,-1.7209625,-6.8564453,-0.9666443,-10.044717,-14.58206,17.384277
1570715350,-9.2721405,-10.228027,17.111954,-1.7209625,-6.8564453,-0.9666443,-10.044717,-14.58206,17.384277
1570715350,2.2230225,19.611511,19.580978,0.80477905,6.4700165,-1.8859711,-0.5461611,15.744719,20.180021
1570715350,-6.2704163,2.1733398,1.0247192,0.1816101,7.3264923,-3.5030518,-6.7599587,-0.8546181,2.0914512
1570715350,-4.9565887,1.6526031,1.2593536,0.18373108,7.194397,-3.3155518,-6.7599587,-0.8546181,2.0914512
1570715350,-5.5479584,0.98760986,1.5388794,0.39678955,6.5190125,-2.7562866,-4.630463,-2.7697358,1.9923146
1570715350,-5.5479584,0.98760986,1.5388794,0.39678955,6.5190125,-2.7562866,-4.630463,-2.7697358,1.9923146
1570715350,-5.5479584,0.98760986,1.5388794,0.39678955,6.5190125,-2.7562866,-4.630463,-2.7697358,1.9923146
1570715350,15.71254,0.4513092,-6.972519,0.93048096,0.6835022,-0.9858246,15.285278,-4.9011087,-5.772714
1570715350,15.71254,0.4513092,-6.972519,0.93048096,0.6835022,-0.9858246,15.285278,-4.9011087,-5.772714
1570715350,2.7299957,4.9799347,-0.82121277,2.858612,-1.1508942,2.33461,4.9184165,0.19861269,-2.3565454
1570715350,2.7299957,4.9799347,-0.82121277,2.858612,-1.1508942,2.33461,4.9184165,0.19861269,-2.3565454
1570715350,2.4199371,5.3462524,-0.35075378,2.9662018,-1.1871033,2.351654,3.8151214,1.0796854,-2.1665676
1570715350,2.4199371,5.3462524,-0.35075378,2.9662018,-1.1871033,2.351654,3.8151214,1.0796854,-2.1665676
1570715351,2.4199371,5.3462524,-0.35075378,2.9662018,-1.1871033,2.351654,3.8151214,1.0796854,-2.1665676
1570715351,2.4199371,5.3462524,-0.35075378,2.9662018,-1.1871033,2.351654,3.8151214,1.0796854,-2.1665676
1570715351,13.852249,19.612701,8.336609,1.5834961,0.32662964,7.561859,9.87483,15.769277,-1.2818831
1570715351,19.612701,19.612701,-18.226456,3.0066833,-6.136322,3.5756378,9.617888,15.996157,-18.1143
1570715351,-8.221695,-0.056259155,13.272263,3.621338,-8.093216,2.1364594,-0.12970877,2.579653,16.705421
1570715351,-8.221695,-0.056259155,13.272263,3.621338,-8.093216,2.1364594,-0.12970877,2.579653,16.705421
1570715351,-8.221695,-0.056259155,13.272263,3.621338,-8.093216,2.1364594,-0.12970877,2.579653,16.705421
1570715351,-7.205353,-8.989624,19.612701,3.621338,-8.093216,2.1364594,-0.12970877,2.579653,16.705421
1570715351,-7.205353,-8.989624,19.612701,3.621338,-8.093216,2.1364594,-0.12970877,2.579653,16.705421
1570715351,-15.760437,8.315659,-0.5315094,-4.2221985,4.646286,-1.0188446,-11.97845,-2.1283336,-5.5990295
1570715351,9.628281,19.612701,19.612701,0.8729553,9.7361145,-3.444458,18.737085,15.855492,20.370007
1570715351,9.628281,19.612701,19.612701,0.8729553,9.7361145,-3.444458,18.737085,15.855492,20.370007
1570715351,9.628281,19.612701,19.612701,0.8729553,9.7361145,-3.444458,18.737085,15.855492,20.370007
1570715351,9.628281,19.612701,19.612701,0.8729553,9.7361145,-3.444458,18.737085,15.855492,20.370007
1570715351,-9.7061,19.35353,-13.133392,-4.6003723,1.9692688,-0.14746094,-7.5047684,15.845558,-17.86039
1570715351,-7.763199,19.4469,-9.026138,-1.7902069,1.1777802,0.5428314,-7.5047684,15.845558,-17.86039
1570715351,19.612701,-2.8491058,-9.56543,1.4002686,3.1911316,-1.21698,20.87783,-6.412953,-7.476636
1570715351,19.612701,-2.8491058,-9.56543,1.4002686,3.1911316,-1.21698,20.87783,-6.412953,-7.476636
1570715351,19.598938,-2.3355408,-11.5095215,1.3683014,2.9993744,-1.0689087,20.87783,-6.412953,-7.476636
1570715351,19.598938,-2.3355408,-11.5095215,1.3683014,2.9993744,-1.0689087,20.87783,-6.412953,-7.476636
1570715351,19.598938,-2.3355408,-11.5095215,1.3683014,2.9993744,-1.0689087,20.87783,-6.412953,-7.476636
1570715351,11.136627,19.612701,-6.7253113,4.0069733,-2.3802032,4.536499,1.9788072,15.666328,-8.942533
1570715351,2.8042145,19.612701,-11.629837,4.207245,-4.0697174,4.4267883,8.183364,15.634179,-9.553762
1570715351,1.1031342,19.612701,-1.1270752,5.11911,-2.9511871,6.924835,2.582051,15.673416,-4.001515
1570715351,6.311722,19.612701,-4.9320526,4.3350677,0.62916565,7.3104553,0.7455025,15.857017,-5.88611
1570715351,6.311722,19.612701,-4.9320526,4.3350677,0.62916565,7.3104553,0.7455025,15.857017,-5.88611
1570715351,6.311722,19.612701,-4.9320526,4.3350677,0.62916565,7.3104553,0.7455025,15.857017,-5.88611
1570715351,6.311722,19.612701,-4.9320526,4.3350677,0.62916565,7.3104553,0.7455025,15.857017,-5.88611
1570715351,-14.494492,-11.452667,19.612701,-1.6740875,-1.6334534,-3.1206207,-15.185358,-14.026098,21.945135
1570715351,-10.739197,-1.7399902,-2.9957428,-3.832306,5.1682587,-1.5376282,-12.405355,-6.312932,-1.050105
1570715351,-10.739197,-1.7399902,-2.9957428,-3.832306,5.1682587,-1.5376282,-12.405355,-6.312932,-1.050105
1570715351,-8.293518,1.6765442,-3.9109344,-4.2264557,4.2063293,-1.5291138,-10.279959,-2.9666572,-2.7840543
1570715351,-8.293518,1.6765442,-3.9109344,-4.2264557,4.2063293,-1.5291138,-10.279959,-2.9666572,-2.7840543
1570715351,-8.293518,1.6765442,-3.9109344,-4.2264557,4.2063293,-1.5291138,-10.279959,-2.9666572,-2.7840543
1570715352,-8.293518,1.6765442,-3.9109344,-4.2264557,4.2063293,-1.5291138,-10.279959,-2.9666572,-2.7840543
1570715352,-6.7336884,5.5641174,-3.5919037,-1.7220306,-2.885147,-1.2414856,-6.322854,-4.2862196,-0.75106794
1570715352,19.612701,19.612701,19.612701,-4.362808,-0.816391,-3.3517761,18.857306,15.736823,19.24105
1570715352,19.612701,8.410828,-7.2490387,-20.472809,1.3737946,-5.259659,20.568283,13.211207,-21.062998
1570715352,19.612701,8.410828,-7.2490387,-20.472809,1.3737946,-5.259659,20.568283,13.211207,-21.062998
1570715352,19.612701,8.410828,-7.2490387,-20.472809,1.3737946,-5.259659,20.568283,13.211207,-21.062998
1570715352,19.612701,8.410828,-7.2490387,-20.472809,1.3737946,-5.259659,20.568283,13.211207,-21.062998
1570715352,4.161728,1.0259094,0.18554688,2.938507,-0.5287781,1.9298096,5.6071916,-1.717849,-1.2589766
1570715352,4.161728,1.0259094,0.18554688,2.938507,-0.5287781,1.9298096,5.6071916,-1.717849,-1.2589766
1570715352,3.8085785,-1.403595,0.7541809,3.5041656,-1.5897827,2.5178375,3.8859222,-5.121939,-1.4951859
1570715352,1.913559,5.3390656,3.2794647,5.232025,-2.5698242,3.0312805,2.9678302,0.62205577,4.703829
1570715352,1.913559,5.3390656,3.2794647,5.232025,-2.5698242,3.0312805,2.9678302,0.62205577,4.703829
1570715352,1.913559,5.3390656,3.2794647,5.232025,-2.5698242,3.0312805,2.9678302,0.62205577,4.703829
1570715352,1.913559,5.3390656,3.2794647,5.232025,-2.5698242,3.0312805,2.9678302,0.62205577,4.703829
1570715352,-8.473679,-3.016098,12.656342,2.41333,-6.7626953,0.9167328,-7.7978725,-3.4427264,14.088379
1570715352,-11.043854,-9.760559,7.399872,0.23806763,-5.342697,-0.4851532,-13.377546,-12.237101,9.038373
1570715352,-10.648804,-9.583984,9.676758,-0.5587616,-5.082779,-1.0422821,-11.942297,-12.754645,11.029388
1570715352,-10.75116,-11.604095,17.903244,-2.4357452,-1.4363861,-1.9062195,-11.032903,-13.682831,18.786125
1570715352,-10.75116,-11.604095,17.903244,-2.4357452,-1.4363861,-1.9062195,-11.032903,-13.682831,18.786125
1570715352,-10.75116,-11.604095,17.903244,-2.4357452,-1.4363861,-1.9062195,-11.032903,-13.682831,18.786125
1570715352,7.0658875,19.612701,16.256622,1.6601868,7.613037,-2.842575,7.234084,15.967809,19.529442
1570715352,7.0658875,19.612701,16.256622,1.6601868,7.613037,-2.842575,7.234084,15.967809,19.529442
1570715352,-7.3753357,1.9195557,-0.50398254,0.2646942,2.373001,-5.5685883,-3.682573,2.9786887,-0.6308268
1570715352,-7.3753357,1.9195557,-0.50398254,0.2646942,2.373001,-5.5685883,-3.682573,2.9786887,-0.6308268
1570715352,-10.041885,-2.1230621,1.0576324,0.27748108,1.6177368,-4.9006653,-9.204291,-4.588516,0.8002707
1570715352,-10.041885,-2.1230621,1.0576324,0.27748108,1.6177368,-4.9006653,-9.204291,-4.588516,0.8002707
1570715352,-10.041885,-2.1230621,1.0576324,0.27748108,1.6177368,-4.9006653,-9.204291,-4.588516,0.8002707
1570715352,-10.041885,-2.1230621,1.0576324,0.27748108,1.6177368,-4.9006653,-9.204291,-4.588516,0.8002707
1570715352,6.712143,3.7702637,-4.893753,1.6655121,-1.1157379,0.55029297,8.522003,1.1158805,-5.3627095
1570715352,6.712143,3.7702637,-4.893753,1.6655121,-1.1157379,0.55029297,8.522003,1.1158805,-5.3627095
1570715352,5.1098175,2.8371277,-0.8559265,1.90094,-1.8113556,1.1660156,7.2099457,-0.15935993,-5.068547
1570715352,5.1098175,2.8371277,-0.8559265,1.90094,-1.8113556,1.1660156,7.2099457,-0.15935993,-5.068547
1570715353,5.1098175,2.8371277,-0.8559265,1.90094,-1.8113556,1.1660156,7.2099457,-0.15935993,-5.068547
1570715353,5.1098175,2.8371277,-0.8559265,1.90094,-1.8113556,1.1660156,7.2099457,-0.15935993,-5.068547
1570715353,-1.4125824,19.612701,-5.146332,5.0977936,-1.5301208,5.1788635,0.63073665,15.609554,-2.9782581
1570715353,2.1751251,19.612701,6.38533,0.5342102,3.787674,4.59935,2.165251,15.916283,14.353823
1570715353,1.7926636,19.612701,0.2340393,0.7142334,3.356247,4.600418,0.82346606,15.943079,10.272046
1570715353,19.612701,19.612701,-4.523239,1.8838959,-3.5637054,3.9815063,10.414782,16.009449,-3.2035384
1570715353,19.612701,19.612701,-4.523239,1.8838959,-3.5637054,3.9815063,10.414782,16.009449,-3.2035384
1570715353,19.612701,19.612701,-4.523239,1.8838959,-3.5637054,3.9815063,10.414782,16.009449,-3.2035384
1570715353,19.612701,19.612701,-4.523239,1.8838959,-3.5637054,3.9815063,10.414782,16.009449,-3.2035384
1570715353,-13.235153,7.7488403,-10.727814,-1.5728912,0.059249878,-2.045761,-9.8528805,2.1138694,-6.175057
1570715353,-16.053116,9.307465,-11.864471,-1.5835419,0.15618896,-2.045761,-12.482044,3.5320115,-8.132531
1570715353,-1.874054,19.598343,1.1186981,-1.1222839,7.2860107,1.9649506,-13.076511,15.627319,9.830164
1570715353,4.108444,17.420807,7.3914948,-1.1350708,8.404526,2.2685547,-4.341052,15.879452,2.8727634
1570715353,4.108444,17.420807,7.3914948,-1.1350708,8.404526,2.2685547,-4.341052,15.879452,2.8727634
1570715353,4.108444,17.420807,7.3914948,-1.1350708,8.404526,2.2685547,-4.341052,15.879452,2.8727634
1570715353,4.108444,17.420807,7.3914948,-1.1350708,8.404526,2.2685547,-4.341052,15.879452,2.8727634
1570715353,19.612701,19.612701,1.2551575,0.17308044,6.8971863,-1.0092621,10.586214,15.885423,17.775328
1570715353,19.612701,19.612701,1.2551575,0.17308044,6.8971863,-1.0092621,10.586214,15.885423,17.775328
1570715353,3.723587,-7.217926,-1.1055298,-1.2117615,-0.26245117,-2.4963684,3.3598833,-9.490862,-0.32508516
1570715353,3.723587,-7.217926,-1.1055298,-1.2117615,-0.26245117,-2.4963684,3.3598833,-9.490862,-0.32508516
1570715353,3.723587,-7.217926,-1.1055298,-1.2117615,-0.26245117,-2.4963684,3.3598833,-9.490862,-0.32508516
1570715353,3.723587,-7.217926,-1.1055298,-1.2117615,-0.26245117,-2.4963684,3.3598833,-9.490862,-0.32508516
1570715353,3.723587,-7.217926,-1.1055298,-1.2117615,-0.26245117,-2.4963684,3.3598833,-9.490862,-0.32508516
1570715353,18.765152,19.612701,-7.9002686,5.214981,-6.05217,4.1753845,3.6610553,15.454958,-15.111064
1570715353,18.765152,19.612701,-7.9002686,5.214981,-6.05217,4.1753845,3.6610553,15.454958,-15.111064
1570715353,12.050613,19.612701,-0.07841492,5.5270996,-6.5102386,3.1687012,18.87838,15.475821,-1.1546866
1570715353,12.050613,19.612701,-0.07841492,5.5270996,-6.5102386,3.1687012,18.87838,15.475821,-1.1546866
1570715353,12.050613,19.612701,-0.07841492,5.5270996,-6.5102386,3.1687012,18.87838,15.475821,-1.1546866
1570715353,-6.8731537,-12.282257,12.980759,-0.5427704,-7.378418,0.40966797,-8.237554,-16.2728,13.760717
1570715353,-6.8731537,-12.282257,12.980759,-0.5427704,-7.378418,0.40966797,-8.237554,-16.2728,13.760717
1570715353,-12.197266,-6.1165924,5.6790466,-4.0496216,7.8260956,-0.87397766,-14.621255,-11.552869,9.758748
1570715353,-12.197266,-6.1165924,5.6790466,-4.0496216,7.8260956,-0.87397766,-14.621255,-11.552869,9.758748
1570715353,-10.136444,-2.9795837,2.5809479,-4.057083,7.7802887,-0.94747925,-11.0744915,-7.3250666,5.5552034
1570715353,-10.136444,-2.9795837,2.5809479,-4.057083,7.7802887,-0.94747925,-11.0744915,-7.3250666,5.5552034
1570715354,-10.136444,-2.9795837,2.5809479,-4.057083,7.7802887,-0.94747925,-11.0744915,-7.3250666,5.5552034
1570715354,-6.241684,1.5861511,1.7256165,0.9411316,2.4923096,-4.4223633,-7.9016156,1.8326926,2.9175916
1570715354,-4.9434204,-0.30586243,1.3916321,1.010376,2.3762054,-4.2157135,-7.9016156,1.8326926,2.9175916
1570715354,-2.7527313,14.952393,8.296509,1.9435577,-2.744522,-1.9903717,-4.9936614,4.82749,5.53825
1570715354,14.946396,19.612106,17.679382,-2.4378815,-1.9072266,-2.8628235,13.014745,15.625683,20.018173
1570715354,14.946396,19.612106,17.679382,-2.4378815,-1.9072266,-2.8628235,13.014745,15.625683,20.018173
1570715354,14.946396,19.612106,17.679382,-2.4378815,-1.9072266,-2.8628235,13.014745,15.625683,20.018173
1570715354,14.946396,19.612106,17.679382,-2.4378815,-1.9072266,-2.8628235,13.014745,15.625683,20.018173
1570715354,14.946396,19.612106,17.679382,-2.4378815,-1.9072266,-2.8628235,13.014745,15.625683,20.018173
1570715354,8.210922,-0.12988281,6.6187744,1.6101227,-1.9391785,0.5865021,10.384201,-3.020509,3.0953026
1570715354,1.5963287,-0.0909729,-0.70388794,3.8695526,-1.1445007,2.2291412,2.937934,-5.0322213,-1.7589269
1570715354,1.8668823,1.5406647,-0.7050934,3.8855286,-1.151947,2.3633728,2.5454485,-3.122044,-1.4245496
1570715354,1.8668823,1.5406647,-0.7050934,3.8855286,-1.151947,2.3633728,2.5454485,-3.122044,-1.4245496
1570715354,1.8668823,1.5406647,-0.7050934,3.8855286,-1.151947,2.3633728,2.5454485,-3.122044,-1.4245496
1570715354,1.8668823,1.5406647,-0.7050934,3.8855286,-1.151947,2.3633728,2.5454485,-3.122044,-1.4245496
1570715354,3.115448,19.612701,9.417587,2.1342316,1.8819122,5.700836,0.23116541,15.881709,6.1158867
1570715354,-14.847046,-13.1298065,9.771332,2.8341064,-7.6735077,1.9021149,-15.76884,-10.1123085,14.344608
1570715354,-14.847046,-13.1298065,9.771332,2.8341064,-7.6735077,1.9021149,-15.76884,-10.1123085,14.344608
1570715354,-15.560516,-17.550095,8.568848,2.6104126,-7.6926727,2.0118256,-15.76884,-10.1123085,14.344608
1570715354,-15.560516,-17.550095,8.568848,2.6104126,-7.6926727,2.0118256,-15.76884,-10.1123085,14.344608
1570715354,-15.560516,-17.550095,8.568848,2.6104126,-7.6926727,2.0118256,-15.76884,-10.1123085,14.344608
1570715354,-8.772354,7.143692,-15.841827,-1.6218872,-0.20812988,-2.427124,-5.946888,-0.25549293,-9.128196
1570715354,-11.16655,14.631561,3.708023,-1.4482574,0.74635315,-1.4151306,-11.620299,10.842442,0.045006633
1570715354,2.3594818,8.189362,17.377121,-2.685028,9.184311,-0.70140076,0.47251606,2.1391187,18.089144
1570715354,-3.3069916,19.612701,5.5246277,0.8857422,8.234085,-3.3443146,0.8734043,15.844818,18.748833
1570715354,-3.3069916,19.612701,5.5246277,0.8857422,8.234085,-3.3443146,0.8734043,15.844818,18.748833
1570715354,-3.3069916,19.612701,5.5246277,0.8857422,8.234085,-3.3443146,0.8734043,15.844818,18.748833
1570715354,-6.340439,0.8822632,-3.414734,-1.0626221,-0.05366516,-2.936325,-5.746352,-3.2898488,-2.320628
1570715354,-6.340439,0.8822632,-3.414734,-1.0626221,-0.05366516,-2.936325,-5.746352,-3.2898488,-2.320628
1570715354,5.249283,0.21907043,-3.612259,-1.4131012,0.8933563,-2.7232666,4.3316875,-4.023346,0.29144716
1570715354,13.903732,2.1284485,-5.253479,0.34033203,0.3106537,-1.3852997,16.099464,-1.7988801,-6.0141354
1570715354,13.074738,3.6571503,-6.320099,0.70783997,-0.38389587,-0.79940796,15.010872,-1.2710955,-6.771499
1570715354,13.074738,3.6571503,-6.320099,0.70783997,-0.38389587,-0.79940796,15.010872,-1.2710955,-6.771499
1570715355,13.074738,3.6571503,-6.320099,0.70783997,-0.38389587,-0.79940796,15.010872,-1.2710955,-6.771499
1570715355,13.074738,3.6571503,-6.320099,0.70783997,-0.38389587,-0.79940796,15.010872,-1.2710955,-6.771499
1570715355,6.467331,19.612701,-3.2231903,4.144394,-5.9808044,3.642746,16.762543,15.612957,-4.5718417
1570715355,6.467331,19.612701,-3.2231903,4.144394,-5.9808044,3.642746,16.762543,15.612957,-4.5718417
1570715355,5.5114594,19.612701,-5.272629,3.828003,1.5016174,5.805237,1.7882534,15.772049,-9.604061
1570715355,5.5114594,19.612701,-5.272629,3.828003,1.5016174,5.805237,1.7882534,15.772049,-9.604061
1570715355,5.5114594,19.612701,-5.272629,3.828003,1.5016174,5.805237,1.7882534,15.772049,-9.604061
1570715355,5.5114594,19.612701,-5.272629,3.828003,1.5016174,5.805237,1.7882534,15.772049,-9.604061
1570715355,5.5114594,19.612701,-5.272629,3.828003,1.5016174,5.805237,1.7882534,15.772049,-9.604061
1570715355,-13.702011,-10.178345,19.612106,-3.0610657,0.80493164,-2.6284637,-12.8375635,-12.803928,21.927017
1570715355,-13.494324,7.563278,-10.6553955,-2.002182,3.102707,-2.553894,-13.051709,0.9581361,-9.865833
1570715355,-13.494324,7.563278,-10.6553955,-2.002182,3.102707,-2.553894,-13.051709,0.9581361,-9.865833
1570715355,-13.494324,7.563278,-10.6553955,-2.002182,3.102707,-2.553894,-13.051709,0.9581361,-9.865833
1570715355,-13.494324,7.563278,-10.6553955,-2.002182,3.102707,-2.553894,-13.051709,0.9581361,-9.865833
1570715355,-13.494324,7.563278,-10.6553955,-2.002182,3.102707,-2.553894,-13.051709,0.9581361,-9.865833
1570715355,-13.494324,7.563278,-10.6553955,-2.002182,3.102707,-2.553894,-13.051709,0.9581361,-9.865833
1570715355,2.920929,19.58876,13.677475,2.1811066,-7.075897,-3.383728,-2.4239826,13.34058,2.9938395
1570715355,15.658676,19.533691,-19.23262,-2.9129944,4.906204,-0.516037,20.557018,15.800854,-20.23169
1570715355,15.658676,19.533691,-19.23262,-2.9129944,4.906204,-0.516037,20.557018,15.800854,-20.23169
1570715355,15.658676,19.533691,-19.23262,-2.9129944,4.906204,-0.516037,20.557018,15.800854,-20.23169
1570715355,15.658676,19.533691,-19.23262,-2.9129944,4.906204,-0.516037,20.557018,15.800854,-20.23169
1570715355,2.106903,5.130768,0.5165558,2.2279816,-1.0219879,1.3439026,4.415443,1.6142375,-1.393008
1570715355,2.106903,5.130768,0.5165558,2.2279816,-1.0219879,1.3439026,4.415443,1.6142375,-1.393008
1570715355,-0.30645752,-0.42497253,-2.0380707,3.1931,-0.3945465,1.7497711,0.4694429,-3.2311523,-1.9371096
1570715355,-0.99479675,0.723053,-3.8564606,3.429596,-0.9804535,1.8903961,-0.8654297,-4.427556,-4.7554936
1570715355,-0.99479675,0.723053,-3.8564606,3.429596,-0.9804535,1.8903961,-0.8654297,-4.427556,-4.7554936
1570715355,-0.99479675,0.723053,-3.8564606,3.429596,-0.9804535,1.8903961,-0.8654297,-4.427556,-4.7554936
1570715355,-0.99479675,0.723053,-3.8564606,3.429596,-0.9804535,1.8903961,-0.8654297,-4.427556,-4.7554936
1570715355,12.17691,19.612701,3.9701843,1.9552612,-2.3067017,5.519745,2.6670265,15.973713,7.8479247
1570715355,-13.754684,-3.5476074,15.315704,2.8564758,-7.635147,1.4813232,-11.981141,-1.410742,17.216051
1570715355,-15.687408,-7.0581055,13.326126,2.615738,-7.1003876,1.430191,-11.981141,-1.410742,17.216051
1570715355,-6.203369,-15.410278,2.928711,-0.5939026,-7.9419556,0.3148651,-8.306845,-18.769737,4.4891944
1570715355,-6.203369,-15.410278,2.928711,-0.5939026,-7.9419556,0.3148651,-8.306845,-18.769737,4.4891944
1570715356,-6.203369,-15.410278,2.928711,-0.5939026,-7.9419556,0.3148651,-8.306845,-18.769737,4.4891944
1570715356,-6.203369,-15.410278,2.928711,-0.5939026,-7.9419556,0.3148651,-8.306845,-18.769737,4.4891944
1570715356,2.4732056,8.204926,14.969147,-1.410965,7.92836,0.8890381,2.4675572,3.7035458,17.926777
1570715356,3.3117828,12.188873,15.263641,-1.2469177,7.751526,0.77931213,2.4675572,3.7035458,17.926777
1570715356,-16.295532,15.705963,1.0289154,1.4343567,9.275925,-5.544098,-14.16727,15.316254,6.85802
1570715356,-15.896301,8.600571,-4.340683,1.2372742,7.803726,-4.7589874,-16.91313,9.884939,-0.45182353
1570715356,-15.896301,8.600571,-4.340683,1.2372742,7.803726,-4.7589874,-16.91313,9.884939,-0.45182353
1570715356,-15.896301,8.600571,-4.340683,1.2372742,7.803726,-4.7589874,-16.91313,9.884939,-0.45182353
1570715356,-15.896301,8.600571,-4.340683,1.2372742,7.803726,-4.7589874,-16.91313,9.884939,-0.45182353
1570715356,7.399872,4.4681854,-1.9973602,0.658844,1.0936279,-1.3916931,3.4378014,-1.0488365,-2.3758774
1570715356,7.399872,4.4681854,-1.9973602,0.658844,1.0936279,-1.3916931,3.4378014,-1.0488365,-2.3758774
1570715356,10.389038,2.8233643,-5.9747314,1.997879,1.4249268,0.37771606,11.941764,-0.83974075,-4.5456853
1570715356,10.389038,2.8233643,-5.9747314,1.997879,1.4249268,0.37771606,11.941764,-0.83974075,-4.5456853
1570715356,10.389038,2.8233643,-5.9747314,1.997879,1.4249268,0.37771606,11.941764,-0.83974075,-4.5456853
1570715356,10.389038,2.8233643,-5.9747314,1.997879,1.4249268,0.37771606,11.941764,-0.83974075,-4.5456853
1570715356,14.618988,19.612701,-7.7033386,3.605362,-5.8369904,3.002533,16.953522,15.530109,-9.66263
1570715356,-2.0973206,19.612701,0.64404297,3.5233307,-3.7021942,4.768738,-1.7535126,15.506158,-0.32208055
1570715356,1.0947418,19.612701,-1.6585846,4.367035,-0.2454071,5.616684,-0.67868406,15.553573,-1.4989103
1570715356,-4.890152,19.612701,-9.236237,3.4040222,1.0552673,3.7972107,-0.435807,15.677661,-4.199884
1570715356,-4.890152,19.612701,-9.236237,3.4040222,1.0552673,3.7972107,-0.435807,15.677661,-4.199884
1570715356,-4.890152,19.612701,-9.236237,3.4040222,1.0552673,3.7972107,-0.435807,15.677661,-4.199884
1570715356,-4.890152,19.612701,-9.236237,3.4040222,1.0552673,3.7972107,-0.435807,15.677661,-4.199884
1570715356,-9.988617,-19.586365,10.644028,-3.148407,1.0318451,-1.3128662,-12.428327,-22.99657,14.814929
1570715356,-4.3143463,0.34176636,-2.9388885,-0.7664795,1.6944275,-0.19859314,-6.2814693,-3.1557848,-2.9404552
1570715356,-3.526657,0.6655884,-1.964447,-0.694046,1.9362488,0.0634613,-5.082836,-3.1959612,-1.8212883
1570715356,0.35134888,5.746689,-4.074936,-0.44050598,3.4158936,0.6568146,-3.4593186,-2.4587865,-0.41834402
1570715356,0.35134888,5.746689,-4.074936,-0.44050598,3.4158936,0.6568146,-3.4593186,-2.4587865,-0.41834402
1570715356,0.35134888,5.746689,-4.074936,-0.44050598,3.4158936,0.6568146,-3.4593186,-2.4587865,-0.41834402
1570715356,0.35134888,5.746689,-4.074936,-0.44050598,3.4158936,0.6568146,-3.4593186,-2.4587865,-0.41834402
1570715356,-4.2515106,19.612701,18.000809,-4.3862457,-6.4250183,-4.5502014,-0.466263,15.3653755,19.33347
1570715356,-6.3021393,19.612701,13.681671,-4.800644,-5.451355,-4.1507263,-0.466263,15.3653755,19.33347
1570715356,9.017166,14.642944,-18.871094,-16.634659,2.9322662,1.0722656,14.8382435,15.161934,-20.87192
1570715356,9.017166,14.642944,-18.871094,-16.634659,2.9322662,1.0722656,14.8382435,15.161934,-20.87192
1570715356,9.017166,14.642944,-18.871094,-16.634659,2.9322662,1.0722656,14.8382435,15.161934,-20.87192
1570715357,9.017166,14.642944,-18.871094,-16.634659,2.9322662,1.0722656,14.8382435,15.161934,-20.87192
1570715357,9.017166,14.642944,-18.871094,-16.634659,2.9322662,1.0722656,14.8382435,15.161934,-20.87192
1570715357,1.454483,3.324356,-4.265869,1.8828278,1.3791199,1.04776,1.7315189,-0.96441984,-7.653542
1570715357,8.0941925,4.806961,8.343796,4.4735565,-1.6686096,1.1862488,7.0313106,-2.2868924,5.8696175
1570715357,8.0941925,4.806961,8.343796,4.4735565,-1.6686096,1.1862488,7.0313106,-2.2868924,5.8696175
1570715357,8.0941925,4.806961,8.343796,4.4735565,-1.6686096,1.1862488,7.0313106,-2.2868924,5.8696175
1570715357,8.0941925,4.806961,8.343796,4.4735565,-1.6686096,1.1862488,7.0313106,-2.2868924,5.8696175
1570715357,9.871292,19.612701,8.662216,4.7004547,-2.29924,4.678192,8.485925,15.229533,-7.098681
1570715357,9.871292,19.612701,8.662216,4.7004547,-2.29924,4.678192,8.485925,15.229533,-7.098681
1570715357,13.736725,0.28671265,5.6551056,2.442093,-2.7349396,1.8786774,18.499603,2.1819954,15.332718
1570715357,-2.9813843,-6.846817,3.384201,-1.3960571,-2.2608948,0.32870483,-4.1548157,-9.9806595,6.0120583
1570715357,-2.9813843,-6.846817,3.384201,-1.3960571,-2.2608948,0.32870483,-4.1548157,-9.9806595,6.0120583
1570715357,-2.9813843,-6.846817,3.384201,-1.3960571,-2.2608948,0.32870483,-4.1548157,-9.9806595,6.0120583
1570715357,-2.9813843,-6.846817,3.384201,-1.3960571,-2.2608948,0.32870483,-4.1548157,-9.9806595,6.0120583
1570715357,-2.9813843,-6.846817,3.384201,-1.3960571,-2.2608948,0.32870483,-4.1548157,-9.9806595,6.0120583
1570715357,-1.783081,1.9291229,-17.915817,-0.26794434,3.8111115,-0.48727417,8.217605,0.41517496,-18.70723
1570715357,-3.5535889,-0.1550293,-2.554016,-1.68367,1.0318451,0.9902344,-8.43675,-5.4588833,-7.359486
1570715357,-4.9194794,19.595947,19.612701,-2.1875458,-2.407898,5.347168,-16.1408,15.293047,4.2845325
1570715357,-4.9194794,19.595947,19.612701,-2.1875458,-2.407898,5.347168,-16.1408,15.293047,4.2845325
1570715357,-4.9194794,19.595947,19.612701,-2.1875458,-2.407898,5.347168,-16.1408,15.293047,4.2845325
1570715357,-4.9194794,19.595947,19.612701,-2.1875458,-2.407898,5.347168,-16.1408,15.293047,4.2845325
1570715357,-4.9194794,19.595947,19.612701,-2.1875458,-2.407898,5.347168,-16.1408,15.293047,4.2845325
1570715357,-0.21607971,12.558182,16.817474,-10.134415,-0.3657837,3.7503357,0.7563821,6.3129,-7.4547524
1570715357,4.6824646,11.645996,-16.18779,-2.2802277,0.73036194,0.6674652,0.7625849,9.079404,-21.172699
1570715357,10.390244,2.17453,-4.6148224,0.19544983,-3.059845,-0.50006104,8.737545,-2.6372702,-3.051311
1570715357,10.390244,2.17453,-4.6148224,0.19544983,-3.059845,-0.50006104,8.737545,-2.6372702,-3.051311
1570715357,10.390244,2.17453,-4.6148224,0.19544983,-3.059845,-0.50006104,8.737545,-2.6372702,-3.051311
1570715357,10.390244,2.17453,-4.6148224,0.19544983,-3.059845,-0.50006104,8.737545,-2.6372702,-3.051311
1570715357,-3.1286163,19.59056,0.84695435,5.8765106,3.7152405,3.0270233,-4.054053,14.782642,7.045163
1570715357,-3.4219055,19.612701,-2.0853424,5.450409,3.2326813,3.0398102,-4.054053,14.782642,7.045163
1570715357,-3.1394043,14.801559,2.4373016,1.6005402,-0.04940796,3.1506042,-5.3136797,14.513125,6.106512
1570715357,-3.5158844,19.612701,2.5558167,3.3156128,-0.9239807,3.179367,-3.8401794,9.841896,2.0329633
1570715357,-3.5158844,19.612701,2.5558167,3.3156128,-0.9239807,3.179367,-3.8401794,9.841896,2.0329633
1570715357,-3.5158844,19.612701,2.5558167,3.3156128,-0.9239807,3.179367,-3.8401794,9.841896,2.0329633
1570715358,1.0708008,3.5116882,-4.197632,-1.4631653,0.79216003,1.0914459,1.5065823,0.020477772,-4.074798
1570715358,-0.47045898,3.7601013,-2.8221588,-1.6399994,0.9721832,1.028595,-0.84431577,-0.7198305,-3.2809913
1570715358,-2.600708,-1.4179688,-3.6140442,-3.8280487,3.8121796,0.017654419,-3.227945,-4.1870646,-3.6586041
1570715358,-2.600708,-1.4179688,-3.6140442,-3.8280487,3.8121796,0.017654419,-3.227945,-4.1870646,-3.6586041
1570715358,-2.600708,-1.4179688,-3.6140442,-3.8280487,3.8121796,0.017654419,-3.227945,-4.1870646,-3.6586041
1570715358,-2.600708,-1.4179688,-3.6140442,-3.8280487,3.8121796,0.017654419,-3.227945,-4.1870646,-3.6586041
1570715358,-2.600708,-1.4179688,-3.6140442,-3.8280487,3.8121796,0.017654419,-3.227945,-4.1870646,-3.6586041
1570715358,-2.600708,-1.4179688,-3.6140442,-3.8280487,3.8121796,0.017654419,-3.227945,-4.1870646,-3.6586041
1570715358,-2.9346924,8.309082,19.612701,1.805069,0.15193176,-4.2135773,-0.12604356,5.122095,16.280567
1570715358,-3.910324,8.564056,19.612701,2.1938934,-0.24328613,-3.7821503,-0.83699,4.6992073,16.296518
1570715358,-5.85083,12.002731,19.612701,3.3550262,-1.7133484,-1.583435,-2.4219444,8.442362,16.401175
1570715358,-5.85083,12.002731,19.612701,3.3550262,-1.7133484,-1.583435,-2.4219444,8.442362,16.401175
1570715358,-5.85083,12.002731,19.612701,3.3550262,-1.7133484,-1.583435,-2.4219444,8.442362,16.401175
1570715358,-3.1687317,0.28909302,3.4691925,-2.7276306,-2.9107056,2.6467285,-1.0497831,0.020010948,5.5662546
1570715358,-3.1687317,0.28909302,3.4691925,-2.7276306,-2.9107056,2.6467285,-1.0497831,0.020010948,5.5662546
1570715358,-2.3810272,-0.826004,1.8351593,-1.2128296,-1.9658203,2.767105,-2.4749918,-2.8948772,-3.3000484
1570715358,-3.8211517,-1.83815,3.2632904,-0.28071594,-2.3248138,2.4059753,-3.389134,-3.2821066,-1.4963441
1570715358,-5.2917786,-4.830307,5.0032806,0.25616455,-3.0747528,2.8523254,-5.841048,-6.302515,-1.5071664
1570715358,-5.2917786,-4.830307,5.0032806,0.25616455,-3.0747528,2.8523254,-5.841048,-6.302515,-1.5071664
1570715358,-5.2917786,-4.830307,5.0032806,0.25616455,-3.0747528,2.8523254,-5.841048,-6.302515,-1.5071664
1570715358,-5.2917786,-4.830307,5.0032806,0.25616455,-3.0747528,2.8523254,-5.841048,-6.302515,-1.5071664
1570715358,-3.142395,4.416107,15.401901,2.3867035,2.1610107,1.333252,-4.7003884,2.7133205,10.21122
1570715358,6.8091125,15.93042,19.540283,-1.2032471,-3.760788,0.29249573,-2.601374,17.630499,12.74184
1570715358,-0.7176666,-2.5426483,7.388504,-3.8621368,5.489975,1.4525604,-12.860958,-6.6413593,13.7014475
1570715358,-0.7176666,-2.5426483,7.388504,-3.8621368,5.489975,1.4525604,-12.860958,-6.6413593,13.7014475
1570715358,-0.7176666,-2.5426483,7.388504,-3.8621368,5.489975,1.4525604,-12.860958,-6.6413593,13.7014475
1570715358,-0.7176666,-2.5426483,7.388504,-3.8621368,5.489975,1.4525604,-12.860958,-6.6413593,13.7014475
1570715358,7.1131744,-3.8169556,5.067322,-0.03251648,-2.837204,-1.7645264,7.0805964,-4.8500896,-0.0049180984
1570715358,7.1131744,-3.8169556,5.067322,-0.03251648,-2.837204,-1.7645264,7.0805964,-4.8500896,-0.0049180984
1570715358,6.5283966,-3.0172882,11.589737,0.54911804,-0.92292786,-2.72966,5.5064197,-3.4749973,5.5482726
1570715358,3.5284576,-0.8672943,12.757507,1.4897461,1.0158539,-2.6082153,2.8140774,-1.5359309,6.982433
1570715358,3.5284576,-0.8672943,12.757507,1.4897461,1.0158539,-2.6082153,2.8140774,-1.5359309,6.982433
1570715358,3.5284576,-0.8672943,12.757507,1.4897461,1.0158539,-2.6082153,2.8140774,-1.5359309,6.982433
1570715359,1.1049194,-0.60453796,15.868774,-0.58325195,1.0510101,-1.18396,0.9542326,-4.3669615,13.554316
1570715359,0.94750977,-0.5027771,15.103226,-0.5726013,1.0787048,-1.1722412,0.77817905,-0.976557,10.176551
1570715359,-2.3385315,2.4049683,9.134476,-0.72280884,-0.25286865,-1.0987396,-2.5839758,2.4297307,2.805293
1570715359,-0.42497253,1.2970581,12.231384,-0.49909973,-1.4992371,-0.92510986,-0.81846106,1.4602703,5.5026417
1570715359,-0.42497253,1.2970581,12.231384,-0.49909973,-1.4992371,-0.92510986,-0.81846106,1.4602703,5.5026417
1570715359,-0.42497253,1.2970581,12.231384,-0.49909973,-1.4992371,-0.92510986,-0.81846106,1.4602703,5.5026417
1570715359,-0.42497253,1.2970581,12.231384,-0.49909973,-1.4992371,-0.92510986,-0.81846106,1.4602703,5.5026417
1570715359,-3.2142181,0.8846588,12.556992,2.0319672,-0.3668518,0.11140442,-3.6615853,0.02241522,5.826361
1570715359,-3.2142181,0.8846588,12.556992,2.0319672,-0.3668518,0.11140442,-3.6615853,0.02241522,5.826361
1570715359,-2.09552,1.4514923,8.170807,2.3355713,-0.3338318,0.6813202,-3.3883367,-0.3863572,2.5802374
1570715359,-2.09552,1.4514923,8.170807,2.3355713,-0.3338318,0.6813202,-3.3883367,-0.3863572,2.5802374
1570715359,-1.7525482,1.5394745,7.90625,2.2162628,-0.34661865,0.6855774,-2.9006166,-0.29930055,2.1344132
1570715359,-1.7525482,1.5394745,7.90625,2.2162628,-0.34661865,0.6855774,-2.9006166,-0.29930055,2.1344132
1570715359,-1.7525482,1.5394745,7.90625,2.2162628,-0.34661865,0.6855774,-2.9006166,-0.29930055,2.1344132
1570715359,-1.7525482,1.5394745,7.90625,2.2162628,-0.34661865,0.6855774,-2.9006166,-0.29930055,2.1344132
1570715359,0.07841492,-0.1257019,9.200912,-0.64823914,0.32556152,0.663208,0.19838662,-0.8944576,1.921072
1570715359,0.07841492,-0.1257019,9.200912,-0.64823914,0.32556152,0.663208,0.19838662,-0.8944576,1.921072
1570715359,-0.21487427,0.4554901,8.110352,-0.19337463,0.24034119,0.838974,-0.16582745,-0.77239096,1.7518325
1570715359,-0.21487427,0.4554901,8.110352,-0.19337463,0.24034119,0.838974,-0.16582745,-0.77239096,1.7518325
1570715359,-0.21487427,0.4554901,8.110352,-0.19337463,0.24034119,0.838974,-0.16582745,-0.77239096,1.7518325
1570715359,-0.21487427,0.4554901,8.110352,-0.19337463,0.24034119,0.838974,-0.16582745,-0.77239096,1.7518325
1570715359,-0.21487427,0.4554901,8.110352,-0.19337463,0.24034119,0.838974,-0.16582745,-0.77239096,1.7518325
1570715359,1.2114716,2.5019379,9.755173,0.79519653,-0.4733734,0.184906,0.93130386,1.3171571,3.1253004
1570715359,1.5915527,1.704071,10.070007,0.77815247,-0.65341187,-0.04838562,1.0534065,0.25484324,3.5938435
1570715359,1.6268616,1.6591797,10.072998,0.76750183,-0.65660095,-0.070755005,1.0534065,0.25484324,3.5938435
1570715359,1.6268616,1.6591797,10.072998,0.76750183,-0.65660095,-0.070755005,1.0534065,0.25484324,3.5938435
1570715359,1.6268616,1.6591797,10.072998,0.76750183,-0.65660095,-0.070755005,1.0534065,0.25484324,3.5938435
1570715359,1.6268616,1.6591797,10.072998,0.76750183,-0.65660095,-0.070755005,1.0534065,0.25484324,3.5938435
1570715359,1.0731964,2.0919342,8.686157,-0.22106934,-0.27737427,-1.627121,0.4252559,0.14844489,2.082849
1570715359,0.68055725,-0.37649536,13.640961,-1.7880707,0.017700195,-1.3075409,0.122302055,-2.1427608,7.2297187
1570715359,0.68055725,-0.37649536,13.640961,-1.7688904,0.06350708,-1.2841034,0.122302055,-2.1427608,7.2297187
1570715359,0.68055725,-0.37649536,13.640961,-1.7688904,0.06350708,-1.2841034,0.122302055,-2.1427608,7.2297187
1570715359,0.68055725,-0.37649536,13.640961,-1.7688904,0.06350708,-1.2841034,0.122302055,-2.1427608,7.2297187
1570715360,0.68055725,-0.37649536,13.640961,-1.7688904,0.06350708,-1.2841034,0.122302055,-2.1427608,7.2297187
1570715360,0.41719055,0.549469,6.735489,-0.69511414,-1.0869751,-1.074234,0.19446224,-0.6789876,-0.08369589
1570715360,0.41719055,0.549469,6.735489,-0.69511414,-1.0869751,-1.074234,0.19446224,-0.6789876,-0.08369589
1570715360,0.3250122,2.8083954,7.937378,-1.377945,-2.6262817,-0.68222046,-0.29289597,1.69626,0.5351114
1570715360,0.76135254,4.1527405,11.024704,-1.7454529,-2.3322601,-0.49899292,-0.60275906,3.5849912,1.9163661
1570715360,0.76135254,4.1527405,11.024704,-1.7454529,-2.3322601,-0.49899292,-0.60275906,3.5849912,1.9163661
1570715360,0.76135254,4.1527405,11.024704,-1.7454529,-2.3322601,-0.49899292,-0.60275906,3.5849912,1.9163661
1570715360,0.76135254,4.1527405,11.024704,-1.7454529,-2.3322601,-0.49899292,-0.60275906,3.5849912,1.9163661
1570715360,2.3175812,-1.7842712,12.189484,1.8199768,3.0483856,0.630188,1.6170998,-1.5398451,5.1840053
1570715360,-2.683899,2.9664154,12.936478,1.2372742,-1.0124054,-0.1325531,-2.9104435,3.4011257,6.309681
1570715360,-2.6797028,2.8125916,12.771271,1.2319489,-0.8781738,-0.023895264,-2.9308903,2.598656,5.793297
1570715360,-0.65242004,2.3972015,11.751938,0.3935852,0.08694458,0.52897644,-1.8809748,1.8821497,4.8961444
1570715360,-0.65242004,2.3972015,11.751938,0.3935852,0.08694458,0.52897644,-1.8809748,1.8821497,4.8961444
1570715360,-0.65242004,2.3972015,11.751938,0.3935852,0.08694458,0.52897644,-1.8809748,1.8821497,4.8961444
1570715360,-0.79307556,-1.8812408,13.81395,1.5067902,-0.002532959,0.8155365,-1.0509696,-2.526412,6.833532
1570715360,-0.79307556,-1.8812408,13.81395,1.5067902,-0.002532959,0.8155365,-1.0509696,-2.526412,6.833532
1570715360,-2.7228088,-0.5087738,7.968506,0.5746918,0.7655182,0.4394989,-2.1779337,-0.9225273,0.089152336
1570715360,-2.205658,-0.56562805,8.820831,0.24978638,0.9956207,0.5982208,-2.1023383,-1.4821042,1.1733174
1570715360,-1.9105682,-0.060455322,8.490433,0.10809326,1.1287842,0.6610718,-1.6620259,-1.1818953,1.3105474
1570715360,-1.9105682,-0.060455322,8.490433,0.10809326,1.1287842,0.6610718,-1.6620259,-1.1818953,1.3105474
1570715360,-1.9105682,-0.060455322,8.490433,0.10809326,1.1287842,0.6610718,-1.6620259,-1.1818953,1.3105474
1570715360,-1.9105682,-0.060455322,8.490433,0.10809326,1.1287842,0.6610718,-1.6620259,-1.1818953,1.3105474
1570715360,-0.7044983,0.21966553,10.011353,-0.29031372,0.11677551,0.42564392,-0.21770763,-0.34215406,2.522398
1570715360,-0.20770264,1.2467804,9.049484,-0.090042114,-0.35939026,0.5396271,0.34187913,0.6858145,1.4121594
1570715360,-0.20770264,1.2467804,9.049484,-0.090042114,-0.35939026,0.5396271,0.34187913,0.6858145,1.4121594
1570715360,-0.20770264,1.2467804,9.049484,-0.090042114,-0.35939026,0.5396271,0.34187913,0.6858145,1.4121594
1570715360,-0.20770264,1.2467804,9.049484,-0.090042114,-0.35939026,0.5396271,0.34187913,0.6858145,1.4121594
1570715360,-0.010772705,1.36409,9.2901,-0.090042114,-0.35939026,0.5396271,0.34187913,0.6858145,1.4121594
1570715360,-0.33998108,2.2260132,10.644623,-0.46394348,-0.25286865,-0.11123657,0.34187913,0.6858145,1.4121594
1570715360,-1.2192535,2.3379364,10.728424,-1.2735443,0.25845337,-0.38075256,-0.6066515,2.5314271,2.6561174
1570715360,-1.2192535,2.3379364,10.728424,-1.2735443,0.25845337,-0.38075256,-0.6066515,2.5314271,2.6561174
1570715360,-1.4616547,1.6627655,12.250534,-1.172348,-0.37963867,-0.4148407,-0.8912617,2.1928446,3.9709811
1570715360,-1.4616547,1.6627655,12.250534,-1.172348,-0.37963867,-0.4148407,-0.8912617,2.1928446,3.9709811
1570715360,-1.4616547,1.6627655,12.250534,-1.172348,-0.37963867,-0.4148407,-0.8912617,2.1928446,3.9709811
1570715361,1.4999695,-0.28671265,1.822586,2.0511475,1.6667328,0.36279297,0.4679166,-0.12225214,5.7374516
1570715361,1.4999695,-0.28671265,1.822586,2.0511475,1.6667328,0.36279297,0.4679166,-0.12225214,5.7374516
1570715361,2.269699,-0.17837524,8.846573,0.46496582,-0.099472046,-0.09313965,0.4815837,-0.4730513,2.8862529
1570715361,2.873642,-0.08200073,11.484985,-0.33184814,0.013442993,-0.18580627,1.1873878,-0.6673418,3.2854877
1570715361,1.5269012,-0.30526733,12.23497,-0.51934814,0.73143005,-0.63108826,0.23721445,-0.6312381,4.4950347
1570715361,1.4179688,-0.32202148,12.178711,-0.49163818,0.74528503,-0.64601135,0.23721445,-0.6312381,4.4950347
1570715361,0.4734497,-0.7044983,11.591522,-0.14543152,0.8816376,-0.6715698,-0.71691954,-1.0674045,3.8649182
1570715361,0.79667664,-0.53749084,9.006393,0.095321655,0.52583313,-0.46064758,-0.4869324,-0.96829545,0.7983756
1570715361,0.79667664,-0.53749084,9.006393,0.095321655,0.52583313,-0.46064758,-0.4869324,-0.96829545,0.7983756
1570715361,-0.068237305,0.51416016,9.383469,-0.0058898926,0.747406,-0.070755005,-0.85287994,0.038440615,1.3597498
1570715361,0.18734741,0.33398438,9.03093,0.046310425,0.47151184,-0.061172485,-0.31187528,0.09955412,1.1848917
1570715361,0.5680237,0.44352722,10.024521,0.22207642,-0.23582458,0.07624817,0.019665122,0.01803857,1.9492512
1570715361,0.27952576,0.9714508,9.898224,-0.16033936,0.74635315,-0.10165405,0.09779841,0.5128194,1.5144625
1570715361,0.20829773,0.9642639,10.104721,-0.16033936,0.74635315,-0.10165405,0.09779841,0.5128194,1.5144625
1570715361,0.462677,0.58477783,10.438126,0.19119263,0.46298218,-0.0388031,0.092105985,-0.09192622,2.4686384
1570715361,1.1815338,1.3168182,9.959274,0.5384674,0.04434204,0.042160034,1.1155384,0.6802182,1.6434364
1570715361,-1.830368,1.2216339,8.2599945,0.7632446,-0.8366394,0.6216583,-1.6547959,0.26238537,0.14285469
1570715361,-2.1763306,1.5119324,8.561066,1.0402069,-1.6089478,0.759079,-2.2243547,0.32965088,0.23227215
1570715361,3.3016052,4.7860107,6.5726776,1.8604584,-5.419403,0.52471924,1.0605488,3.1334825,-1.1335759
1570715361,3.3016052,4.7860107,6.5726776,1.8604584,-5.419403,0.52471924,1.0605488,3.1334825,-1.1335759
1570715361,3.0861206,2.8515015,9.450516,0.5832062,-4.512863,0.5609436,-0.62501764,0.8962848,2.072394
1570715361,10.918152,4.4226837,8.675995,0.72595215,-3.970642,0.37025452,6.0081263,0.9825289,2.48774
1570715361,10.918152,4.4226837,8.675995,0.72595215,-3.970642,0.37025452,6.0081263,0.9825289,2.48774
1570715361,7.6632385,3.5476074,9.0746155,0.9975891,-2.6060333,-0.22628784,2.9178767,1.4955812,3.9992065
1570715361,7.972687,2.6623535,3.8804016,0.3658905,-0.18362427,0.025115967,1.4648237,0.51288843,1.2164159
1570715361,7.972687,2.6623535,3.8804016,0.3658905,-0.18362427,0.025115967,1.4648237,0.51288843,1.2164159
1570715361,7.972687,2.6623535,3.8804016,0.3658905,-0.18362427,0.025115967,1.4648237,0.51288843,1.2164159
1570715361,7.972687,2.6623535,3.8804016,0.3658905,-0.18362427,0.025115967,1.4648237,0.51288843,1.2164159
1570715361,7.972687,2.6623535,3.8804016,0.3658905,-0.18362427,0.025115967,1.4648237,0.51288843,1.2164159
1570715361,7.972687,2.6623535,3.8804016,0.3658905,-0.18362427,0.025115967,1.4648237,0.51288843,1.2164159
1570715361,7.972687,2.6623535,3.8804016,0.3658905,-0.18362427,0.025115967,1.4648237,0.51288843,1.2164159
1570715361,5.6000366,2.0344696,7.6518707,0.4351349,0.90719604,0.030441284,1.4648237,0.51288843,1.2164159
1570715362,6.1255646,2.3936005,8.148666,0.9986572,1.8733978,-0.85266113,1.0001664,-0.30081487,2.2369552
1570715362,6.1255646,2.3936005,8.148666,0.9986572,1.8733978,-0.85266113,1.0001664,-0.30081487,2.2369552
1570715362,1.948883,1.6310425,7.268799,0.16029358,2.9631653,0.6866455,-2.2474775,-1.2249935,1.3421936
1570715362,2.3744507,1.5412598,7.0461426,0.06549072,3.0419922,0.75375366,-2.2474775,-1.2249935,1.3421936
1570715362,5.1164093,3.4051514,9.424774,-0.9486389,3.8420105,0.44908142,1.6232226,0.40405273,2.2314992
1570715362,5.1164093,3.4051514,9.424774,-0.9486389,3.8420105,0.44908142,1.6232226,0.40405273,2.2314992
1570715362,5.1164093,3.4051514,9.424774,-0.9486389,3.8420105,0.44908142,1.6232226,0.40405273,2.2314992
1570715362,5.1164093,3.4051514,9.424774,-0.9486389,3.8420105,0.44908142,1.6232226,0.40405273,2.2314992
1570715362,-0.2675476,1.0480652,10.769714,-0.78352356,2.146103,-0.44680786,-0.61240464,-0.7349249,2.7274752
1570715362,-0.2675476,1.0480652,10.769714,-0.78352356,2.146103,-0.44680786,-0.61240464,-0.7349249,2.7274752
1570715362,-1.821991,0.62309265,9.321823,-0.6194763,1.1117401,0.17958069,-1.9867271,-0.93084896,1.079422
1570715362,-0.636261,0.8774719,10.030502,-0.48098755,0.6366272,0.3659973,-0.93658894,-0.79518974,1.0129528
1570715362,-0.636261,0.8774719,10.030502,-0.48098755,0.6366272,0.3659973,-0.93658894,-0.79518974,1.0129528
1570715362,-0.636261,0.8774719,10.030502,-0.48098755,0.6366272,0.3659973,-0.93658894,-0.79518974,1.0129528
1570715362,-0.636261,0.8774719,10.030502,-0.48098755,0.6366272,0.3659973,-0.93658894,-0.79518974,1.0129528
1570715362,-0.636261,0.8774719,10.030502,-0.48098755,0.6366272,0.3659973,-0.93658894,-0.79518974,1.0129528
1570715362,-1.1276703,1.241394,10.110718,-0.20935059,0.4832306,0.6259155,-0.7932092,-0.22476006,1.8985577
1570715362,-1.3623047,0.95887756,9.461288,-0.41706848,0.6909485,0.7143402,-0.73683923,-0.3302616,1.0916309
1570715362,-0.46028137,2.3768463,8.264191,-0.5939026,0.40759277,0.8379059,-0.0015204549,1.0742875,-0.16608715
1570715362,-0.46028137,2.3768463,8.264191,-0.5939026,0.40759277,0.8379059,-0.0015204549,1.0742875,-0.16608715
1570715362,-0.46028137,2.3768463,8.264191,-0.5939026,0.40759277,0.8379059,-0.0015204549,1.0742875,-0.16608715
1570715362,-0.46028137,2.3768463,8.264191,-0.5939026,0.40759277,0.8379059,-0.0015204549,1.0742875,-0.16608715
1570715362,-0.46028137,2.3768463,8.264191,-0.5939026,0.40759277,0.8379059,-0.0015204549,1.0742875,-0.16608715
1570715362,1.0875702,1.430542,9.718658,-0.23704529,0.023025513,0.7388458,1.2300087,0.9934672,1.4550123
1570715362,1.1581879,1.5310974,9.697113,-0.30415344,0.066711426,0.7612152,1.3118664,1.0145793,0.9279337
1570715362,1.4239502,1.5897522,10.291473,-0.41601562,0.29467773,0.80274963,1.5379691,1.2083664,1.3766346
1570715362,1.4239502,1.5897522,10.291473,-0.41601562,0.29467773,0.80274963,1.5379691,1.2083664,1.3766346
1570715362,1.4239502,1.5897522,10.291473,-0.41601562,0.29467773,0.80274963,1.5379691,1.2083664,1.3766346
1570715362,1.4239502,1.5897522,10.291473,-0.41601562,0.29467773,0.80274963,1.5379691,1.2083664,1.3766346
1570715362,1.1270752,1.0474701,10.834366,-0.30628967,0.64408875,0.45547485,1.7747226,0.859151,1.7508821
1570715362,1.1043243,1.0462646,10.966049,-0.3126831,0.6589966,0.45654297,1.7680241,0.836216,1.9712133
1570715362,0.24780273,0.44172668,11.654968,-0.27539062,0.794281,0.60354614,1.19887,0.37360597,2.6563292
1570715362,0.24780273,0.44172668,11.654968,-0.27539062,0.794281,0.60354614,1.19887,0.37360597,2.6563292
1570715362,0.24780273,0.44172668,11.654968,-0.27539062,0.794281,0.60354614,1.19887,0.37360597,2.6563292
1570715363,0.24780273,0.44172668,11.654968,-0.27539062,0.794281,0.60354614,1.19887,0.37360597,2.6563292
1570715363,0.24780273,0.44172668,11.654968,-0.27539062,0.794281,0.60354614,1.19887,0.37360597,2.6563292
1570715363,0.054473877,0.79008484,11.474213,0.39572144,-0.1346283,0.92951965,1.3286322,0.19905293,2.702465
1570715363,0.21427917,1.0971375,9.7845,0.31689453,-0.043014526,0.7036896,1.3114269,0.36421543,1.2135725
1570715363,0.46388245,1.1342468,9.754578,0.24871826,6.5612793E-4,0.5907593,1.5669914,0.36633265,0.9540653
1570715363,0.46388245,1.1342468,9.754578,0.24871826,6.5612793E-4,0.5907593,1.5669914,0.36633265,0.9540653
1570715363,0.46388245,1.1342468,9.754578,0.24871826,6.5612793E-4,0.5907593,1.5669914,0.36633265,0.9540653
1570715363,0.46388245,1.1342468,9.754578,0.24871826,6.5612793E-4,0.5907593,1.5669914,0.36633265,0.9540653
1570715363,-0.8672943,0.9223633,11.440689,0.23060608,0.4597931,-0.17089844,0.07856476,-0.37637007,2.5841112
1570715363,-0.83618164,1.0372925,11.401794,0.25404358,0.45021057,-0.17089844,0.085617244,-0.16506445,2.5734034
1570715363,0.06404114,2.05542,10.2920685,0.29664612,0.2616577,-0.20924377,1.1720726,0.98363686,0.710104
1570715363,0.06404114,2.05542,10.2920685,0.29664612,0.2616577,-0.20924377,1.1720726,0.98363686,0.710104
1570715363,0.06404114,2.05542,10.2920685,0.29664612,0.2616577,-0.20924377,1.1720726,0.98363686,0.710104
1570715363,0.06404114,2.05542,10.2920685,0.29664612,0.2616577,-0.20924377,1.1720726,0.98363686,0.710104
1570715363,0.06404114,2.05542,10.2920685,0.29664612,0.2616577,-0.20924377,1.1720726,0.98363686,0.710104
1570715363,-0.97862244,1.482605,11.234787,0.0143585205,-0.12930298,0.13482666,0.0057696104,-0.008666754,1.9635715
1570715363,-0.89901733,1.1031342,9.307465,-0.07086182,0.05178833,0.14654541,0.19713032,-0.18616307,0.72781086
1570715363,-0.59555054,1.1031342,9.307465,-0.07086182,0.05178833,0.14654541,0.19713032,-0.18616307,0.72781086
1570715363,-0.47584534,1.3209991,9.283524,-0.076187134,0.0070495605,0.14335632,0.47478712,-0.42506826,0.47604656
1570715363,-0.47584534,1.3209991,9.283524,-0.076187134,0.0070495605,0.14335632,0.47478712,-0.42506826,0.47604656
1570715363,-0.47584534,1.3209991,9.283524,-0.076187134,0.0070495605,0.14335632,0.47478712,-0.42506826,0.47604656
1570715363,-0.42915344,0.5817871,10.117294,-0.23704529,-0.07710266,0.11885071,0.46708488,-0.17733312,1.3561382
1570715363,0.08918762,1.2282257,11.164169,-0.088974,-0.08029175,0.08583069,0.96292704,0.13064396,2.2973318
1570715363,0.08918762,1.2282257,11.164169,-0.088974,-0.08029175,0.08583069,0.96292704,0.13064396,2.2973318
1570715363,-0.5859833,1.2467804,10.032303,0.042053223,0.1668396,-0.0079193115,0.5288896,-0.011220455,1.1175222
1570715363,-0.5859833,1.2467804,10.032303,0.042053223,0.1668396,-0.0079193115,0.5288896,-0.011220455,1.1175222
1570715363,-0.5859833,1.2467804,10.032303,0.042053223,0.1668396,-0.0079193115,0.5288896,-0.011220455,1.1175222
1570715363,-0.5859833,1.2467804,10.032303,0.042053223,0.1668396,-0.0079193115,0.5288896,-0.011220455,1.1175222
1570715363,0.33638,1.2467804,10.275314,0.12940979,-0.31892395,0.13270569,0.9592152,0.036647916,1.2251377
1570715363,0.33638,1.2467804,10.275314,0.12940979,-0.31892395,0.13270569,0.9592152,0.036647916,1.2251377
1570715363,0.31124878,1.1839294,10.367493,-0.05595398,-0.038757324,0.16786194,0.80767727,0.03175211,1.2467165
1570715363,0.31124878,1.1839294,10.367493,-0.05595398,-0.038757324,0.16786194,0.80767727,0.03175211,1.2467165
1570715363,0.31124878,1.1839294,10.367493,-0.05595398,-0.038757324,0.16786194,0.80767727,0.03175211,1.2467165
1570715363,0.31124878,1.1839294,10.367493,-0.05595398,-0.038757324,0.16786194,0.80767727,0.03175211,1.2467165
1570715364,0.46507263,1.2892761,10.628464,-0.10282898,0.28614807,0.09329224,0.9014847,0.16261578,1.4907045
1570715364,0.4507141,1.2485809,10.596146,-0.10282898,0.30213928,0.09222412,0.8870933,0.1687553,1.4536209
1570715364,0.30226135,1.2737122,10.437515,-0.10494995,0.362854,0.08583069,0.8387838,0.16733837,1.2490501
1570715364,0.35913086,1.2635345,10.472244,-0.08258057,0.30213928,0.055999756,0.8862477,0.14825463,1.2047853
1570715364,0.35913086,1.2635345,10.472244,-0.08258057,0.30213928,0.055999756,0.8862477,0.14825463,1.2047853
1570715364,0.35913086,1.2635345,10.472244,-0.08258057,0.30213928,0.055999756,0.8862477,0.14825463,1.2047853
1570715364,0.35913086,1.2635345,10.472244,-0.08258057,0.30213928,0.055999756,0.8862477,0.14825463,1.2047853
1570715364,0.35913086,1.2635345,10.472244,-0.08258057,0.30213928,0.055999756,0.8862477,0.14825463,1.2047853
1570715364,-0.061050415,0.980423,10.488998,-0.08151245,0.09547424,-0.026016235,0.7886735,0.02938509,1.1966991
1570715364,-0.061050415,0.980423,10.488998,-0.08151245,0.09547424,-0.026016235,0.8028374,0.07682705,1.1419945
1570715364,-0.020950317,0.96546936,10.349533,-0.033584595,0.048599243,-0.0345459,0.831504,0.022901833,1.0632668
1570715364,-0.020950317,0.96546936,10.349533,-0.033584595,0.048599243,-0.0345459,0.831504,0.022901833,1.0632668
1570715364,-0.020950317,0.96546936,10.349533,-0.033584595,0.048599243,-0.0345459,0.831504,0.022901833,1.0632668
1570715364,-0.020950317,0.96546936,10.349533,-0.033584595,0.048599243,-0.0345459,0.831504,0.022901833,1.0632668
1570715364,-0.14665222,1.2264252,10.635635,-0.012268066,-0.011062622,-0.07928467,0.742896,0.41106284,1.0817938
1570715364,-0.13168335,0.9924011,10.854111,0.22207642,-0.31785583,-0.082473755,0.66325825,0.2227304,1.5169191
1570715364,-0.1663971,1.0402832,10.499771,0.13685608,-0.24328613,-0.04626465,0.5892231,0.15171087,1.0947094
1570715364,-0.059249878,1.1564026,10.4500885,0.03779602,-0.14846802,-0.0068511963,0.6464327,0.22757673,0.9155464
1570715364,-0.059249878,1.1564026,10.4500885,0.03779602,-0.14846802,-0.0068511963,0.6464327,0.22757673,0.9155464
1570715364,-0.059249878,1.1564026,10.4500885,0.03779602,-0.14846802,-0.0068511963,0.6464327,0.22757673,0.9155464
1570715364,-0.059249878,1.1564026,10.4500885,0.03779602,-0.14846802,-0.0068511963,0.6464327,0.22757673,0.9155464
1570715364,-0.099365234,1.0289154,10.486603,0.11129761,0.24461365,-0.09100342,0.48973864,-0.097355366,1.067791
1570715364,-0.099365234,1.0289154,10.486603,0.11129761,0.24461365,-0.09100342,0.48973864,-0.097355366,1.067791
1570715364,-0.070632935,1.2790985,10.333969,0.050582886,0.17216492,-0.0856781,0.60488665,0.13564384,0.7615404
1570715364,-0.070632935,1.2790985,10.333969,0.050582886,0.17216492,-0.0856781,0.60488665,0.13564384,0.7615404
1570715364,-0.070632935,1.2790985,10.333969,0.050582886,0.17216492,-0.0856781,0.60488665,0.13564384,0.7615404
1570715364,-0.070632935,1.2790985,10.333969,0.050582886,0.17216492,-0.0856781,0.60488665,0.13564384,0.7615404
1570715364,-0.28671265,1.2593536,10.566208,5.0354004E-4,0.21157837,-0.045196533,0.4807247,0.091840506,0.93531513
1570715364,-0.28671265,1.2593536,10.566208,5.0354004E-4,0.21157837,-0.045196533,0.4807247,0.091840506,0.93531513
1570715364,-0.1765747,1.7124481,10.548859,0.2124939,0.121032715,-0.08035278,0.64418083,0.18308163,1.29496
1570715364,-0.1765747,1.7124481,10.548859,0.2124939,0.121032715,-0.08035278,0.64418083,0.18308163,1.29496
1570715364,-0.1765747,1.7124481,10.548859,0.2124939,0.121032715,-0.08035278,0.64418083,0.18308163,1.29496
1570715364,-0.1765747,1.7124481,10.548859,0.2124939,0.121032715,-0.08035278,0.64418083,0.18308163,1.29496
1570715365,-0.037109375,1.4808197,10.55484,0.16242981,-0.47125244,-0.12083435,0.19654328,0.29187024,-0.0122385025
1570715365,-0.037109375,1.4808197,10.55484,0.16242981,-0.47125244,-0.12083435,0.19654328,0.29187024,-0.0122385025
1570715365,0.4339447,1.75914,11.101913,0.09957886,-0.4680481,-0.17622375,0.7986603,0.47633874,1.4011974
1570715365,0.42556763,1.3060303,10.89122,0.17626953,-0.24435425,-0.18473816,0.7991487,0.16696417,1.2428074
1570715365,0.42556763,1.3060303,10.89122,0.17626953,-0.24435425,-0.18473816,0.7991487,0.16696417,1.2428074
1570715365,0.42556763,1.3060303,10.89122,0.17626953,-0.24435425,-0.18473816,0.7991487,0.16696417,1.2428074
1570715365,0.42556763,1.3060303,10.89122,0.17626953,-0.24435425,-0.18473816,0.7991487,0.16696417,1.2428074
1570715365,0.42556763,1.3060303,10.89122,0.17626953,-0.24435425,-0.18473816,0.7991487,0.16696417,1.2428074
1570715365,-0.16879272,1.8800507,10.2447815,0.28599548,0.30426025,-0.061172485,0.49447674,0.25484347,0.8889046
1570715365,-0.28970337,1.7639313,9.978439,0.34140015,0.20306396,-0.10165405,0.3833381,0.2096318,0.53347015
1570715365,-0.043701172,1.8207855,10.259155,0.081466675,-0.12609863,-0.07821655,0.3815657,-0.01168251,0.59630394
1570715365,-0.043701172,1.8207855,10.259155,0.081466675,-0.12609863,-0.07821655,0.3815657,-0.01168251,0.59630394
1570715365,-0.043701172,1.8207855,10.259155,0.081466675,-0.12609863,-0.07821655,0.3815657,-0.01168251,0.59630394
1570715365,-0.043701172,1.8207855,10.259155,0.081466675,-0.12609863,-0.07821655,0.3815657,-0.01168251,0.59630394
1570715365,0.3866577,1.5699921,11.607086,-0.18910217,-0.08135986,0.060272217,0.67613727,-0.055585742,1.80474
1570715365,0.3866577,1.5699921,11.607086,-0.18910217,-0.08135986,0.060272217,0.67613727,-0.055585742,1.80474
1570715365,-0.23762512,1.8674774,10.413574,-0.023986816,-0.20599365,-0.004714966,0.24831149,0.10372424,0.59689426
1570715365,-0.23762512,1.8674774,10.413574,-0.023986816,-0.20599365,-0.004714966,0.24831149,0.10372424,0.59689426
1570715365,-0.23762512,1.8674774,10.413574,-0.023986816,-0.20599365,-0.004714966,0.24831149,0.10372424,0.59689426
1570715365,-0.23762512,1.8674774,10.413574,-0.023986816,-0.20599365,-0.004714966,0.24831149,0.10372424,0.59689426
1570715365,0.2059021,1.5340881,11.041458,-0.07299805,0.13381958,0.012329102,0.27242443,-0.33860695,0.8360672
1570715365,0.2059021,1.5340881,11.041458,-0.07299805,0.13381958,0.012329102,0.27242443,-0.33860695,0.8360672
1570715365,-0.120910645,1.7028809,10.348343,-0.013336182,0.10612488,-0.098464966,0.22668049,0.17942274,0.5049143
1570715365,-0.120910645,1.7028809,10.348343,-0.013336182,0.10612488,-0.098464966,0.22668049,0.17942274,0.5049143
1570715365,-0.11552429,1.6508026,10.480621,0.0143585205,0.057113647,-0.09739685,0.32736164,0.24243069,0.6508856
1570715365,-0.11552429,1.6508026,10.480621,0.0143585205,0.057113647,-0.09739685,0.32736164,0.24243069,0.6508856
1570715365,-0.11552429,1.6508026,10.480621,0.0143585205,0.057113647,-0.09739685,0.32736164,0.24243069,0.6508856
1570715365,-0.31663513,1.5448608,10.379456,0.046310425,0.033691406,-0.075027466,0.24571979,0.02569449,0.6649895
1570715365,-0.31663513,1.5448608,10.379456,0.046310425,0.033691406,-0.075027466,0.24571979,0.02569449,0.6649895
1570715365,-0.31304932,1.5885468,10.342957,-0.021865845,0.06350708,-0.031341553,0.2500518,0.081585765,0.5337763
1570715365,-0.31604004,1.6394348,10.381851,-0.026123047,0.062454224,-0.028152466,0.2500518,0.081585765,0.5337763
1570715365,-0.30166626,1.6107025,10.469849,-0.029312134,0.0688324,-0.022827148,0.2189734,0.075427294,0.5827284
1570715365,-0.30166626,1.6107025,10.469849,-0.029312134,0.0688324,-0.022827148,0.2189734,0.075427294,0.5827284
