time,ax,ay,az,gx,gy,gz,la_x,la_y,la_z,fox,foy,foz
1570715328,-2.4947581,5.9759274,7.345411,0.6785942,-0.10120321,-0.17683929,1.1731589,-0.60333884,1.067814
1570715328,-3.2369606,6.1100025,8.063671,0.96835494,-0.2791078,0.04793836,0.40222588,-0.62728083,1.9393034
1570715328,-4.429273,5.913678,8.585608,0.9577019,-0.39948636,0.011718267,-0.7230489,-1.0390835,2.5330653
1570715328,-3.7253778,6.4260373,7.795521,0.4932325,-0.4825795,-0.18855755,-0.4165911,-0.6751649,2.15957
1570715328,-3.3901896,6.8809357,7.455544,0.19388404,-0.26525894,-0.1736434,0.08140286,-0.20590134,1.6328455
1570715328,-3.0789435,7.369353,7.359776,0.18855755,-0.33130735,-0.040481284,0.36870706,0.272939,1.532289
1570715328,-2.825158,7.129933,5.78918,0.13635801,-0.060721926,0.08309316,0.56982,0.009576807,-0.038307227
1570715328,-3.442862,7.6614456,7.1730285,0.07457078,0.23969181,0.12570503,0.10055647,0.48362875,1.0582372
1570715328,-4.271256,7.369353,6.933608,-0.12890093,-0.53371376,0.18855755,-0.8810662,0.23463176,1.0773908
1570715328,-3.892972,9.840169,4.5537715,-0.05646074,-0.47512242,-0.06178722,-0.6895301,2.72939,-1.388637
1570715328,-6.2584434,6.5696893,5.3582234,0.68605125,-0.94704896,0.023436533,-3.1603463,-0.61291564,-0.5554548
1570715328,-2.9783869,8.183381,5.3199162,-0.070309594,-0.8351928,0.175774,-0.095768064,0.92895025,-0.61770403
1570715328,-2.5570073,8.451532,5.3678,-0.23010413,0.56247675,0.070309594,0.31124622,1.2497733,-0.641646
1570715328,-3.8833952,7.785944,7.5225816,0.009587673,0.14168449,0.3483521,-0.9672575,0.56982,1.5466543
1570715328,-3.7541082,6.540959,5.7508726,0.059656627,-0.6327864,0.21412468,-0.9768343,-0.6991069,-0.24899697
1570715328,-3.1603463,6.2345014,4.663905,0.022371236,-0.09055024,0.091615535,-0.47405192,-1.0199299,-1.3599066
1570715328,-3.5194764,6.6079965,5.889736,0.08735435,0.42611876,0.05646074,-0.6799533,-0.7469909,-0.39743748
1570715328,-3.4763808,6.6989765,6.3302693,0.22797355,0.31319728,0.07776668,-0.80924016,-0.5410896,0.46926352
1570715328,-3.0550013,7.029376,6.631939,0.28976077,0.6967042,0.058591332,-0.16759412,-0.4309563,0.4261679
1570715328,-3.9456444,6.4882865,7.038953,0.05539544,0.4506206,0.08735435,-0.7230489,-0.51235914,1.532289
1570715328,-3.7205894,6.0142345,5.315128,0.046873067,0.4527512,-0.08628905,-0.8523358,-1.4700398,-0.30166942
1570715328,-3.241749,6.7612257,5.4779334,0.29615256,0.73185897,-0.122509144,-0.17238252,-0.8331822,-0.009576807
1570715328,-4.6399627,7.297527,5.425261,0.6370476,0.6988348,0.019175345,-1.0630256,-0.22026655,0.02873042
1570715329,-4.4484267,8.039729,4.1180267,0.98859555,0.35793978,-0.17044751,-1.3455414,0.5410896,-0.7613561
1570715329,-2.5474305,8.063671,1.484405,1.2506586,0.6977695,-0.12890093,1.0295067,0.25378537,-3.4955344
1570715329,-3.5098996,6.7324953,2.1499932,1.4988728,1.0354686,0.117182665,0.4165911,-1.2641385,-2.3702598
1570715329,-4.534618,6.4787097,4.8698063,1.3699719,1.2858135,0.08628905,-0.5554548,0.79966336,1.6232687
1570715329,-6.019023,7.8529816,7.503428,0.64876586,1.356123,-0.18429637,-2.030283,-0.82360536,3.3279405
1570715329,-5.1571107,7.5321584,5.4683566,0.6839206,-0.61787224,-0.19921052,-1.4556746,-0.272939,2.9113493
1570715329,-3.1268275,7.6710224,-0.20590134,1.2719646,-1.162239,0.060721926,0.47405192,-1.283292,-3.4141316
1570715329,-2.72939,10.524911,2.681506,1.5148523,-0.4452941,0.1736434,1.1971009,2.858677,-0.45968673
1570715329,-3.098097,9.682152,4.156334,1.2133732,0.3100014,0.3142626,0.7038953,0.8810662,1.283292
1570715329,-2.6240451,8.202535,2.2505496,1.1611737,0.23436533,0.3483521,1.0726024,-0.56982,-0.095768064
1570715329,-2.5713725,7.297527,0.56982,1.0834069,0.1054644,0.50388545,1.0534488,-1.5562311,-1.5658079
1570715329,-2.906561,9.476251,1.7477672,0.23223473,0.8042992,0.28976077,0.521936,0.31124622,-0.8714894
1570715329,-3.53863,12.3876,2.753332,0.035154797,0.47831833,0.4452941,-0.095768064,3.3662477,1.0295067
1570715329,-3.7780502,11.736377,3.8163576,0.9417225,-1.5350928,0.29295665,-0.94331545,2.2361844,4.2904096
1570715329,-2.7629087,11.262324,1.0726024,0.47725302,0.058591332,0.09374613,0.12449849,4.098873,-3.3327289
1570715329,-3.9791632,8.872911,1.7669208,-0.2119941,-0.22477765,-0.0031958907,-0.4357447,-0.110133275,0.6655881
1570715329,-3.371036,9.078813,1.5945383,-0.2769772,-0.39522517,0.07776668,-0.20590134,-0.05267244,-0.07182605
1570715329,-2.7102363,8.628703,1.7525556,-0.094811425,-0.015979454,0.06178722,0.4213795,-0.49320555,-0.009576807
1570715329,-2.9352913,9.208099,1.6759412,-0.12677033,-0.0063917814,0.04900366,0.18674773,0.08619126,-0.12928689
1570715329,-2.9496565,9.203311,2.0398598,-0.011718267,-0.07457078,0.10759499,0.15322891,0.08619126,0.18674773
1570715329,-2.1883004,8.863335,1.541866,0.07350549,-0.01065297,0.060721926,0.89064306,-0.25857377,-0.31124622
1570715329,-2.4851813,8.7292595,1.661576,-0.07989727,0.028763017,-0.059656627,0.60333884,-0.38307226,-0.21068975
1570715329,-2.0685902,7.043741,2.2026656,0.17044751,-0.25460598,-0.44422883,1.0773908,-2.0494366,0.31603462
1570715329,-3.6870706,9.476251,1.0247183,0.624264,0.070309594,-0.51240784,-0.38307226,0.40701428,-0.7182605
1570715329,-3.4763808,9.083601,1.4508862,0.5230608,0.22158176,0.15766394,-0.1340753,0.0,-0.11492168
1570715329,-3.0119057,8.580819,1.0295067,0.3504827,0.19175345,0.16299044,0.2825158,-0.5410896,-0.40222588
1570715329,-3.0262709,8.585608,1.6376339,-0.15446806,-0.05113425,0.2801731,0.21068975,-0.5602432,0.21547815
1570715329,-2.6288335,8.480263,1.7717092,-0.36859274,-0.28549957,0.10866029,0.5363012,-0.6703765,0.22505496
1570715329,-2.8778305,9.121908,1.8579005,-0.31319728,-0.24501829,-0.10120321,0.2825158,-0.0047884034,0.18195933
1570715329,-3.2321723,9.610326,1.6424223,-0.08415846,-0.2109288,0.014914157,-0.062249243,0.49320555,-0.11492168
1570715329,-3.4572272,10.1226845,1.6280571,0.12144385,0.018110048,0.2066676,-0.32561144,0.9959879,-0.12928689
1570715329,-2.944868,9.141062,1.8339585,0.17790459,-0.0010652969,0.4474247,0.08619126,0.17717093,0.038307227
1570715329,-2.4660277,8.48984,1.436521,-0.05219955,-0.067113705,0.4559471,0.44532153,-0.79008657,-0.12449849
1570715330,-2.5953147,9.02614,1.8243817,-0.21945117,-0.029828314,0.41013932,0.31603462,-0.25378537,-0.02873042
1570715330,-2.791639,10.141838,1.8100165,-0.15659864,-0.122509144,0.27058542,0.02873042,0.8858546,-0.01436521
1570715330,-2.5330653,9.500193,1.6567876,-0.08202787,-0.12783563,0.26952013,0.0,0.49320555,-0.17717093
1570715330,-2.0207062,8.973468,1.7621324,-0.046873067,-0.067113705,0.17896989,0.49799395,-0.320823,-0.15322891
1570715330,-1.9871874,8.983045,1.9297266,-0.10972559,-0.12890093,0.12357444,0.59855044,-0.2825158,-0.090979666
1570715330,-2.0925324,8.935161,1.9201498,-0.18642697,-0.18749227,0.10866029,0.46447513,-0.33997664,0.009576807
1570715330,-2.231396,9.064447,2.0159178,-0.22584295,-0.30893612,0.044742472,0.20590134,-0.20111294,-0.009576807
1570715330,-2.2840683,9.14585,2.0398598,-0.25886714,-0.312132,0.04793836,0.1436521,-0.12928689,-0.22026655
1570715330,-2.111686,8.532935,2.5234885,-0.4239882,-0.47725302,0.03089361,0.23463176,-0.48841715,0.2777274
1570715330,-2.0015526,8.432379,2.2601264,-0.56247675,-0.5219955,-0.045807768,0.39743748,-0.80924016,-0.06703765
1570715330,-2.030283,9.356541,2.1499932,-0.41866168,-0.42611876,-0.05539544,0.33518824,-0.0047884034,-0.2873042
1570715330,-2.6623523,11.295844,1.1109096,0.09587672,0.18536167,0.26738954,-0.22984336,2.3415294,-1.7764976
1570715330,-2.3894134,9.581595,2.7246015,0.39096397,0.38883337,0.28123838,-0.2633622,-0.22026655,-0.12928689
1570715330,-2.054225,9.92636,1.8339585,0.23543063,0.40694344,0.21412468,0.19632454,-0.2681506,-1.1779473
1570715330,-1.9297266,9.595961,1.6041151,0.11079088,0.41440052,0.21732058,0.32561144,0.5793968,-0.4405331
1570715330,-2.3319526,9.605537,1.5801731,0.10972559,0.26738954,0.30893612,0.33039984,0.47884035,-0.48362875
1570715330,-0.023942016,9.006987,1.3455414,-0.04261188,0.23223473,0.32811147,2.0590134,-0.9959879,0.1340753
1570715330,-2.657564,10.7356,1.8387469,0.15979454,0.29934844,0.32278496,-0.6368576,1.3982137,-0.39264908
1570715330,-2.5953147,10.433931,1.412579,0.19921052,0.03835069,0.39415985,-1.043872,1.091756,-0.50278234
1570715330,-1.5897499,9.093178,-0.4165911,0.04261188,0.08309316,0.31319728,0.24420857,-0.30166942,-2.528277
1570715330,-2.6384103,11.042058,1.1540052,0.058591332,0.3813763,0.31958908,-0.8619126,1.6232687,-0.91937345
1570715330,-2.5761611,10.716447,0.91937345,0.054330144,0.23543063,0.39415985,-0.8810662,1.2737153,-1.115698
1570715330,-2.1739352,10.960655,1.292869,-0.07776668,0.22477765,0.4559471,-0.5793968,1.4939818,-0.7278373
1570715330,-2.456451,11.075577,1.9009962,-0.38670278,0.026632423,0.43251055,-0.9816227,1.6041151,-0.18195933
1570715330,-1.6280571,8.451532,1.7046716,-0.5997622,-0.04793836,0.046873067,-0.22026655,-0.9911995,-0.5363012
1570715330,-0.33997664,6.4164605,2.3702598,-0.020240642,0.3824416,0.6370476,0.9864111,-3.016694,0.047884032
1570715330,-1.115698,10.007763,2.5761611,-0.12570503,0.43251055,0.48044893,0.090979666,0.5506664,0.2633622
1570715330,-0.47405192,9.308656,2.0829554,-0.07137489,0.506016,0.506016,0.62728083,-0.14844051,-0.24420857
1570715330,-0.8858546,9.016563,3.0214825,-0.091615535,0.5933704,0.5539544,0.10534488,-0.45489833,0.6847417
1570715330,-0.770933,9.380483,3.016694,-0.122509144,0.49855897,0.46553475,0.110133275,-0.095768064,0.6607997
1570715330,-0.44532153,9.26556,2.4133554,-0.14701098,0.5891092,0.4154658,0.34955344,-0.21068975,0.033518825
1570715330,-0.45489833,9.016563,3.016694,-0.14914156,0.64343935,0.47192654,0.4261679,-0.33039984,0.47405192
1570715330,-0.9720459,9.222465,3.2609026,-0.068179004,0.60189277,0.5156037,-0.17717093,-0.2825158,0.81402856
1570715330,-0.5554548,9.56723,3.2704794,-0.03835069,0.62639457,0.49429777,-0.02873042,0.19632454,1.043872
1570715331,-0.23463176,9.284714,3.5242648,-0.068179004,0.7084225,0.54117084,0.4405331,-0.20590134,1.091756
1570715331,-0.08619126,9.346964,3.7062242,-0.028763017,0.6647453,0.59656626,0.272939,-0.45010993,1.163582
1570715331,-0.04309563,9.040505,3.8881836,0.07989727,0.7467731,0.61361104,0.12928689,-0.45968673,1.4748282
1570715331,0.6464345,9.552865,4.0078936,0.059656627,0.74996907,0.5539544,0.49799395,0.08619126,1.2210429
1570715331,1.6136919,9.126697,3.4380736,0.08415846,0.62639457,0.54117084,1.2401965,-0.58418524,1.3024458
1570715331,1.2593501,7.953538,4.453215,0.08628905,0.4857754,0.4836448,1.5658079,-1.0390835,2.0398598
1570715331,0.8331822,8.710106,3.3806129,0.053264845,0.05646074,0.26525894,0.82360536,-0.9528923,1.9919758
1570715331,1.2210429,9.399636,3.4763808,0.0074570784,-0.11824796,0.28549957,0.641646,-0.4165911,0.641646
1570715331,0.8379706,9.3661175,3.4524388,-0.03089361,-0.19921052,0.26419365,0.32561144,-0.033518825,0.1436521
1570715331,0.8858546,9.356541,2.8060043,0.14807628,-0.19281875,0.2066676,0.24420857,-0.29688102,0.16759412
1570715331,0.82360536,9.394848,2.6001031,0.16085984,-0.22797355,0.14594568,0.24420857,-0.12449849,0.46926352
1570715331,0.7517793,9.916783,3.323152,0.2066676,-0.36113566,0.14274979,0.272939,0.6799533,0.5315128
1570715331,1.2210429,9.375694,2.743755,0.2759119,-0.3142626,0.25034478,0.49320555,0.49320555,0.48841715
1570715331,0.94331545,9.619903,2.9592333,0.29508725,-0.30360964,0.23330003,0.04309563,-0.41180268,0.6607997
1570715331,0.94810385,8.700529,2.5139117,0.39629045,-0.23969181,0.24927948,0.29688102,-0.30645782,-0.4165911
1570715331,0.866701,8.178593,2.9783869,0.29828313,-0.30467492,0.21732058,0.019153614,-1.2593501,0.45010993
1570715331,0.038307227,8.916007,3.371036,0.2428877,-0.24714889,0.120378554,-0.6847417,-0.34955344,1.4173675
1570715331,0.37828386,9.179369,2.3558946,0.17896989,-0.31745848,0.15233746,-0.7230489,-0.320823,-1.0295067
1570715331,0.82360536,9.078813,2.7820623,0.25567126,-0.23436533,0.22264706,-0.21547815,-0.63206923,1.292869
1570715331,0.6607997,8.528147,3.0597897,0.32598087,-0.16299044,0.14594568,-0.4165911,-1.1875241,1.541866
1570715331,1.3742718,8.925584,4.596867,0.27271602,-0.312132,0.14061919,-0.22505496,-0.7422025,1.3790601
1570715331,0.6655881,9.504981,2.8299465,0.22690825,-0.4495553,0.24501829,-0.5267244,-0.10055647,0.076614454
1570715331,0.7517793,9.595961,4.6591167,0.42611876,-0.41653112,0.32171968,-0.49320555,-0.023942016,3.2465374
1570715331,0.61770403,9.677363,4.060566,0.7009654,-0.17896989,0.3398297,-0.7326257,0.038307227,2.8299465
1570715331,1.2018893,8.441956,4.8458643,0.8309316,-0.13103153,0.30680552,0.019153614,-0.91458505,5.2385135
1570715331,1.8579005,8.532935,8.111555,0.8234745,-0.09055024,0.36433154,0.29688102,-1.115698,7.321469
1570715331,1.2018893,9.217676,5.6407394,0.6572882,-0.4112046,0.43464115,-0.47884035,-0.4213795,5.0517654
1570715331,-0.1340753,9.198523,6.540959,0.85543346,0.18962285,0.26738954,-1.9201498,-0.4357447,6.1626754
1570715331,-0.48362875,8.51857,7.398083,0.5816521,0.23116943,-0.07244019,-2.2936451,-1.115698,7.1969705
1570715331,-0.48841715,8.298303,6.5601125,0.11505207,0.21518998,-0.23969181,-2.2218192,-1.3503298,6.349423
1570715331,-0.9816227,5.2720323,4.721366,-0.36539686,0.82134396,-0.4154658,-2.6048915,-4.390966,4.4340615
1570715331,-2.7246015,3.8019924,2.8299465,-1.2453321,2.0038235,-0.91722065,-4.1419687,-5.8801594,2.2170308
1570715331,-2.2601264,6.703765,4.5394063,-1.678908,2.8241022,-2.2030342,-3.1316159,-2.992752,3.3806129
1570715332,-0.8810662,16.730682,5.626374,-1.7492175,2.2552335,-2.3031719,-0.92895025,7.067683,3.9360676
1570715332,1.1348516,21.581335,6.435614,-1.6426879,1.7087363,-1.2421362,1.1109096,11.540052,3.715801
1570715332,-2.1499932,8.054094,8.848969,-2.1114185,2.5950634,-0.8064298,-1.283292,-1.3599066,6.2392898
1570715332,-4.232949,11.386824,3.394978,-2.6770911,3.2235885,-1.8205925,-1.8243817,1.316811,-0.22505496
1570715332,-9.404425,14.753071,10.022128,-1.5084604,2.3404574,-1.8802491,-7.225701,5.410896,5.779603
1570715332,-5.3247046,16.582241,6.7085533,-1.5510724,1.1654348,-1.5361582,-3.217807,8.236053,3.5529952
1570715332,1.1444284,12.11466,5.592855,-0.9577019,1.6309696,-0.6317211,4.525041,3.8355112,1.5658079
1570715332,4.6255975,9.423578,4.0414124,-0.009587673,0.7638179,0.1043991,7.345411,2.030283,1.1013328
1570715332,2.0111294,4.3239284,3.3662477,-0.023436533,-0.08415846,1.0642316,5.765238,-3.5051112,-0.5506664
1570715332,3.2034419,-1.4796166,1.3599066,0.6029581,-0.50814664,1.7886336,6.655881,-8.020576,-2.5713725
1570715332,-0.51714754,-4.879383,4.7740383,1.2314832,-0.7936462,1.2027203,3.2082303,-14.33648,1.9871874
1570715332,-5.023035,2.815581,-0.6943185,0.24714889,-1.316707,0.12570503,-2.657564,-7.1107793,-2.657564
1570715332,-0.12449849,12.50731,-2.896984,0.37391922,-1.3230988,0.13529271,1.292869,1.2306197,-7.120356
1570715332,4.1036615,19.967642,4.1180267,-0.09587672,-1.1238883,-0.33024204,4.8123455,15.217546,2.2840683
1570715332,3.6535518,10.309433,-0.8283938,0.936396,-1.668255,0.77447087,5.133168,0.1340753,-5.6886234
1570715332,6.0142345,15.32768,5.5880666,1.4381509,-2.6355445,0.7254672,7.2448545,5.913678,1.9776106
1570715332,-2.006341,17.506403,6.5026517,2.087982,-2.4587054,0.50814664,-0.7469909,7.249643,1.3934253
1570715332,-3.2752678,15.643714,12.612655,1.8163313,-1.8664002,1.1973938,-3.4476504,6.3589997,6.6846113
1570715332,-5.449203,14.705187,7.4986396,2.777229,-2.134855,1.9175345,-4.687847,5.3486466,6.0381765
1570715332,-5.4444146,8.389283,5.056554,2.3905263,-0.7563608,0.8564987,-7.07726,-0.34955344,1.1683705
1570715332,-3.787627,3.4380736,6.703765,1.8930327,-1.0748847,0.839454,-4.5394063,-4.927267,8.087613
1570715332,-4.9320555,0.79008657,5.0996494,0.93000424,-0.8479764,0.9949873,-6.3446345,-8.456321,4.5154643
1570715332,-8.288726,-2.8203697,5.3007627,-0.17683929,0.36007038,0.77766675,-9.251195,-11.836933,1.292869
1570715332,-6.3446345,-5.4204726,3.5673606,-0.78618914,0.3057402,0.57952154,-8.00621,-15.08347,3.5673606
1570715332,2.528277,-5.765238,1.6998832,-1.4179102,1.0184239,-0.7670138,0.21547815,-16.175226,0.8714894
1570715332,3.0071173,5.7843914,-0.11971009,-2.6802871,1.7854377,-1.9654728,0.6464345,-6.7851677,-1.2066777
1570715332,5.3007627,18.756176,8.532935,-4.130156,3.6465113,-2.0325866,4.6782703,9.179369,6.5026517
1570715332,2.078167,26.671408,0.9672575,-1.3539925,1.7204546,-4.0417366,3.9743748,17.132908,1.484405
1570715332,-4.4484267,27.571627,-5.6886234,-2.7857516,4.2963424,-2.6888094,-2.7581203,18.516756,-9.054871
1570715332,-18.061857,9.677363,10.505757,-2.6611118,2.6845484,-2.2520378,-15.428236,1.0295067,6.694188
1570715332,-7.656657,22.922087,10.635044,-0.98539966,1.7193892,-2.0815902,-4.1706996,14.676456,6.622362
1570715332,6.5361705,17.81286,-1.1061212,-1.4040613,1.2389404,-1.6501449,10.5919485,9.921572,-5.2863975
1570715332,6.933608,7.441179,0.45968673,-0.45914298,1.4019308,-0.5017549,11.468226,-0.15801731,-3.7541082
1570715333,10.5919485,1.5610195,3.7588966,0.46553475,0.26845482,1.1878061,13.057976,-5.401319,-0.29209262
1570715333,9.179369,-6.5026517,2.7820623,1.5191134,-1.1174965,2.3649592,11.645397,-14.628572,-1.1587936
1570715333,-3.1364043,-7.1969705,0.7374141,1.7779806,-2.9466114,0.9150901,0.038307227,-15.720328,-2.920926
1570715333,-6.579266,1.2306197,-1.7477672,0.35793978,-2.3031719,0.04900366,-3.5673606,-8.887277,-5.5401826
1570715333,-9.423578,10.371682,1.508347,-0.057526033,-1.9580158,-0.653027,-6.7085533,1.7860745,-2.3798366
1570715333,-1.7717092,26.834213,-6.531382,0.3898987,-3.2331762,-0.33876443,-0.05746084,13.627796,-11.180922
1570715333,6.4978633,8.259995,6.339846,-0.487906,1.0770152,0.5198649,9.093178,-0.21068975,2.135628
1570715333,2.873042,11.8896055,13.182474,1.036534,-1.668255,0.9747467,4.8985367,1.8866309,7.762002
1570715333,1.4891934,25.546133,0.19153613,1.9111427,-2.1934464,-0.067113705,3.3375173,16.716316,-3.6535518
1570715333,-9.552865,21.298819,9.605537,3.2512863,-2.5599086,1.1601083,-6.253655,13.326127,9.337387
1570715333,-4.879383,11.9853735,9.643845,2.5013173,-2.1487038,2.0283253,-5.3199162,4.2760444,8.959103
1570715333,-2.9640217,5.7748146,8.892065,3.260874,-1.854682,1.1760879,-1.7812861,-1.9536686,7.833828
1570715333,-7.4028716,1.8722657,7.4124484,2.5311456,-1.4051267,0.5603462,-6.646304,-7.062895,7.666234
1570715333,-7.07726,-3.9983168,1.8914193,0.89165354,-0.86289054,0.3185238,-7.0341644,-12.564771,1.0869676
1570715333,-8.8777,-6.301539,2.207454,-1.0429257,0.9790079,0.556085,-10.093954,-15.519216,0.2825158
1570715333,-5.0134583,-7.345411,1.2449849,-1.8312454,2.198773,-0.088419646,-6.0621185,-17.314867,-0.1388637
1570715333,0.62249243,-1.4030021,4.050989,-2.540733,2.5748227,-1.1196271,-0.49320555,-12.488156,1.8291701
1570715333,5.2768207,8.839393,5.2720323,-2.4192894,2.8763018,-2.2126217,4.912902,-2.8107927,2.4133554
1570715333,1.364695,23.918076,18.440142,-3.218262,3.3120081,-3.1436913,3.8738184,11.669339,10.539276
1570715333,-1.9871874,33.14533,-3.2465374,-2.0677414,1.277291,-3.4100156,1.115698,23.4536,0.02873042
1570715333,-14.671668,5.4922986,3.514688,-3.5879202,2.5929327,-1.6192514,-9.428367,-6.5505357,2.4037786
1570715333,-17.597382,23.860615,13.048399,-1.8940979,1.2165691,-1.4615874,-15.346833,15.978902,8.494628
1570715333,-4.793192,17.621325,1.1923125,-1.062101,1.3390783,-1.09406,-1.9201498,10.55843,-1.661576
1570715333,4.367024,9.294291,2.111686,-0.46766534,1.2943357,-1.0397298,8.714894,3.9983168,-2.6767175
1570715333,7.7667904,2.6623523,4.606444,0.95131016,0.43570644,0.9577019,12.263102,-4.0940847,-0.92895025
1570715333,12.813767,-0.7661445,3.7972038,1.5936842,-0.8362581,2.478946,16.778566,-6.7372837,-1.5705963
1570715333,1.3120226,-6.6654577,2.5905263,1.7705235,-1.610729,1.686365,8.221688,-15.131354,0.4261679
1570715333,-10.749966,0.81402856,-0.89543146,0.8096257,-1.9697341,-0.29828313,-5.4204726,-8.6813755,-4.644751
1570715333,-11.587936,8.868123,0.23463176,0.4825795,-2.1497693,-1.0908641,-7.920019,-2.1308396,-2.4133554
1570715333,5.415684,40.179493,-0.9864111,-0.39948636,-1.1281495,0.04900366,4.175488,31.804575,-8.001422
1570715333,-0.7422025,5.995081,5.4444146,1.1558472,-1.0013791,0.84158456,5.5737014,-3.6583402,-0.062249243
1570715333,-3.2752678,23.051374,6.71813,2.8272982,-2.640871,0.839454,-0.33518824,14.528016,2.8538885
1570715333,-4.084508,17.78892,3.8498764,3.168193,-2.2541683,1.4179102,-1.7190368,8.839393,0.60812724
1570715333,-9.514558,17.57344,17.104177,4.0161695,-2.0443048,1.5382888,-7.666234,8.231265,14.757859
1570715334,-10.783484,12.464214,10.79785,3.40895,-1.6331002,1.9281875,-10.146626,5.0661306,8.66701
1570715334,-4.8219223,2.4516625,7.1347213,3.3152041,-0.7350549,0.73185897,-4.0078936,-7.3071036,6.679823
1570715334,-3.169923,-0.45489833,7.9966335,2.0645454,-0.3440909,0.82880104,-2.777274,-9.528923,5.8466406
1570715334,-10.836157,-8.978256,3.2513258,-1.0493175,0.8714129,0.89698005,-10.520123,-18.770542,3.5577838
1570715334,-9.485827,-5.7365074,5.023035,-1.9644076,1.2645074,0.47192654,-10.477027,-16.112978,4.7884035
1570715334,2.0446482,-6.7324953,1.3838485,-2.2254052,2.2829313,-0.24608359,2.992752,-16.505627,0.61770403
1570715334,2.135628,-2.15957,1.9440918,-3.1713889,2.4746847,-1.3944737,3.0214825,-13.28782,1.9249382
1570715334,2.6048915,16.682798,14.772224,-4.634042,2.630218,-2.5109048,3.9695864,7.3310456,12.148179
1570715334,-0.51235914,36.564247,17.118542,-2.335131,1.1089741,-5.600266,2.4277205,25.22531,22.208614
1570715334,-12.871228,16.481684,3.5482068,-4.1163073,3.7434535,-1.4157796,-8.791509,8.432379,-0.30166942
1570715334,-23.089682,14.068329,5.329493,-3.2523515,1.406192,-2.7058542,-19.49359,2.9975405,-0.49799395
1570715334,-6.9767036,16.85518,6.9623384,-1.237875,0.98007315,-1.3571883,-1.6472107,10.084377,2.2697031
1570715334,4.2425256,14.221559,3.691859,-1.0706234,0.34089503,-1.4189755,7.785944,9.016563,0.7565677
1570715334,6.919243,3.9121256,-3.8259344,0.40161693,0.8618252,0.15553336,11.990162,-1.6472107,-10.213664
1570715334,10.955867,-0.08140286,3.5290532,2.29678,0.17151281,2.080525,16.04594,-5.6215854,-2.2505496
1570715334,4.8745947,-7.4124484,5.659893,1.9420363,-1.3902125,1.9420363,12.5982895,-14.954184,3.8594532
1570715334,-6.50744,0.7422025,-5.023035,0.99285674,-2.7143767,0.31319728,0.5602432,-7.85777,-7.8146744
1570715334,-14.245501,9.89763,1.9201498,-0.16299044,-0.986465,-1.9718646,-9.260772,1.0773908,-1.2785037
1570715334,-0.1340753,16.189592,-18.449718,1.5350928,-2.4097016,0.29828313,2.8203697,5.142745,-13.239936
1570715334,8.226477,21.916523,6.2009826,-0.053264845,0.8011033,0.03835069,-0.58418524,25.713726,3.3327289
1570715334,-1.6903064,7.6375036,6.5984197,2.059219,-1.1132354,0.015979454,4.6926355,-4.381389,1.5466543
1570715334,-6.4260373,22.634783,8.078036,3.254482,-4.4369617,1.1132354,0.2777274,16.266207,8.748413
1570715334,-13.493721,14.039598,11.453861,4.80875,-2.992419,1.6938221,-7.2448545,4.5633483,8.743625
1570715334,-13.953407,11.654974,10.251971,3.2161314,-1.0599705,2.4416606,-14.044387,6.301539,13.206416
1570715334,-3.1364043,6.081272,14.001291,3.522937,-1.2293527,1.4274979,-1.9776106,-2.753332,10.654198
1570715334,-2.6431987,-0.60333884,3.0214825,2.759119,-0.81069094,0.61041516,-1.043872,-7.359776,5.6790466
1570715334,-13.608643,-10.539276,2.0638018,-0.8991106,0.46020827,0.064983115,-10.745177,-20.173544,2.8874073
1570715334,-8.566454,-11.559206,4.3047748,-3.0978835,2.1369855,0.5230608,-8.820239,-21.5957,2.6671407
1570715334,0.6512229,-4.4436383,5.315128,-3.4824557,2.2445807,-0.43144527,1.1683705,-16.098612,6.05733
1570715334,3.9791632,6.4547677,7.8769236,-3.8105671,3.576202,-1.660798,5.57849,-5.1906295,4.6016555
1570715334,-0.7661445,19.531897,16.352398,-4.162115,3.0520756,-3.1596708,3.107674,9.476251,12.952631
1570715334,-4.285621,41.999084,2.8491,-3.0861652,2.422485,-5.259371,-1.2880806,28.70169,0.37828386
1570715334,-17.707516,7.2687964,2.4420857,-4.912084,1.1494554,-2.2403195,-12.555194,0.023942016,-1.6998832
1570715335,-19.938911,14.116213,11.597513,-2.787882,0.88313115,-2.5130355,-14.12579,7.809886,6.83784
1570715335,-5.8945246,18.181568,7.225701,-1.1569124,1.1835449,-1.6192514,0.35913026,12.454638,2.2936451
1570715335,8.106767,11.87524,-2.1547816,-0.9385266,0.8085604,-0.9832691,14.738706,6.5936313,-7.07726
1570715335,15.404294,4.122815,2.72939,2.2403195,0.30254433,1.8802491,21.131224,-1.0486604,-2.2744915
1570715335,8.030152,-3.5051112,8.829816,2.3851998,-0.82134396,2.9711132,14.240712,-9.811439,4.6160207
1570715335,-6.4739213,-4.0557775,-4.793192,2.371351,-1.9154038,1.5063299,-0.90021986,-11.051635,-8.805874
1570715335,-13.982138,1.6424223,-1.5610195,0.71907544,-1.0035098,-0.15553336,-8.1642275,-7.16824,-6.766014
1570715335,-8.001422,35.166035,2.7820623,0.6935083,-3.6678174,-0.87886995,-2.6671407,28.031313,-1.3263878
1570715335,11.640609,8.341399,0.6368576,0.7254672,0.36113566,0.5550197,16.941372,1.2785037,-3.6248214
1570715335,7.445967,6.5744777,1.7764976,2.6738954,-2.0400436,2.2126217,16.912642,-3.715801,-0.39264908
1570715335,-7.599196,23.678656,14.628572,4.1898127,-3.1010795,0.64663523,-3.4141316,15.490485,11.21444
1570715335,-16.673222,14.867992,16.04594,5.3296804,-1.5617253,1.5478765,-12.933477,7.216124,13.192051
1570715335,-13.048399,6.8091097,9.677363,4.2633185,-1.6597326,2.0208683,-11.468226,-1.9488802,9.935937
1570715335,-7.062895,3.7445314,7.795521,3.8212202,-0.8064298,0.4175964,-4.4963107,-4.793192,10.01734
1570715335,-1.7812861,1.9393034,2.7150247,2.589737,-0.9395919,0.67539823,0.36391866,-5.851429,4.10845
1570715335,-8.671799,-10.199299,6.6367273,-1.0003139,-0.24927948,1.4274979,-5.3582234,-20.824766,8.992621
1570715335,-3.8594532,-12.512098,0.80445176,-1.4786321,0.7542302,1.1846102,-3.1651347,-22.567745,-0.320823
1570715335,-0.7134721,-8.255207,0.6607997,-3.5527654,3.0360963,-0.29828313,0.6368576,-19.196709,-1.4413095
1570715335,-1.2258313,5.00867,2.9640217,-4.100328,2.9817662,-1.1068435,1.3694834,-7.3645644,1.2258313
1570715335,1.4221559,22.61563,25.531767,-5.624768,3.0616634,-0.9001759,5.5401826,12.0332575,20.341137
1570715335,-3.3806129,33.65769,6.83784,-3.293898,3.6443808,-5.2284775,1.2785037,20.432117,8.145074
1570715335,-11.832145,18.899828,17.81286,-5.162429,3.5399816,-2.8027961,-3.6535518,27.284323,7.417237
1570715335,-23.898922,11.180922,4.8745947,-3.727474,-0.04900366,-2.607847,-19.996372,3.821146,-1.7477672
1570715335,-3.466804,18.760965,7.374141,-1.8770531,0.8426499,-1.2890093,0.18674773,11.990162,2.8203697
1570715335,7.3885064,10.376471,-8.571242,-0.81069094,0.3419603,-0.6668759,11.33894,7.1155677,-11.932701
1570715335,18.971655,5.693412,3.3327289,2.7761638,1.3934084,1.7172587,24.914062,1.067814,-3.940856
1570715335,2.801216,-7.575254,5.023035,2.9807007,-0.5891092,2.6430018,12.363658,-13.28782,3.083732
1570715335,-10.180145,-3.821146,-5.6215854,1.7161933,-2.9551337,0.67752886,-2.8060043,-11.329363,-7.6375036
1570715335,-10.936713,5.7029886,3.6487634,0.5347791,-0.46873066,-1.0770152,-5.961562,-3.821146,-2.360683
1570715335,-19.958065,57.647587,-7.40766,-0.5134731,-3.5080228,-0.9150901,-9.160215,40.830715,-2.456451
1570715335,3.2609026,-3.2130187,0.8331822,1.4381509,-0.16192514,1.416845,8.820239,-5.5162406,-5.4444146
1570715335,-4.012682,20.077776,11.779472,4.275037,-1.8504208,1.7758499,2.3175871,6.6989765,5.482722
1570715335,-12.909535,21.499931,9.744401,5.0537686,-1.6991487,1.9164692,-5.827487,15.571888,5.9280434
1570715336,-17.980455,15.102624,16.46253,4.2633185,-1.1824796,2.540733,-14.365211,6.26802,14.202404
1570715336,-3.9983168,0.59855044,9.169792,4.319779,-0.721206,1.6458838,-3.4524388,-8.839393,9.514558
1570715336,-0.545878,2.5474305,3.2609026,3.7732818,-0.46979594,1.191002,2.9735985,-5.056554,4.132392
1570715336,-11.377247,-19.081787,6.7564373,-1.1217576,-0.026632423,1.0173585,-9.174581,-27.614723,6.143522
1570715336,-7.0485296,-11.286267,3.2752678,-2.4160933,0.39842105,0.41226992,-5.056554,-20.887016,3.1651347
1570715336,2.896984,-5.7029886,5.0613422,-3.4238644,2.024064,-0.4538165,4.9464207,-15.251065,4.223372
1570715336,1.9776106,2.432509,5.511452,-4.0630426,1.7460216,-0.9949873,4.6160207,-8.571242,4.261679
1570715336,0.89064306,7.374141,8.710106,-3.5996385,2.9295666,-2.7026584,3.9217024,-1.5705963,6.0764837
1570715336,-13.508086,37.636852,25.910051,-5.2295427,2.9551337,-4.82473,-9.23683,29.534872,22.390574
1570715336,-16.591818,33.605015,-10.280702,-4.43057,0.50708133,-2.0869167,-11.013328,26.642677,-14.350845
1570715336,-13.196839,1.1587936,3.394978,-3.4664762,1.3934084,-2.3777428,-7.067683,-4.817134,-1.3838485
1570715336,-6.823475,9.548077,18.660408,-0.9736814,2.396918,-1.2996622,-0.16759412,4.084508,13.958196
1570715336,13.996503,18.823214,-9.797073,-1.3262947,-1.1196271,-0.8277357,20.882227,13.757083,-14.599842
1570715336,21.447258,7.0485296,4.237737,2.234993,1.6512103,1.5276358,28.289886,1.7956513,-0.4213795
1570715336,0.14844051,-7.704541,6.0764837,2.4555094,-0.8767394,2.7090502,6.6271505,-13.809755,1.9728222
1570715336,-13.828909,-5.2624555,-5.5497594,1.7502829,-2.3873305,0.18216577,-7.848193,-11.894394,-9.605537
1570715336,-13.9438305,4.367024,0.12449849,0.2791078,-0.46873066,-1.277291,-8.690952,-4.879383,-4.687847
1570715336,-18.631678,64.25079,-6.766014,-0.2087982,-2.6632423,0.24501829,-7.0245876,42.14274,-5.90889
1570715336,10.132261,-2.432509,5.722142,1.5766394,-0.4527512,1.5638559,17.693151,-1.1348516,0.36391866
1570715336,-1.6567876,13.153744,12.373235,3.7264087,-1.890902,1.3497312,7.0820484,1.067814,6.2488666
1570715336,-14.839262,20.57098,10.912771,5.4596467,-2.3521757,1.6117942,-8.207323,14.216769,8.1642275
1570715336,-17.099388,11.736377,16.907852,3.501631,-0.77447087,3.0307698,-13.292608,2.9257145,14.882358
1570715336,-6.0477533,2.3798366,12.488156,4.604213,-0.7766015,1.2581156,-4.8937483,-6.469133,8.111555
1570715336,-1.4891934,4.2425256,3.074155,3.8595707,-0.9012412,0.98007315,0.91937345,-3.0885203,7.5465236
1570715336,-9.471462,-15.337256,6.1243677,-0.05113425,-0.22797355,1.4083226,-5.401319,-22.31396,4.7548847
1570715336,-3.3423057,-14.5328045,2.0207062,-1.5116564,0.79151565,0.8778047,-2.7246015,-25.124752,3.86903
1570715336,1.0295067,-6.5936313,3.0262709,-3.9618392,2.2179482,-0.53797495,3.098097,-18.215086,2.7341783
1570715336,1.685518,4.7788267,3.739743,-4.075826,2.45764,-0.8703476,4.5633483,-5.425261,1.733402
1570715336,0.91458505,12.157756,14.911088,-5.097446,3.2875063,-1.5734435,5.535394,1.1300632,10.764331
1570715336,-12.876017,38.05823,9.193734,-4.398611,3.049945,-4.7874446,-5.233725,23.367409,15.557523
1570715336,-15.638926,13.335704,8.360553,-4.778922,2.2552335,-1.8418984,-9.11712,24.904486,-0.9816227
1570715336,-15.600618,9.959879,4.548983,-3.1831071,0.975812,-1.636296,-10.6398325,1.5131354,-3.2321723
1570715336,-6.670246,12.018892,10.524911,-1.3199029,1.2975317,-1.0258809,-2.255338,6.909666,6.181829
1570715336,6.2249246,7.0964136,-8.561666,-0.6168069,-0.5646074,-0.81601745,11.233594,3.4524388,-10.424355
1570715337,21.887793,4.841076,3.122039,2.6291528,1.3316212,0.92041653,25.895685,0.019153614,-5.5162406
1570715337,3.0933087,-4.7644615,8.892065,1.9004897,-1.1579778,1.9207304,13.852851,-10.180145,8.671799
1570715337,-11.15698,-2.2601264,-6.6415157,0.94704896,-2.1071572,0.67220235,-2.5809495,-9.088389,-10.237606
1570715337,-17.626112,2.5234885,0.2873042,0.6604841,0.2865649,-0.9289389,-11.60709,-4.050989,-3.8019924
1570715337,-11.999739,55.92855,-1.9680338,-0.63385165,-3.1159935,-1.0535786,-12.6222315,51.23113,2.8682537
1570715337,13.144167,3.7301662,-1.3694834,1.6128596,-0.1054644,2.0443048,19.038692,-2.7485435,-5.765238
1570715337,-3.5577838,21.748928,14.820108,4.958957,-1.8706614,1.7311075,2.9257145,10.228029,5.985504
1570715337,-17.937359,19.292477,11.640609,5.862329,-2.3702857,1.3550577,-10.43872,12.459426,8.456321
1570715337,-21.581335,8.6574335,17.171215,5.307309,-1.890902,2.5023825,-17.583017,-0.08619126,15.241488
1570715337,-7.0245876,6.2345014,12.042834,4.398611,-1.2027203,1.4051267,-3.6487634,-2.9257145,11.118672
1570715337,0.79008657,1.115698,4.0892963,4.341085,-0.19921052,0.92574304,3.916914,-8.169016,4.3957543
1570715337,-12.4785795,-18.794483,6.081272,-0.8011033,-0.03728539,1.4200408,-9.701305,-28.174965,6.751649
1570715337,-4.2185836,-6.2728086,7.297527,-2.2488418,0.6839206,0.4953631,-1.7142484,-15.753847,7.431602
1570715337,2.585738,-2.896984,1.2018893,-3.357816,2.095439,-0.17151281,6.1195793,-12.368446,0.6751649
1570715337,1.8291701,0.62728083,2.1978772,-4.2963424,1.9537545,-0.87993526,5.2241483,-9.921572,0.24420857
1570715337,0.51714754,11.080365,16.117765,-5.5480666,3.1383648,-1.9718646,3.8594532,2.2266076,13.541605
1570715337,-10.012551,30.186094,28.37129,-5.8399577,3.4409091,-3.9437292,-8.0445175,32.101456,11.583148
1570715337,-16.486473,22.055386,-1.3455414,-5.4042516,2.884824,-1.4765016,-10.668563,15.227123,-5.3103395
1570715337,-14.686033,5.770026,2.9496565,-3.8627667,0.5145384,-1.7129974,-8.408437,-0.062249243,-1.8195933
1570715337,-2.9352913,11.745954,11.439496,-1.8365719,1.3976696,-1.2400056,1.2306197,5.851429,8.628703
1570715337,5.841852,12.469003,-5.0996494,-1.6448184,-0.44209823,-1.0535786,10.232818,8.101978,-5.4922986
1570715337,16.812084,7.513005,-1.8100165,1.4541303,1.8163313,0.5816521,21.265299,2.135628,-11.066
1570715337,11.123461,-1.1731589,15.260642,2.410767,0.18642697,2.8571265,23.257275,-4.343082,11.650186
1570715337,-8.580819,-2.0254946,-5.109226,2.327674,-1.8525513,1.9068816,0.22984336,-8.5473,-7.97748
1570715337,-17.104177,1.5514427,-2.2984335,0.98753023,1.0972558,-0.67539823,-11.784261,-4.2760444,-4.223372
1570715337,-1.9728222,22.34269,2.504335,1.8600085,-2.1732059,-1.2677033,-1.4030021,5.626374,5.913678
1570715337,-8.106767,41.434055,-2.2457612,0.92041653,0.12890093,-1.0248157,-21.08334,69.95379,-5.463568
1570715337,17.075447,-19.52232,5.4539914,2.1071572,-1.6384267,1.6821039,22.471977,-22.275652,5.6886234
1570715337,-2.9352913,17.377115,6.1100025,5.575764,-2.0475006,0.9140248,6.3350577,2.7581203,-1.412579
1570715337,-27.466282,30.061596,6.5457473,5.913463,-2.1625528,1.5510724,-17.362751,18.765753,5.3342814
1570715337,-11.741165,2.1499932,14.082694,3.996994,-2.2360582,2.579084,-13.024457,-0.19153613,12.650962
1570715337,-1.6998832,3.86903,10.007763,4.7416368,-1.7428257,-0.23543063,1.7860745,-6.9719152,10.745177
1570715337,-6.2584434,-1.5514427,0.33518824,3.580463,-0.7627526,0.46660006,-1.3120226,-7.07726,1.5658079
1570715338,-12.885593,-12.583924,8.465898,-0.5731298,-0.05113425,1.2261568,-10.472239,-23.1232,9.830592
1570715338,2.1739352,-3.9121256,6.813898,-0.26099774,0.40481284,1.2719646,3.3566709,-12.794614,9.361329
1570715338,5.9184666,-11.444284,1.0773908,-2.3585675,1.9558852,-0.4953631,9.332599,-22.61563,0.94810385
1570715338,-0.36391866,-0.60333884,2.8778305,-4.392219,1.0897988,-1.0067056,3.6008794,-11.975797,4.865018
1570715338,-2.2218192,6.7564373,2.255338,-5.0495076,2.8709753,-1.503134,0.07182605,-3.7493198,-0.92416185
1570715338,-11.295844,29.170954,38.39821,-7.4176626,3.100014,-1.1814142,-6.9240313,20.111294,34.055126
1570715338,-10.884041,53.314083,-7.431602,-4.7150044,3.2065437,-4.0619774,-6.766014,54.745815,-7.273585
1570715338,-12.670115,-0.6607997,6.5984197,-4.7150044,1.209112,-3.124516,-6.7947445,-10.67814,4.673482
1570715338,-12.971785,13.378799,14.628572,-2.644067,1.6799732,-1.8823797,-8.456321,5.3342814,9.433155
1570715338,-0.17238252,18.32043,0.6464345,-2.299976,-0.7169448,-0.95024484,6.861782,13.354857,-4.0414124
1570715338,15.02601,9.691729,-7.97748,1.1643696,1.765197,0.5241261,18.83758,5.185841,-15.490485
1570715338,19.55105,-0.14844051,14.992491,2.744205,2.2658865,2.077329,26.968288,-2.3175871,4.429273
1570715338,-3.8402996,-6.6079965,-2.3558946,2.4160933,-1.7129974,1.7140628,2.6862943,-12.694057,-6.4164605
1570715338,-10.611102,0.1388637,-4.975151,1.0844723,-0.98859555,0.16085984,-3.787627,-7.690176,-9.251195
1570715338,-13.508086,9.572019,8.236053,0.81069094,-0.026632423,-1.0748847,-7.101202,3.217807,4.3861775
1570715338,-29.108704,70.47093,-13.723564,-0.84478045,-2.2392542,-0.27271602,-22.950817,64.21249,-18.100164
1570715338,16.16565,5.2049947,9.821015,2.798535,0.22477765,1.0482522,22.457611,-1.1731589,5.837064
1570715338,2.5761611,14.164097,11.18571,3.9266846,-2.1337898,3.4888475,8.030152,6.861782,7.5561004
1570715338,-12.631808,14.810532,14.518439,5.468169,-3.6209443,0.4538165,-6.3350577,7.9343843,10.405201
1570715338,-23.855825,19.01475,16.70674,5.557654,-0.8309316,1.9260569,-18.741812,6.4308257,12.660539
1570715338,-8.719683,3.5817258,13.249513,5.219955,-1.3966043,1.172892,-5.00867,-5.4779334,12.689269
1570715338,-5.257667,1.8626889,3.3375173,4.289951,-0.9449184,0.30680552,-1.6376339,-7.2304893,3.9456444
1570715338,-9.935937,-16.041151,9.208099,-0.71161836,-0.7840586,1.7939601,-6.631939,-25.22052,10.175357
1570715338,-3.763685,-8.461109,5.2480903,-1.4211061,-0.41440052,2.019803,-2.7964275,-18.334797,7.8769236
1570715338,2.681506,-3.5338416,1.757344,-2.658981,1.8472248,-0.15340276,5.2624555,-12.990938,1.8100165
1570715338,1.163582,0.8283938,5.3103395,-3.6497073,1.6064677,-0.4431635,3.86903,-8.561666,4.534618
1570715338,-1.8339585,2.3127987,-0.56982,-4.146136,3.1372995,-0.760622,1.0869676,-6.9000893,-2.2170308
1570715338,-4.630386,14.901511,19.167978,-7.3462877,4.1333523,-1.1718266,0.89064306,1.0295067,11.669339
1570715338,-14.939818,68.943436,7.101202,-3.0275738,4.2430778,-5.344595,-10.113108,61.286774,3.3087866
1570715338,-12.799402,-5.463568,11.865664,-4.097132,1.8387026,-2.0208683,-7.0820484,-12.263102,7.7093296
1570715338,-15.796943,7.0006456,5.66947,-2.795339,1.298597,-1.6544062,-9.552865,1.0390835,1.0055647
1570715338,-4.9176903,15.394717,8.312668,-1.5297664,0.8703476,-1.6650591,-1.7908629,8.523358,2.2218192
1570715338,11.03727,12.521675,-13.761871,-0.30467492,-1.5233747,-0.5592809,15.456966,7.881712,-15.093047
1570715339,19.397821,-0.39743748,9.528923,2.1103532,2.4746847,2.3393922,27.758375,-1.5035586,-0.01436521
1570715339,-1.5275006,-7.536947,-1.6663644,2.4011793,-0.5614115,2.080525,6.9862804,-14.4130945,-1.4030021
1570715339,-13.709199,-2.0638018,-4.9464207,1.287944,-1.2794216,-0.78299326,-7.1969705,-11.09473,-9.504981
1570715339,-11.808203,6.751649,7.0820484,0.09694202,0.9768773,-1.5478765,-6.033388,-1.2785037,3.3854012
1570715339,0.33997664,53.68758,-2.087744,0.5134731,-5.2998524,0.72014076,13.9677725,35.161247,-14.642938
1570715339,3.8786068,4.817134,9.619903,1.6245779,0.5912398,-0.98753023,4.759673,8.0445175,0.45489833
1570715339,6.081272,-4.7165775,-0.89543146,2.92424,-2.4235506,0.85117227,13.857639,-20.293253,-0.63206923
1570715339,-10.860099,30.961817,10.817003,4.830056,-2.4459217,2.234993,-1.7429788,23.702597,6.991069
1570715339,-27.14067,18.358738,17.559074,5.180539,-0.22371235,1.8450943,-20.728998,13.9198885,11.583148
1570715339,-9.753978,2.3463178,11.678916,4.9951773,-1.6437532,2.2509725,-7.1490865,-4.534618,12.29662
1570715339,0.61291564,2.4851813,5.4444146,4.4646597,-0.38670278,0.6658106,3.9456444,-5.315128,7.7093296
1570715339,-7.3310456,-15.682021,7.455544,0.25141007,-1.104713,1.2527891,-2.2266076,-23.108835,7.4268136
1570715339,-5.530606,-14.652514,4.951209,-1.2506586,0.070309594,1.2900746,-4.0892963,-25.062504,6.50744
1570715339,-0.033518825,-4.1180267,0.9720459,-3.2811146,1.9974318,0.053264845,2.705448,-13.694834,0.19153613
1570715339,0.22984336,-0.62249243,3.2561142,-4.0886097,1.8525513,-0.52093023,3.3327289,-9.864111,2.1978772
1570715339,0.095768064,3.7732618,5.305551,-4.2356205,2.554582,-0.85543346,3.1986535,-5.9807158,2.5570073
1570715339,-4.711789,24.71295,25.608381,-6.7071095,3.1596708,-2.0783944,1.6903064,7.0724716,12.919112
1570715339,-17.946936,70.32728,4.7022123,-2.848604,2.2126217,-4.086479,-16.381128,68.04321,8.422802
1570715339,-18.420988,-4.55856,-3.3375173,-5.070813,2.080525,-1.5340276,-12.751518,-11.147403,-7.872135
1570715339,-15.116989,11.003751,11.018116,-2.486403,2.1614876,-1.306054,-8.829816,5.2385135,6.172252
1570715339,-2.255338,14.274231,11.774684,-0.98966086,1.1388024,-1.3007276,4.4915223,8.944737,7.062895
1570715339,14.355634,8.599973,-13.948619,0.27058542,-0.009587673,-0.56993383,21.279665,3.6104562,-18.77533
1570715339,21.327549,1.3263878,13.867216,2.3702857,2.1518998,2.4853377,28.30904,-4.189853,9.744401
1570715339,-4.31914,-4.027047,-1.6711528,2.9327624,-1.7918295,1.5574641,2.2266076,-10.314221,-5.377377
1570715339,-14.432248,2.7246015,-6.7085533,1.2080467,-1.3380129,-1.2123079,-8.106767,-3.787627,-10.414778
1570715339,-10.127473,7.1730285,3.5003228,0.9449184,0.8405193,-0.91615534,-3.5242648,0.78529817,0.05746084
1570715339,-7.28795,56.02911,-1.6903064,-0.78725445,-4.0513244,0.83732337,-1.0055647,49.559975,-5.5497594
1570715339,5.032612,-1.1875241,5.81791,2.0677414,0.03835069,0.16938221,11.262324,-7.7428484,2.030283
1570715339,-7.920019,22.127213,9.404425,3.8808768,-1.5393541,0.98753023,-1.9632454,15.116989,5.995081
1570715339,-13.029245,19.64682,10.726024,5.9102674,-1.5894231,2.5215578,-7.7189064,11.803414,8.178593
1570715340,-21.4712,12.631808,15.040375,3.7519758,-0.4559471,2.7633803,-16.864758,4.1036615,13.512875
1570715340,-21.4712,12.631808,15.040375,3.7519758,-0.4559471,2.7633803,-16.864758,4.1036615,13.512875
1570715340,-21.4712,12.631808,15.040375,3.7519758,-0.4559471,2.7633803,-16.864758,4.1036615,13.512875
1570715340,-21.4712,12.631808,15.040375,3.7519758,-0.4559471,2.7633803,-16.864758,4.1036615,13.512875
1570715340,-21.4712,12.631808,15.040375,3.7519758,-0.4559471,2.7633803,-16.864758,4.1036615,13.512875
1570715340,-4.3957543,0.02873042,11.27669,4.4572024,-1.0418605,1.2432015,1.4891934,-8.8777,10.697293
1570715340,1.6280571,3.1364043,4.6399627,3.9277499,-1.0077709,0.5219955,5.5401826,-5.841852,5.0996494
1570715340,-6.5696893,-17.975666,6.8665705,-0.0010652969,0.03728539,0.91295946,-0.31124622,-25.646688,9.14585
1570715340,-6.742072,-7.7572136,8.978256,-2.3766775,0.29189137,0.49642837,-5.889736,-20.144814,10.635044
1570715340,1.2066777,-4.3047748,-0.19153613,-2.898673,1.7279116,0.10120321,3.6104562,-13.79539,-0.1388637
1570715340,1.6472107,0.9959879,3.347094,-3.462215,2.156161,-0.81495214,5.4061074,-8.580819,2.1978772
1570715340,-1.3120226,1.6136919,4.620809,-3.698711,2.080525,-1.6480143,3.7588966,-7.690176,2.1164744
1570715340,-6.4068837,27.499802,35.261803,-6.9595847,3.4963045,-3.648642,0.7565677,12.679692,23.338678
1570715340,-19.029116,53.735462,-6.727707,-4.280363,2.5481904,-3.792457,-12.943054,57.714626,-0.7134721
1570715340,-22.304382,-6.991069,6.1530986,-5.5416746,1.4551957,-2.7857516,-17.76019,-14.93503,0.92895025
1570715340,-8.585608,17.640478,14.987702,-2.400114,1.1132354,-1.1846102,-5.674258,12.871228,9.184157
1570715340,8.403648,24.454376,-4.132392,-3.512284,0.32171968,-0.6253293,12.62702,20.12566,-1.1444284
1570715340,11.784261,6.694188,-2.873042,1.0557092,2.2328625,1.8962286,17.712305,2.8299465,-13.254301
1570715340,14.676456,-2.5187001,11.477803,3.2225232,0.5134731,2.593998,23.252487,-4.5441947,6.622362
1570715340,0.4213795,-6.8186865,3.5482068,2.5694962,-1.392343,1.485024,9.552865,-13.192051,0.80924016
1570715340,-11.147403,1.0007763,-3.2800562,0.28123838,-1.0716888,0.13422741,-3.1028855,-6.7133417,-7.3071036
1570715340,-18.11453,12.966996,2.633622,1.3987349,-0.98966086,-1.5904883,-13.048399,1.0630256,-3.2609026
1570715340,-14.389153,45.954308,-3.4572272,-0.044742472,0.09374613,0.4527512,-25.737669,71.81168,-7.5561004
1570715340,14.279019,-14.518439,5.765238,1.5872924,-1.0557092,1.7747847,21.097706,-17.477673,4.405331
1570715340,-2.0398598,22.079329,4.903325,4.3719788,-2.3447185,1.4157796,7.311892,8.384495,2.9879637
1570715340,-16.46253,22.505495,11.860875,5.977381,-2.4086363,1.3966043,-11.386824,17.228676,9.921572
1570715340,-18.828003,12.732365,18.880674,4.670262,-1.0237503,3.2022827,-14.15452,4.261679,17.24783
1570715340,-10.0269165,3.6391866,12.061988,4.973871,-1.5159175,1.485024,-6.0621185,-5.3103395,11.453861
1570715340,-3.715801,5.133168,-0.7038953,4.7863793,-1.3135111,0.4218576,0.11971009,-3.86903,-0.110133275
1570715340,-12.569559,-15.20797,10.577583,-0.28869548,-1.0088362,1.7257811,-9.021352,-24.286781,11.650186
1570715340,-2.3175871,-15.940595,1.1204864,-1.3444047,0.4825795,2.0421743,0.60812724,-25.273193,1.8004397
1570715340,2.9352913,-4.6926355,2.1021092,-3.4824557,2.2957149,0.1395539,5.6407394,-14.116213,2.2601264
1570715340,1.7764976,1.2497733,4.462792,-4.286755,1.9441669,-0.46660006,4.548983,-8.1163435,3.6343982
1570715340,3.4763808,7.2927384,7.608773,-4.8598847,3.250221,-1.1345413,6.5984197,-1.8195933,5.7843914
1570715340,-5.683835,25.752033,33.269825,-6.4237404,2.5663004,-2.24245,-2.0207062,17.228676,30.071173
1570715340,-14.18325,57.274094,0.272939,-3.2203927,1.9388404,-3.7647593,-9.184157,49.770664,-3.5865142
1570715340,-19.929335,-0.94331545,-0.78050977,-3.853179,0.32917675,-2.686679,-14.441825,-7.6375036,-5.386954
1570715341,-14.097059,11.171345,9.753978,-1.7119322,2.866714,-1.912208,-7.9343843,5.2002063,5.0038815
1570715341,3.3662477,13.632585,6.5265937,-1.5968801,-0.12570503,-1.765197,10.070012,8.1881695,1.8770541
1570715341,21.418528,8.432379,-12.105083,1.3752984,0.16938221,0.1033338,28.06962,3.2513258,-17.108965
1570715341,9.964667,-5.1475334,14.872781,2.0901127,0.771275,2.4480524,16.543934,-11.018116,10.58716
1570715341,-10.6398325,-5.770026,-7.589619,1.8173965,-1.7588053,1.2890093,-4.5537715,-12.258312,-11.717223
1570715341,-16.883911,1.8483237,-4.5154643,0.5784562,0.22158176,-1.2613115,-11.496957,-7.5465236,-11.549629
1570715341,-9.868899,17.860744,9.059659,1.2144386,0.05646074,-1.865335,-7.4986396,4.687847,5.046977
1570715341,-2.6910827,45.446735,-3.691859,-0.88313115,-1.0684928,0.8767394,-6.4068837,69.47015,-6.8665705
1570715341,9.284714,-12.789825,8.930372,1.8408331,-1.1334759,1.6831691,16.658855,-15.073894,7.3310456
1570715341,-2.825158,23.190237,10.453085,4.727788,-1.7918295,0.57099915,4.2185836,9.945514,2.2457612
1570715341,-22.448034,25.55571,16.055517,5.9922953,-0.8596946,1.1238883,-15.773001,20.417751,9.452309
1570715341,-17.161638,6.244078,14.791378,4.696894,-1.6309696,2.8763018,-15.064317,-0.3878607,11.683704
1570715341,-4.9224787,2.2888567,13.196839,4.3858275,-0.8810006,0.26419365,-1.8483237,-7.1251445,10.352529
1570715341,-3.5290532,2.2936451,2.552219,4.2558613,-0.30041373,0.36220095,0.5554548,-3.9264908,2.9257145
1570715341,-11.669339,-13.613431,9.624691,-0.32811147,-0.3898987,1.5883577,-6.775591,-23.736116,8.734048
1570715341,-2.4468741,-10.117896,3.3423057,-1.4136491,0.52093023,1.804613,-1.661576,-21.361067,6.3925185
1570715341,3.3375173,-3.1411927,1.6998832,-3.3844483,1.930318,-0.27058542,5.8322754,-15.016433,0.35434186
1570715341,0.81881696,1.5610195,5.659893,-4.0886097,1.7300422,-0.6572882,4.8123455,-8.001422,7.5704656
1570715341,2.542642,2.552219,7.699753,-5.0495076,3.5442429,-1.736434,5.1666875,-6.8905125,2.327164
1570715341,-19.70428,38.16836,39.207447,-7.7106194,3.4899127,-3.1511483,-9.830592,21.600489,43.335052
1570715341,-10.807426,27.902027,-15.44739,-4.7842484,0.61041516,-1.1547819,-4.4580035,46.31344,-14.422671
1570715341,-5.410896,4.9799395,6.244078,-4.058781,1.2613115,-2.5023825,1.2545617,-5.9998693,-0.20111294
1570715341,-9.011775,9.983821,17.161638,-1.324164,1.7257811,-1.6160555,-3.0454245,3.643975,11.587936
1570715341,2.6767175,7.541735,-13.306973,-1.4946116,-1.1473248,-0.65622294,7.8386164,4.3526587,-13.479356
1570715341,17.99482,7.0724716,-4.185065,2.3095639,1.9654728,0.62639457,21.131224,1.7956513,-12.899959
1570715341,5.12838,-3.1842883,11.563994,2.1806629,-0.2098635,2.625957,17.606958,-6.9862804,11.18571
1570715341,-5.511452,-1.316811,-7.1395097,2.281866,-2.3851998,1.3891472,0.78050977,-7.541735,-11.353305
1570715341,-11.520899,3.6870706,0.8523358,1.1089741,0.1725781,-0.63491696,-5.401319,-2.791639,-3.2369606
1570715341,-7.2352777,10.218452,5.9807158,0.7808626,-0.9332001,-1.0258809,-0.8858546,3.8594532,2.0446482
1570715341,-36.214695,79.25286,-3.6822822,-0.18323107,-0.08735435,0.29189137,-30.272285,72.80289,-8.078036
1570715341,16.069881,-12.310986,12.957419,1.510591,-1.0652969,1.32736,22.151154,-18.856733,8.920795
1570715341,1.3455414,10.366894,-2.2122424,5.324354,-3.4206684,0.6935083,6.8186865,3.193865,-6.05733
1570715341,-22.510284,27.092787,12.899959,5.7845626,-4.4071336,0.01065297,-17.477673,19.306843,9.682152
1570715342,-21.839909,7.029376,16.103401,4.1780944,-0.29615256,2.6962667,-17.152061,-1.3455414,14.097059
1570715342,-6.033388,5.391742,11.693281,5.025006,-1.1792837,1.6991487,-1.9871874,-3.4859576,10.721235
1570715342,-6.4547677,0.36391866,6.83784,4.4849,-0.91828597,0.74357724,-2.695871,-8.690952,7.0581064
1570715342,-7.9343843,-16.261417,4.6830587,0.03835069,-0.25886714,0.6583535,-4.2904096,-25.330654,5.463568
1570715342,-2.384625,-15.749059,3.4093432,-2.7740333,0.37178862,1.5041993,0.8379706,-25.005043,3.6774938
1570715342,1.067814,-1.4652514,0.56982,-4.135483,2.0027583,-0.058591332,4.156334,-10.754754,0.01436521
1570715342,-0.59376204,3.9935284,3.0933087,-4.438027,2.0283253,-0.4538165,2.6240451,-5.12838,1.4891934
1570715342,-1.2114661,11.089942,14.087482,-5.087858,2.7825556,-1.2890093,2.8203697,-0.17238252,9.519346
1570715342,-17.472883,41.735725,10.472239,-4.595691,3.7967184,-3.8830073,-12.847286,33.877953,6.847417
1570715342,-13.785813,20.130447,0.78050977,-4.7352448,2.5929327,-1.951624,-6.042965,34.55312,-6.9862804
1570715342,-17.563864,5.683835,5.899313,-3.619879,1.0099015,-1.9484282,-11.133038,-2.777274,-1.115698
1570715342,-6.325481,12.378023,8.676587,-1.5244399,0.7244019,-1.2389404,-1.9680338,7.005434,4.036624
1570715342,10.55843,12.406754,-8.135497,-1.8568126,-0.47086126,-0.6700718,15.045163,8.791509,-7.1155677
1570715342,18.119318,2.8060043,3.2369606,2.034717,1.6661245,1.3507965,22.548592,-1.508347,-5.233725
1570715342,5.7365074,-4.098873,7.9391727,2.2733436,-0.721206,1.9271221,15.849615,-8.5473,7.431602
1570715342,-8.599973,-1.3934253,-5.650316,1.5958148,-1.4551957,0.6658106,0.01436521,-8.595184,-9.816227
1570715342,-14.777013,4.606444,4.5633483,0.7041613,0.77447087,-1.1451942,-7.455544,-2.360683,-0.9624691
1570715342,-5.674258,32.647335,-7.9104424,1.7779806,-4.506206,0.2077329,1.5945383,16.218323,-5.425261
1570715342,3.4572272,14.504074,11.003751,1.384886,1.5936842,-2.471489,-2.480393,24.914062,0.60812724
1570715342,21.236568,-16.328455,6.0860605,1.8291148,-0.88419646,1.3284253,26.685772,-24.894909,3.1842883
1570715342,-11.903971,27.202919,15.02601,4.553079,-1.6554714,1.8664002,-1.7429788,12.765883,3.5290532
1570715342,-31.206024,27.490225,6.2632318,5.2476525,-0.36965802,1.503134,-25.713726,21.41374,-0.80445176
1570715342,-4.2281604,8.935161,9.255983,4.3187137,-1.7460216,3.0989487,-3.3375173,0.17717093,7.0724716
1570715342,-3.6391866,5.57849,14.283808,4.9909163,-1.2815522,0.5976316,0.17238252,-4.7261543,15.844827
1570715342,-6.670246,-11.267113,1.3024458,3.4270601,-0.81708276,0.47405714,-2.906561,-14.84405,1.1923125
1570715342,-7.6135616,-16.151285,7.9487495,-1.2186997,-0.54649734,1.8695961,-5.9663506,-25.28277,8.0924015
1570715342,1.6711528,-9.89763,1.958457,-2.2946496,1.6043372,0.47938362,3.5913026,-21.370644,3.739743
1570715342,3.3183637,0.062249243,1.757344,-4.089675,1.998497,-0.5614115,6.363788,-9.23683,1.1683705
1570715342,0.2633622,5.3438582,4.4484267,-3.8105671,1.6437532,-0.98113847,3.5913026,-3.2800562,4.0414124
1570715342,-0.2777274,7.015011,9.921572,-5.144319,2.4246159,-1.2272221,3.490746,-1.6903064,7.4507556
1570715342,-14.140155,30.46861,21.95004,-5.708926,2.9327624,-3.1863031,-9.56723,22.591688,18.306067
1570715342,-14.12579,35.740643,-5.645528,-4.033214,2.640871,-2.5098395,-8.336611,28.936321,-9.68694
1570715342,-11.812991,2.7868507,2.944868,-3.077643,-0.20027582,-1.9921052,-5.4922986,-3.145981,-1.6424223
1570715342,-7.417237,14.389153,12.65575,-1.718324,1.054644,-0.9790079,-0.7326257,9.011775,7.896077
1570715343,1.6567876,8.2169,-8.585608,-1.0269462,-0.6295905,-0.1725781,8.403648,3.1364043,-13.565547
1570715343,16.036364,5.511452,-0.79487497,1.7193892,2.101831,1.0333381,22.811954,0.25378537,-5.5497594
1570715343,5.8562174,-5.4300494,11.51611,2.1795976,-0.06285252,2.3063679,12.50731,-11.36767,7.4363904
1570715343,-7.704541,-2.0590134,-6.679823,1.5052645,-2.1444428,0.5219955,-1.5131354,-8.499416,-10.721235
1570715343,-11.530476,3.7732618,2.992752,0.50388545,0.44422883,-1.0184239,-5.329493,-2.6671407,-1.0342951
1570715343,0.8762778,28.136658,-10.352529,1.6714509,-2.8006656,0.26312834,7.129933,21.729774,-14.350845
1570715343,-5.2528787,28.787882,1.0007763,0.95450604,1.406192,-1.8195271,0.6943185,22.25171,-3.2561142
1570715343,11.75553,-14.025233,12.287044,1.4892851,-2.518362,1.4274979,17.520767,-20.796036,8.1642275
1570715343,-11.884817,25.028984,5.482722,5.331811,-1.718324,1.0908641,-6.6606693,17.640478,1.6903064
1570715343,-16.850391,20.992361,12.26789,5.425557,-2.536472,1.9963665,-15.2367,12.828133,9.299079
1570715343,-16.304514,2.432509,18.454506,3.900052,-1.4477385,2.5833452,-16.390705,-2.0494366,19.067423
1570715343,-3.1651347,9.093178,7.216124,4.9419127,-1.1079088,0.31319728,0.35913026,-0.01436521,6.3589997
1570715343,-3.8594532,-2.183512,1.2976574,3.5708754,-1.0567746,0.11079088,1.0726024,-8.791509,3.5098996
1570715343,-11.444284,-14.958972,8.954314,-0.33024204,-0.487906,0.49962425,-7.809886,-23.467964,9.672575
1570715343,1.8531121,-17.03714,4.8027687,-2.0666761,0.9523755,0.82453984,3.016694,-26.819847,6.1626754
1570715343,3.0262709,0.59855044,1.1683705,-4.0736957,2.0997002,-0.5859133,7.240066,-12.253524,-0.5650316
1570715343,-0.19153613,6.967127,6.5457473,-3.7604983,1.3316212,-1.1952631,4.098873,-1.4891934,4.4915223
1570715343,-0.45968673,9.821015,9.849746,-4.26971,2.533276,-2.4842725,2.815581,-0.5410896,6.133945
1570715343,-17.367538,36.13808,23.597252,-5.66738,3.321596,-3.4334521,-8.690952,20.824766,23.784
1570715343,-17.851168,18.459295,0.33039984,-5.6524653,3.286441,-2.083721,-10.433931,36.1716,-9.576807
1570715343,-15.418659,4.2521024,7.953538,-3.591116,0.7052266,-1.4019308,-7.589619,-5.6359506,0.90021986
1570715343,-5.9998693,14.5567465,11.75553,-1.8355067,0.84158456,-0.78192794,-0.641646,9.662998,9.198523
1570715343,9.581595,14.111424,-6.483498,-1.8972938,-0.03728539,-0.36113566,14.60463,11.611878,-7.565677
1570715343,11.654974,3.9791632,-0.93852705,1.7641318,1.9633423,1.4733057,17.559074,1.508347,-8.925584
1570715343,6.5361705,-3.3518825,9.165004,2.830494,0.33663383,2.3084984,16.716316,-7.249643,4.7165775
1570715343,-2.3558946,-2.2936451,-0.2825158,1.6767774,-1.5063299,1.3017929,5.315128,-9.174581,-2.2649148
1570715343,-7.8386164,3.1316159,-4.9416323,0.7989727,-0.57632565,0.3483521,-1.3072342,-3.1603463,-8.66701
1570715343,-4.5777135,14.384364,7.9822683,1.7513481,-1.0429257,-0.66368,-0.10534488,4.572925,3.1555579
1570715343,-26.479872,54.697933,-3.2321723,0.04261188,-2.378808,1.5649211,-20.298042,48.085148,-7.015011
1570715343,6.1530986,-2.3463178,16.596605,1.4402815,-0.4452941,-0.39522517,12.540829,-8.987833,13.244724
1570715343,2.303222,15.342045,-4.381389,2.9689825,-1.9431016,2.0176723,8.169016,8.274361,-7.819463
1570715343,-18.851944,23.386562,12.35887,5.3552475,-2.1082227,2.2754743,-13.656527,15.437813,9.89763
1570715343,-21.772871,12.6461735,17.171215,2.948742,1.1270841,2.5098395,-17.132908,4.1371803,15.653291
1570715344,-0.31124622,3.9217024,11.48738,4.6212583,-0.95131016,1.56066,3.715801,-4.999093,10.903194
1570715344,0.7278373,-4.0078936,2.7820623,3.5602224,-0.49855897,1.0823417,4.453215,-13.062764,3.241749
1570715344,-13.493721,-18.167202,6.885724,-0.82560515,0.04900366,0.83306223,-9.998186,-27.303476,7.560889
1570715344,-1.4173675,-6.4643445,3.2561142,-2.2200787,1.1963284,0.4239882,1.8914193,-15.68681,3.5098996
1570715344,3.6343982,-0.94331545,-0.1436521,-3.2427638,1.7172587,-0.4836448,6.895301,-11.520899,0.92416185
1570715344,-2.3463178,2.4612393,4.209007,-4.1418743,2.0762637,-1.5382888,1.3599066,-6.5265937,2.9592333
1570715344,-3.3901896,15.921441,18.042704,-5.903876,2.7452703,-2.1625528,0.93373865,7.422025,15.74427
1570715344,-14.676456,53.23747,3.763685,-3.3524895,2.4746847,-5.6588573,-9.126697,45.757984,0.6847417
1570715344,-16.065094,13.694834,8.7771435,-4.257992,3.4686067,-1.4072572,-7.326257,27.07842,-5.2241483
1570715344,-16.290148,8.901642,6.3302693,-3.2693963,1.1782184,-0.9332001,-9.457097,3.0310593,2.4420857
1570715344,-3.145981,12.445061,6.8569937,-1.6299043,0.8437152,-0.54330146,3.9743748,7.019799,2.8491
1570715344,8.801085,12.378023,-6.349423,-1.8930327,-0.031958908,-0.05113425,13.532028,8.51857,-6.9719152
1570715344,18.483236,1.2593501,6.105214,2.0528271,2.5343413,1.9835829,25.637112,-4.185065,2.1978772
1570715344,3.7493198,-7.5944076,8.418014,2.500252,-0.60934985,1.8472248,14.197616,-13.977349,7.422025
1570715344,-3.4332852,-1.2449849,-0.56982,0.760622,-2.1082227,0.67220235,4.4244847,-8.796297,-2.767697
1570715344,-12.689269,4.185065,-4.6160207,0.034089502,0.09800732,-0.760622,-5.4300494,-3.9073372,-8.0684595
1570715344,-8.973468,30.937874,-1.2354081,1.366776,-3.745584,-0.06285252,-2.633622,16.390705,-3.3758245
1570715344,-2.0638018,15.9262295,7.762002,1.2282873,3.0222473,-1.2815522,-7.2065473,22.093693,-7.2113357
1570715344,19.393034,-3.5625722,9.672575,1.2922052,-1.9100775,2.719703,24.669855,-13.268666,4.783615
1570715344,-13.747506,27.04969,10.371682,4.069434,-3.265135,2.368155,-2.2840683,13.010092,0.47405192
1570715344,-26.551697,22.256498,11.693281,5.8079987,-0.42718408,0.6402435,-20.384233,16.457743,3.8642416
1570715344,-5.0182467,6.9623384,8.805874,4.230294,-1.6139249,2.6760259,-3.5673606,-1.388637,8.480263
1570715344,0.7517793,7.2352777,12.813767,4.455072,-1.1494554,1.5201787,5.521029,-0.521936,13.230358
1570715344,-7.704541,-11.310209,-0.16280572,2.2552335,-0.6647453,1.0844723,-3.1411927,-16.108189,1.0630256
1570715344,-10.601525,-11.60709,8.987833,-0.3185238,-0.9321348,1.1004517,-10.55843,-23.022644,8.959103
1570715344,3.8259344,-10.395624,0.9864111,-1.6927568,1.4488038,0.74996907,4.6926355,-19.804836,2.0494366
1570715344,3.040636,-3.4572272,2.6479871,-3.8691585,1.474371,-0.5933704,6.5122285,-13.680469,0.9624691
1570715344,-0.8714894,3.1651347,3.6870706,-4.1237645,1.3039235,-1.0929947,2.8491,-6.0525417,3.8546648
1570715344,-0.5650316,13.651738,11.587936,-4.9781327,2.5588431,-1.9878441,2.858677,0.36391866,7.091625
1570715344,-19.009962,47.63025,11.87524,-4.021496,2.6877441,-4.9142146,-12.162544,29.63064,17.836803
1570715344,-17.87511,14.058752,1.6807296,-4.7544203,2.956199,-1.0514481,-8.537724,30.866049,-12.981361
1570715344,-13.000515,2.767697,6.8761473,-2.4981213,0.6540923,-1.9175345,-6.766014,-6.4308257,0.9768343
1570715344,-8.892065,13.532028,13.723564,-1.1462595,1.5585294,-0.9118942,-2.2409728,7.2927384,9.983821
1570715345,6.2392898,11.688493,-8.858546,-1.1601083,-0.8660864,-0.18323107,13.019669,6.4260373,-13.599066
1570715345,16.457743,4.606444,-1.6280571,1.7779806,1.9004897,1.3145764,23.18545,-0.842759,-6.229713
1570715345,7.896077,-8.791509,10.548853,2.560974,0.23116943,2.3116944,14.432248,-14.978126,6.6606693
1570715345,-8.015787,-1.9440918,-3.8355112,1.618186,-2.3947875,0.27271602,-0.4309563,-9.552865,-7.417237
1570715345,-12.512098,3.892972,5.0182467,-0.039415985,-0.15766394,-1.1899366,-5.2145715,-4.2185836,-0.6799533
1570715345,-5.7365074,12.363658,3.6727054,0.50921196,-1.1675655,-0.5976316,0.4405331,5.81791,-0.22026655
1570715345,-22.64436,57.389015,-2.9113493,-1.0258809,-1.6618632,0.8224092,-16.984467,50.666096,-7.264008
1570715345,10.836157,-2.3798366,13.402741,1.6437532,-0.36326626,1.0567746,16.630125,-9.208099,9.404425
1570715345,0.37349546,19.335573,4.5920787,3.5399816,-3.1266465,1.3028581,5.544971,11.971008,0.6895301
1570715345,-13.713987,23.712173,11.520899,5.2742853,-3.454758,0.7084225,-9.11712,15.701175,8.212111
1570715345,-25.210943,7.52737,18.435352,4.012974,-0.050068956,2.1646833,-21.11207,-1.1013328,16.218323
1570715345,-4.429273,7.225701,10.702082,4.846036,-0.5784562,1.9878441,-0.9816227,-1.8770541,9.514558
1570715345,0.46447513,-0.22984336,4.5681367,3.9234886,-0.56780326,1.1867408,3.5098996,-9.548077,4.5872903
1570715345,-9.437943,-16.82645,2.5713725,-0.094811425,-0.4538165,0.6413088,-4.084508,-24.511837,2.930503
1570715345,-6.05733,-8.432379,3.1842883,-1.3902125,0.77447087,0.65196174,-3.4237084,-17.879898,3.1747115
1570715345,2.4708161,-5.45878,2.2601264,-3.1404953,2.069872,0.1384886,4.9943047,-14.915876,1.7238252
1570715345,1.934515,-1.3024458,4.9703627,-4.0768914,1.9431016,-0.6700718,5.386954,-11.650186,6.4068837
1570715345,-0.272939,2.0590134,4.3382936,-3.9554474,2.5694962,-2.095439,2.873042,-6.8905125,1.9632454
1570715345,-2.657564,17.171215,17.324444,-5.468169,3.878746,-3.4217339,3.5865142,-0.2777274,6.6271505
1570715345,-23.400927,83.33737,6.5744777,-3.4185379,1.8099395,-5.4266224,-21.662737,73.3344,12.832921
1570715345,-14.690822,-10.529699,-1.5035586,-4.494488,1.0983212,-2.8059921,-12.0571995,-14.00608,-8.911219
1570715345,-11.664551,10.730812,12.737153,-1.4860892,0.839454,-1.4775668,-5.3821654,3.8402996,6.555324
1570715345,-2.4516625,17.741035,6.0477533,-1.1590431,0.2801731,-0.8138869,1.7908629,12.143391,4.721366
1570715345,3.0119057,4.841076,-13.13459,0.43464115,-0.068179004,0.98966086,10.199299,1.0869676,-21.930887
1570715345,13.79539,-3.2273839,10.237606,2.6270223,1.5649211,2.345784,19.948488,-6.0956373,3.1268275
1570715345,4.1706996,-5.0038815,2.1499932,2.0229988,-1.7257811,1.4679792,13.321339,-12.981361,0.62728083
1570715345,-7.809886,2.3511062,-2.896984,0.3206544,-0.5603462,0.19068815,-0.18195933,-4.9703627,-9.212888
1570715345,-12.837709,16.807297,4.7740383,0.975812,-1.3944737,-1.3103153,-7.4603324,4.841076,-1.388637
1570715345,-3.691859,33.02562,0.62728083,-0.14168449,-0.68179005,-1.2815522,-15.528792,48.635815,-4.8745947
1570715345,11.449073,-5.425261,8.42759,2.1582916,-2.1593568,0.7169448,19.187132,-14.360422,4.6399627
1570715345,-11.583148,21.150377,9.662998,4.1706376,-1.9782565,0.50282013,-1.5897499,12.368446,2.0685902
1570715345,-17.405846,16.515203,9.715671,5.414904,-1.815266,1.5148523,-11.133038,13.215993,5.209783
1570715345,-16.093824,7.469909,15.021221,4.506206,-1.406192,2.4139628,-14.317327,-0.9576807,12.98615
1570715345,-8.90643,7.4986396,11.540052,4.3027344,-0.23223473,2.2158177,-5.1523223,-1.4030021,9.864111
1570715346,-5.506664,3.7493198,6.0621185,4.352803,-0.37285393,0.57739097,-3.4237084,-4.6782703,5.1140146
1570715346,-7.1826053,-9.935937,5.45878,1.5148523,-0.15553336,0.32598087,-3.8642416,-19.158401,5.7987566
1570715346,-5.45878,-13.22557,8.781932,-0.75209963,-0.36539686,2.1550958,-2.5234885,-22.577322,8.987833
1570715346,3.5242648,-9.423578,1.3694834,-2.837951,2.313825,-0.2098635,6.4260373,-21.29403,0.48362875
1570715346,1.934515,0.34476504,3.4955344,-4.05452,1.7683929,-0.6668759,4.673482,-9.021352,2.5474305
1570715346,-0.9959879,4.8219223,2.5617957,-3.720017,1.8514861,-1.2527891,2.0638018,-4.3047748,0.6943185
1570715346,-4.453215,13.757083,16.4338,-6.026385,3.2118702,-1.7928947,-0.7182605,5.142745,13.589489
1570715346,-17.712305,65.1989,7.867347,-2.7207685,2.941285,-4.7810526,-14.255077,51.235916,7.1490865
1570715346,-14.887146,2.0111294,7.0006456,-5.1112947,2.0581536,-1.0418605,-9.179369,-4.759673,2.7868507
1570715346,-12.23437,9.691729,7.5225816,-2.4352689,1.3092499,-0.9779426,-6.1004257,3.6870706,2.767697
1570715346,-5.9041014,12.751518,9.586384,-1.1377372,1.4488038,-0.7222713,0.59376204,7.129933,4.8602295
1570715346,7.7572136,9.600749,-9.466674,-0.39415985,-0.6626147,-0.204537,14.369999,4.213795,-14.30775
1570715346,20.81519,3.1172507,7.9152308,2.4160933,1.6906263,1.453065,27.418398,-2.5953147,3.4572272
1570715346,0.6703765,-4.4819455,2.4756045,2.0901127,-1.2165691,1.8216578,6.943185,-10.874464,-1.508347
1570715346,-9.303867,-1.541866,-4.9655743,1.054644,-1.9665382,0.07244019,-3.4284968,-8.283937,-8.987833
1570715346,-10.658986,3.98874,4.1132383,0.5592809,-0.067113705,-1.0674275,-4.721366,-2.7006595,0.090979666
1570715346,-14.298173,45.039722,-0.78529817,0.0031958907,-3.9490557,0.5976316,-8.561666,38.321594,-5.0517654
1570715346,6.540959,1.508347,10.611102,1.2293527,1.015228,0.46233886,12.29662,-5.2480903,6.4404025
1570715346,4.6830587,8.274361,3.6056678,2.6611118,-3.013725,1.3902125,9.935937,1.0821792,-0.49799395
1570715346,-14.580688,31.890766,9.385271,4.3357587,-2.1572263,1.815266,-6.646304,23.985113,2.566584
1570715346,-20.101717,16.108189,17.549498,4.797032,-0.4857754,2.0134113,-16.156073,7.503428,14.978126
1570715346,-5.81791,0.50278234,10.611102,4.6979594,-1.6054025,1.460522,-2.480393,-8.585608,9.054871
1570715346,-4.012682,2.3463178,10.912771,4.157854,-1.618186,0.49749365,-0.91458505,-6.9479733,10.472239
1570715346,-6.8091097,-8.848969,-0.17238252,2.087982,-0.5177343,0.6402435,-3.4572272,-15.8304615,0.81881696
1570715346,-10.611102,-11.592725,5.506664,-1.004575,-0.30254433,0.9832691,-8.973468,-22.155943,6.1387334
1570715346,1.0342951,-9.825804,2.542642,-2.360698,1.7705235,0.82453984,2.1643584,-19.780895,1.8674773
1570715346,3.5003228,-0.59376204,4.7788267,-3.8574402,2.0038235,-0.23010413,6.215348,-12.349293,2.777274
1570715346,-2.0350714,5.3725886,3.5434184,-4.239882,2.360698,-1.2368097,1.7142484,-3.7924154,2.9975405
1570715346,-4.7261543,15.816096,17.793707,-6.2042894,3.1234505,-1.5936842,0.90021986,4.3622355,12.516887
1570715346,-17.87511,58.06897,7.699753,-3.3769913,4.222837,-5.7408853,-12.138602,38.94887,7.345411
1570715346,-15.883134,-1.9057846,9.830592,-4.4209824,1.2421362,-2.327674,-10.314221,1.3551182,5.827487
1570715346,-11.281479,11.894394,7.603985,-2.0762637,0.4857754,-1.7566746,-5.0996494,4.6255975,0.48362875
1570715346,-4.256891,15.112201,6.5505357,-1.3326864,0.6402435,-0.81495214,0.10534488,9.615114,4.6495395
1570715347,1.3982137,4.9655743,-11.908759,0.21625528,-0.68072474,0.37178862,7.216124,0.50278234,-16.108189
1570715347,16.46732,-0.20590134,6.339846,2.766576,1.7204546,2.0080848,21.701044,-3.9073372,-2.0111294
1570715347,3.620033,-4.5154643,4.687847,2.3436532,-0.6583535,1.6597326,11.798626,-12.076353,3.8307228
1570715347,-7.153875,1.0534488,-4.6782703,0.91828597,-1.592619,-0.08415846,-0.033518825,-6.4787097,-7.9631147
1570715347,-10.371682,7.723695,2.2170308,0.64770055,-0.40694344,-1.2463974,-4.1036615,-0.45010993,-1.508347
1570715347,0.7757214,33.07829,2.72939,3.0797734,-4.0673037,1.5819659,10.879252,25.622747,-13.9198885
1570715347,-4.1132383,7.8912888,9.672575,2.0528271,1.5265706,-1.8088742,-7.5561004,11.501745,-5.00867
1570715347,12.852075,-9.533711,13.278243,1.6171207,-3.0222473,0.9577019,18.459295,-19.009962,10.745177
1570715347,-18.713081,37.93373,7.52737,4.230294,-0.9406572,2.234993,-7.2065473,27.902027,-2.1978772
1570715347,-19.608511,20.187908,8.762778,5.660988,-1.5041993,1.7992865,-15.246277,11.803414,6.129156
1570715347,-10.869676,4.1180267,9.864111,4.7480283,-1.3678412,1.9697341,-7.1586633,-3.7588966,11.295844
1570715347,-0.58418524,0.47884035,12.004527,4.80875,-1.1419983,0.24501829,2.815581,-8.710106,11.678916
1570715347,-4.0222588,-4.6160207,0.2681506,3.0797734,-0.2119941,0.8991106,-0.6943185,-13.814544,0.9672575
1570715347,-13.666103,-15.653291,9.308656,-1.6022066,-0.57206446,1.6597326,-10.749966,-24.98589,10.0508585
1570715347,0.521936,-8.269572,2.954445,-2.0656106,1.7311075,0.692443,3.0597897,-17.736246,3.1316159
1570715347,4.841076,-2.054225,3.1364043,-3.6102912,1.678908,-0.54330146,7.431602,-11.496957,2.6479871
1570715347,-2.954445,4.7405195,1.1971009,-4.183421,1.8972938,-1.2932705,-0.047884032,-4.5058875,-0.29209262
1570715347,0.10534488,15.351622,16.304514,-5.886831,2.4097016,-1.3092499,3.5817258,6.5505357,13.718776
1570715347,-15.418659,40.648758,10.658986,-4.129091,3.7541063,-5.328615,-10.845734,32.743103,7.07726
1570715347,-17.563864,14.288596,10.381259,-4.276102,1.8578779,-1.571313,-11.712435,7.455544,6.4643445
1570715347,-13.297397,4.1276035,0.05267244,-2.9572642,0.064983115,-1.4211061,-7.1107793,-1.8579005,-4.6399627
1570715347,-8.274361,16.19438,9.749189,-1.5180482,1.7481523,-0.9747467,-1.6567876,10.740389,4.984728
1570715347,3.9839516,7.560889,-8.805874,-1.2368097,-1.015228,-0.28869548,10.7116585,2.3750482,-13.704411
1570715348,18.631678,2.2984335,0.29688102,1.9260569,1.8461596,1.6128596,25.34023,-3.0789435,-4.4101195
1570715348,18.631678,2.2984335,0.29688102,1.9260569,1.8461596,1.6128596,25.34023,-3.0789435,-4.4101195
1570715348,18.631678,2.2984335,0.29688102,1.9260569,1.8461596,1.6128596,25.34023,-3.0789435,-4.4101195
1570715348,18.631678,2.2984335,0.29688102,1.9260569,1.8461596,1.6128596,25.34023,-3.0789435,-4.4101195
1570715348,18.631678,2.2984335,0.29688102,1.9260569,1.8461596,1.6128596,25.34023,-3.0789435,-4.4101195
1570715348,18.631678,2.2984335,0.29688102,1.9260569,1.8461596,1.6128596,25.34023,-3.0789435,-4.4101195
1570715348,18.631678,2.2984335,0.29688102,1.9260569,1.8461596,1.6128596,25.34023,-3.0789435,-4.4101195
1570715348,18.631678,2.2984335,0.29688102,1.9260569,1.8461596,1.6128596,25.34023,-3.0789435,-4.4101195
1570715348,18.631678,2.2984335,0.29688102,1.9260569,1.8461596,1.6128596,25.34023,-3.0789435,-4.4101195
1570715348,18.631678,2.2984335,0.29688102,1.9260569,1.8461596,1.6128596,25.34023,-3.0789435,-4.4101195
1570715348,18.631678,2.2984335,0.29688102,1.9260569,1.8461596,1.6128596,25.34023,-3.0789435,-4.4101195
1570715348,19.982008,1.5849615,5.9519854,2.2264707,2.1071572,1.9793217,25.34023,-3.0789435,-4.4101195
1570715348,4.5154643,-3.5290532,2.7868507,2.1753364,-1.080211,1.6192514,13.077129,-10.754754,2.9831753
1570715348,-8.585608,1.5801731,-5.070919,0.8042992,-2.073068,-0.060721926,-1.1779473,-6.2584434,-8.446744
1570715348,-12.287044,8.149862,4.19943,0.7925809,-0.3813763,-1.1782184,-6.5218053,-0.20111294,0.05746084
1570715348,-21.964407,51.930233,-1.6041151,0.28763017,-3.616683,1.1526513,-4.9943047,32.62818,-6.009446
1570715348,9.969456,-2.4420857,11.013328,1.2240262,0.04261188,0.17044751,13.55597,-2.4516625,6.0525417
1570715348,5.707777,9.279925,1.5275006,3.3045511,-2.080525,0.92148185,13.517663,-6.05733,-1.5945383
1570715348,-17.937359,29.39122,13.9677725,4.2718406,-2.8635182,1.11217,-14.504074,23.69302,9.399636
1570715348,-22.266075,10.089166,15.897499,4.4582677,-0.175774,2.3511102,-18.468872,3.265691,10.783484
1570715348,-4.156334,6.181829,8.939949,4.456137,-1.0887334,1.8418984,-1.9632454,-2.5809495,6.5218053
1570715348,-3.4859576,4.1036615,9.490616,4.424178,-1.4338896,0.6700718,1.8100165,-3.739743,13.211205
1570715348,-5.5641246,-8.0684595,5.9663506,2.7282255,-0.39629045,0.5869786,-2.2409728,-17.286137,6.349423
1570715348,-5.559336,-18.248606,3.8881836,-0.80323386,-0.5986969,1.0567746,-2.4420857,-27.538109,4.271256
1570715348,-0.7613561,-12.162544,2.1308396,-3.580463,1.7502829,0.11185618,2.1404164,-21.523872,1.9393034
1570715348,-0.07182605,5.118803,5.1906295,-4.499814,1.550007,-0.6881818,2.9783869,-4.10845,3.9025488
1570715348,-0.5554548,7.455544,6.7708025,-3.365273,2.2339277,-1.4839586,2.8634653,-1.4891934,4.6591167
1570715348,-4.3957543,23.946806,20.293253,-5.689751,3.2598085,-2.4949255,-0.19632454,15.591042,17.324444
1570715348,-16.950949,61.947575,1.70946,-3.9778187,2.478946,-5.1539063,-11.492168,54.683567,-1.9871874
1570715348,-16.357185,0.7469909,4.0797195,-5.339268,2.124202,-1.668255,-10.390836,4.9464207,-0.92895025
1570715348,-12.6222315,10.132261,12.253524,-1.7896988,1.3529271,-0.8224092,-6.0238113,4.596867,7.551312
1570715348,-3.6487634,14.671668,10.25676,-1.0557092,1.5084604,-0.6157416,0.7134721,8.418014,6.6510925
1570715348,4.381389,6.157887,-14.259866,-0.14381509,-0.09055024,0.74464256,11.267113,1.0534488,-19.024326
1570715348,14.623784,1.6376339,3.1603463,2.2019687,2.3489797,2.2871926,19.053057,-1.6472107,-6.540959
1570715348,5.267244,-8.781932,1.4173675,2.1295285,-1.3529271,1.660798,9.988609,-12.871228,-2.27928
1570715348,-5.9998693,-0.1436521,-3.3375173,0.8948494,-1.9782565,0.20240642,1.8483237,-7.943961,-7.699753
1570715348,-10.280702,6.564901,4.5058875,-0.033024207,-0.37178862,-1.4189755,-3.821146,-1.5275006,0.14844051
1570715348,0.37828386,31.474176,-14.058752,2.4778807,-2.6920054,1.4637179,5.9759274,16.783354,-19.211075
1570715348,-0.29688102,10.524911,10.28549,1.1973938,2.342588,-1.8067436,5.559336,3.8163576,6.181829
1570715348,10.951078,-6.459556,9.514558,0.7041613,-1.8951633,1.1643696,16.76899,-15.279796,4.5441947
1570715348,-11.951855,29.582756,6.83784,4.5402956,-2.0080848,2.92424,-0.30645782,20.752941,3.3183637
1570715348,-13.445837,16.486473,10.6398325,5.0846624,-1.5414847,1.5872924,-6.7851677,9.9790325,6.2249246
1570715348,-10.807426,8.930372,15.313314,4.386893,-1.4999381,2.586541,-9.864111,3.083732,14.480132
1570715348,-0.2681506,4.2281604,13.086706,4.9397817,-1.4083226,0.986465,2.8538885,-5.171476,11.803414
1570715349,-5.9902925,-8.058883,2.9113493,3.4590192,-1.0471869,0.47192654,-2.542642,-14.221559,3.7301662
1570715349,-11.69807,-15.8065195,5.813122,-0.6231987,-0.7350549,0.89271885,-9.102755,-25.871744,6.483498
1570715349,-3.7924154,-5.683835,2.72939,-2.0581536,1.3806248,0.63491696,-2.3223755,-16.864758,4.189853
1570715349,2.6048915,-0.110133275,1.3790601,-3.0851,1.646949,-0.33343795,5.3582234,-10.572795,1.2545617
1570715349,-0.641646,2.0494366,0.6895301,-3.7359962,2.0709372,-0.8905882,3.2609026,-6.861782,2.4660277
1570715349,2.1452048,15.8544035,15.552734,-5.7888236,2.3979833,-0.9406572,5.4683566,2.7389667,9.749189
1570715349,-11.769896,36.990417,9.591172,-3.8585055,3.6795356,-4.8321867,-5.9184666,20.6045,14.432248
1570715349,-15.069105,22.960394,3.691859,-4.3815665,2.8262327,-0.87460876,-6.8569937,32.216377,-5.7604494
1570715349,-16.103401,6.6079965,-0.7038953,-3.0872304,0.56247675,-1.259181,-11.587936,-2.6048915,-5.8226986
1570715349,-6.7947445,13.953407,12.928689,-1.4573262,2.1305938,-0.95450604,-2.207454,7.752425,7.675811
1570715349,1.3694834,6.1243677,-6.564901,-1.0354686,-0.5582156,-0.8309316,7.8529816,1.9919758,-6.4068837
1570715349,13.9198885,5.7365074,-7.431602,1.1846102,1.4040613,0.26419365,20.475212,-0.033518825,-11.880029
1570715349,13.8959465,-5.8226986,14.130578,2.2839966,0.96409374,2.20623,20.384233,-12.167333,10.419566
1570715349,-6.38773,-2.7485435,-3.064578,1.9388404,-2.404375,0.32171968,2.0446482,-9.65821,-5.291186
1570715349,-10.084377,3.715801,-0.20111294,0.39842105,-0.5198649,-1.2527891,-4.1036615,-3.763685,-5.4061074
1570715349,-17.362751,28.112717,9.80665,-0.04900366,-2.7495315,-1.6416225,-11.190498,21.447258,6.0956373
1570715349,9.3661175,12.081141,-5.90889,0.15233746,-1.3412088,-1.3358823,15.658079,5.8466406,-10.113108
1570715349,5.3247046,4.984728,9.773131,2.368155,-0.61467636,1.9388404,11.429919,-1.541866,5.741296
1570715349,-18.133684,27.945122,13.828909,3.3876443,-1.7630664,1.883445,-12.62702,20.66196,10.232818
1570715349,-14.5759,14.164097,11.3964,4.5797114,0.26952013,1.6096637,-9.442732,6.277597,8.614338
1570715349,-9.313444,12.799402,12.483368,4.413525,-1.3721025,3.0574021,-4.9224787,4.2185836,10.649409
1570715349,-4.620809,3.98874,12.65575,4.0183,-0.84904164,1.4317591,-0.94331545,-5.056554,11.765107
1570715349,-2.9783869,1.910573,5.554548,4.156789,-0.70948774,0.6935083,0.47405192,-7.264008,5.78918
1570715349,-8.734048,-18.77533,5.5976434,-0.25673655,-0.77340555,0.965159,-5.506664,-28.01216,6.229713
1570715349,-6.081272,-15.394717,3.5817258,-2.4885337,1.162239,0.37391922,-3.083732,-24.727316,3.7588966
1570715349,0.25378537,-0.80924016,2.0111294,-4.0151043,1.7928947,-0.39629045,3.3135753,-10.103531,1.388637
1570715349,2.9352913,5.8083334,6.220136,-3.7072334,2.0517619,-0.49962425,6.172252,-3.3183637,4.687847
1570715349,4.4244847,8.863335,10.606314,-4.0811524,2.5098395,-1.8632044,8.121132,0.07182605,8.322245
1570715349,-13.244724,32.32651,25.306711,-5.9986873,3.164997,-3.5889854,-8.6813755,24.320301,21.945253
1570715349,-12.765883,36.07104,-8.647857,-4.0726304,1.1995244,-2.3521757,-7.015011,29.156588,-12.555194
1570715349,-14.590265,-0.24420857,4.1036615,-3.2278497,0.04793836,-1.7630664,-8.384495,-6.26802,-0.51714754
1570715349,-12.100295,14.939818,12.852075,-1.610729,1.5436152,-0.7925809,-5.5497594,9.370906,8.130709
1570715349,-1.364695,17.822437,3.3901896,-1.298597,0.84478045,-0.3163932,2.7485435,12.717999,2.1978772
1570715350,5.961562,5.142745,-6.943185,1.2474627,1.6778426,0.9534408,12.727576,-0.21547815,-11.592725
1570715350,20.867863,-3.1411927,12.641385,2.45764,1.8078089,2.3436532,26.910828,-5.913678,3.8067808
1570715350,3.4715924,-4.3382936,0.3878607,2.3042374,-1.7598705,1.241071,12.717999,-12.77546,-0.9624691
1570715350,-10.132261,1.0965444,-3.169923,0.42079228,-1.5127217,-0.5347791,-2.6719291,-7.4028716,-7.5800424
1570715350,-14.475344,10.304645,2.5905263,0.60615396,-0.9917914,-1.2698339,-8.552089,0.46447513,-3.2704794
1570715350,-25.57965,54.118534,-2.882619,-0.33450323,-0.49962425,0.04154658,-28.510155,58.107277,-10.012551
1570715350,13.158532,-6.799533,9.667787,0.74357724,0.0063917814,1.3326864,18.411411,-10.314221,3.4284968
1570715350,-0.41180268,20.54225,3.2513258,3.8361342,-2.7740333,2.3575022,9.524135,8.1881695,-0.0047884034
1570715350,-12.919112,22.304382,9.232041,4.2707753,-2.9466114,1.1015171,-10.299856,18.277336,5.616797
1570715350,-13.148955,13.273455,19.814413,4.3389544,-0.3845722,2.5141008,-11.540052,6.5936313,16.290148
1570715350,-4.012682,5.3582234,11.592725,4.717135,-1.3912778,1.7236505,-1.3215994,-4.831499,9.533711
1570715350,-7.264008,0.5602432,9.605537,4.2313595,-1.9654728,0.50814664,-4.185065,-6.895301,11.018116
1570715350,-10.759542,-12.26789,5.5401826,1.0130974,0.067113705,0.5827174,-5.90889,-19.546263,2.3989902
1570715350,-7.0820484,-12.89517,5.267244,-1.4093878,0.47405714,1.2453321,-6.2009826,-22.476765,5.779603
1570715350,2.873042,-8.226477,3.4332852,-2.7836208,2.2072952,0.36965802,4.1419687,-18.248606,3.1603463
1570715350,3.7110126,2.60968,2.6910827,-4.032149,1.6352308,-0.44103295,6.8282633,-8.585608,3.2944214
1570715350,0.9528923,8.293514,7.589619,-4.1205688,2.3521757,-1.553203,3.169923,-2.2649148,4.1371803
1570715350,-7.680599,23.539791,22.19425,-6.0072093,3.0648594,-2.6611118,-0.94810385,12.220005,14.633361
1570715350,-17.970879,55.78969,4.209007,-2.8358204,3.4238644,-5.951814,-13.029245,48.156975,0.5267244
1570715350,-15.188815,-5.8226986,6.9623384,-4.1269603,-0.38670278,-2.5961287,-10.5919485,-13.278243,3.1316159
1570715350,-15.184027,14.4849205,9.3661175,-2.3255432,1.2698339,-1.3944737,-9.021352,8.528147,4.5920787
1570715350,-3.9360676,18.751389,7.8386164,-1.054644,0.9662243,-0.8660864,2.6384103,13.206416,3.122039
1570715350,2.4229321,5.1906295,-12.603078,-0.5986969,-0.22158176,0.14594568,9.035717,-0.10055647,-17.53992
1570715350,11.903971,0.6895301,3.3662477,2.4128976,1.4754362,1.7886336,18.526333,-5.0134583,-1.0726024
1570715350,8.51857,-7.920019,4.7165775,2.0751984,-0.7084225,1.7172587,14.834474,-14.317327,0.79966336
1570715350,-6.2632318,-2.111686,-3.596091,0.8362581,-1.406192,-0.07883197,-0.22026655,-8.810662,-7.4363904
1570715350,-10.721235,5.171476,3.5290532,0.33769912,-1.1281495,-1.1707613,-4.630386,-1.4173675,-0.4309563
1570715350,-36.870705,66.92751,0.05746084,0.18536167,-1.6799732,-1.5414847,-30.837318,60.482323,-4.2185836
1570715350,11.549629,-5.3486466,2.0829554,0.4495553,-0.56673795,0.8277357,17.549498,-11.750742,-2.2888567
1570715350,-4.5298295,24.847025,10.060435,4.2164454,-0.9118942,2.0528271,1.0534488,17.836803,6.081272
1570715350,-13.843274,20.298042,4.6495395,4.2004657,-2.6270223,1.5702477,-8.896853,12.559982,1.1971009
1570715350,-16.788143,7.795521,16.371552,4.2420125,-0.96835494,2.554582,-12.445061,-0.63206923,13.8720045
1570715350,-3.6248214,4.654328,9.600749,4.213249,-0.96302843,2.3340657,-0.023942016,-4.3382936,8.082825
1570715351,-5.415684,3.3039982,12.095507,4.5434914,-1.5936842,0.4548818,-2.1452048,-5.9280434,11.626244
1570715351,-5.506664,-7.6710224,2.006341,2.5961287,-0.092680834,0.25460598,-3.0693667,-13.153744,1.9057846
1570715351,-8.154651,-14.810532,5.7843914,-1.4935462,0.13635801,1.1707613,-5.1762643,-24.147919,5.9902925
1570715351,1.163582,-10.927136,2.815581,-2.6781566,1.930318,0.25886714,3.8977604,-20.33635,2.5187001
1570715351,3.122039,3.5242648,2.4756045,-4.1226993,1.940971,-0.7414467,6.0285997,-5.765238,1.3024458
1570715351,1.5705963,8.465898,6.7133417,-3.8467872,2.2946496,-1.5723783,4.510676,-2.2457612,2.1164744
1570715351,-3.4715924,18.26776,18.301277,-5.559785,2.213687,-2.3468492,3.1507695,7.0006456,13.8480625
1570715351,-17.238253,52.715534,7.297527,-2.9945498,3.1447566,-5.7025347,-11.587936,35.07984,6.71813
1570715351,-16.065094,-1.8818425,4.8602295,-4.936586,0.2737813,-1.636296,-9.121908,-2.5713725,3.7493198
1570715351,-17.152061,14.082694,8.7292595,-2.8241022,2.0858514,-0.79045033,-12.373235,4.9081135,-0.23942018
1570715351,-5.104438,15.20797,8.647857,-1.2517239,1.3337518,-0.29934844,-0.4213795,9.931149,5.7269306
1570715351,1.0247183,3.1747115,-8.925584,-0.25886714,0.7084225,0.23436533,6.943185,-0.47884035,-12.713211
1570715351,16.146496,0.9672575,3.6870706,1.7747847,1.6639938,1.9633423,20.288465,-3.0789435,-3.0262709
1570715351,9.260772,-4.9320555,4.7309427,1.7950253,-0.66794115,1.9718646,19.689915,-12.181698,5.386954
1570715351,-6.2249246,1.1492168,-4.654328,0.93426543,-1.9356445,0.20240642,2.0973208,-5.9663506,-7.752425
1570715351,-12.038046,7.441179,3.3614593,0.351548,-1.2101773,-1.0333381,-5.0661306,-0.7422025,-0.62728083
1570715351,-35.47728,57.800816,-2.743755,0.026632423,-2.4384646,-0.92680836,-24.296358,42.597637,-0.24899697
1570715351,14.33648,-0.4309563,0.8331822,0.54117084,-0.3824416,0.5443667,18.722658,-3.739743,-4.8267107
1570715351,-1.163582,20.829556,9.849746,4.097132,-1.8259189,2.450183,9.902418,9.763555,3.0885203
1570715351,-14.480132,19.70428,6.2967505,4.6777186,-3.4707375,0.5230608,-10.362105,14.15452,4.0940847
1570715351,-18.918982,12.579136,15.988479,4.598887,-0.8937841,2.095439,-14.374787,5.142745,14.283808
1570715351,-8.154651,5.746084,10.740389,4.675588,-1.0642316,2.3585675,-4.534618,-2.6048915,9.983821
1570715351,-6.4643445,1.7812861,11.224017,4.8279257,-0.8021686,0.3419603,-3.2130187,-6.7947445,10.7356
1570715351,-4.6926355,-9.260772,3.4284968,2.4437912,0.53904027,0.22690825,-2.1930888,-15.514427,1.9632454
1570715351,-4.9799395,-13.948619,4.1036615,-2.0006278,-0.29615256,1.5404193,-2.2122424,-24.267628,5.425261
1570715351,-0.7661445,-8.576031,2.1691468,-2.6983972,0.7840586,1.474371,1.958457,-17.990032,2.327164
1570715351,1.0199299,0.8810662,3.6583402,-3.9170969,1.571313,-0.6540923,3.7780502,-10.31901,2.3080103
1570715351,0.6751649,6.6271505,4.2999864,-3.3184,1.2123079,-1.1260189,3.6391866,-2.585738,2.7341783
1570715351,2.3702598,14.796166,7.6949644,-4.219641,1.9601463,-2.360698,5.9902925,5.971139,5.410896
1570715351,-16.19917,34.146103,23.865402,-5.4436674,3.1671278,-3.472868,-6.459556,21.011515,26.020184
1570715351,-17.81286,11.654974,-5.3965306,-5.018614,2.0443048,-2.0464354,-12.148179,4.673482,-9.313444
1570715351,-14.360422,3.3614593,13.613431,-1.7268463,1.0855376,-1.7225852,-8.034941,-2.7581203,9.284714
1570715351,-8.671799,14.877569,10.007763,-1.3806248,0.936396,-1.1025823,-0.062249243,9.188946,5.6359506
1570715351,7.153875,12.689269,-4.256891,-1.797156,-0.5528891,-0.33237264,13.996503,7.3645644,-8.834604
1570715352,8.365341,6.229713,-10.984597,0.39948636,0.8042992,1.3039235,13.718776,0.78529817,-17.654844
1570715352,13.053187,-9.514558,16.43859,2.4981213,1.1633042,2.3298044,20.058622,-12.344504,7.905654
1570715352,-1.8148049,-3.86903,1.6136919,1.1867408,-1.3880819,0.5017549,6.8809357,-11.204864,-0.7182605
1570715352,-11.085154,4.0174704,-2.6001031,0.19814523,0.067113705,-0.5859133,-4.912902,-2.4277205,-6.6654577
1570715352,-8.901642,27.02575,7.0724716,2.27867,-2.6920054,-0.46233886,-3.0789435,11.482592,0.770933
1570715352,-6.9383965,13.220781,-2.4516625,0.3472868,0.19388404,-0.9747467,-11.45865,22.237345,-10.290278
1570715352,10.271125,3.4811692,9.26556,2.1433775,-0.71907544,0.8905882,16.333244,-9.509769,2.992752
1570715352,-9.509769,26.45114,-0.59376204,4.5552096,-2.2413847,2.4746847,2.1643584,19.713858,-3.4237084
1570715352,-17.961302,12.995727,16.2279,5.298787,-2.3575022,0.50068957,-11.616667,6.7564373,12.923901
1570715352,-11.195287,6.71813,12.540829,4.1812906,-1.3252294,2.7292907,-9.390059,-1.2162545,14.987702
1570715352,-8.149862,2.7629087,10.022128,3.9064438,-0.7968421,1.2474627,-4.582502,-5.626374,11.377247
1570715352,-4.5681367,2.030283,5.4300494,3.8936603,-0.31106672,1.0194892,-2.528277,-8.1642275,6.631939
1570715352,-4.582502,-15.26543,7.675811,-0.5880439,-0.03089361,1.7588053,-0.11971009,-22.155943,9.797073
1570715352,-0.78050977,-14.528016,3.4141316,-2.2445807,0.85756403,0.9289389,0.33518824,-24.851814,3.1794999
1570715352,1.3072342,-4.4963107,2.6048915,-3.8957908,1.8898368,-0.7222713,4.060566,-15.705963,2.1164744
1570715352,1.8914193,6.3685765,5.722142,-3.683797,1.8205925,-1.3326864,4.9943047,-3.3039982,2.3080103
1570715352,1.7956513,9.059659,10.606314,-3.9053786,2.6653728,-2.378808,3.9312792,-1.8435353,6.9479733
1570715352,-14.255077,32.12061,24.478317,-5.451124,3.1298423,-3.5687447,-5.93762,18.239029,27.576416
1570715352,-13.819332,28.998571,-5.889736,-4.5807767,1.2432015,-1.8940979,-7.0964136,47.4435,-8.331821
1570715352,-17.942148,2.8443117,5.779603,-3.591116,0.4559471,-1.7417605,-11.597513,-6.799533,-1.0821792
1570715352,-11.482592,11.956643,10.472239,-1.4179102,1.6980833,-0.7563608,-5.6646814,6.9767036,7.40766
1570715352,3.016694,13.8959465,-1.3120226,-1.8983592,0.29615256,-0.37178862,7.350199,9.868899,-1.7621324
1570715352,9.485827,5.473145,-5.9663506,1.406192,1.3987349,0.89698005,13.656527,0.9624691,-14.417883
1570715352,13.110648,-4.510676,14.015656,1.9697341,1.6085984,2.7250295,23.21418,-7.819463,8.465898
1570715352,-1.8291701,-2.7389667,-2.8778305,1.6341655,-1.2240262,1.2474627,6.3542113,-10.012551,-4.745308
1570715352,-8.968679,2.753332,-2.4612393,0.22903883,-0.33769912,-0.6455699,-2.815581,-4.209007,-7.5944076
1570715352,-6.766014,14.590265,5.353435,0.81282157,-0.9001759,-1.1558472,-2.6671407,3.691859,2.1068976
1570715352,-18.018763,40.260895,-1.3599066,-0.5305179,-1.1143006,0.39096397,-14.949395,47.170563,-4.711789
1570715352,6.1195793,-5.1762643,10.218452,1.022685,-0.13635801,0.4836448,12.253524,-10.433931,2.9161377
1570715352,2.6862943,20.020315,2.2361844,2.780425,-2.2051647,1.5574641,8.451532,13.067553,-1.5849615
1570715352,-16.318878,24.147919,8.312668,4.0204306,-2.3724163,1.8259189,-11.291056,16.429012,4.936844
1570715352,-19.330784,13.354857,14.705187,3.8148284,0.26206306,1.8632044,-14.738706,5.0374002,12.258312
1570715352,-4.175488,6.5936313,10.721235,4.3719788,-1.316707,2.554582,-0.2777274,-2.2697031,9.184157
1570715353,-1.5227122,2.4708161,8.791509,4.73631,-1.2400056,1.14839,1.9009962,-6.7085533,8.408437
1570715353,-9.514558,-14.446613,2.4756045,1.6618632,0.08202787,0.93426543,-6.3685765,-23.72175,2.9735985
1570715353,-7.0964136,-12.943054,5.9807158,-1.062101,-0.29508725,1.4296285,-4.2664676,-22.323536,6.3589997
1570715353,0.5650316,-5.865794,3.892972,-2.4342034,1.7129974,-0.05219955,3.1842883,-15.313314,3.845088
1570715353,1.6472107,2.432509,5.995081,-3.5740712,1.5041993,-0.7808626,4.43885,-6.9288197,5.1475334
1570715353,2.408567,8.307879,5.889736,-4.171703,2.2594948,-1.6767774,5.6215854,-0.79008657,4.1659107
1570715353,-3.7253778,26.173412,20.403387,-5.785628,2.4650972,-2.160422,0.02873042,17.606958,17.448942
1570715353,-14.025233,55.45929,0.23463176,-3.185238,2.9316971,-5.675902,-8.791509,47.960648,-3.3135753
1570715353,-18.392258,-9.423578,10.280702,-3.39084,0.868217,-2.0709372,-12.354081,-16.060305,6.325481
1570715353,-15.466543,8.432379,9.595961,-2.7186377,1.6458838,-1.0035098,-9.069236,2.4516625,5.171476
1570715353,-1.757344,17.123331,8.882488,-0.8138869,0.85330284,-0.6615494,4.9799395,11.559206,4.4340615
1570715353,2.1787236,6.6606693,-15.270219,-1.5393541,-0.58058685,0.22690825,8.863335,1.3263878,-20.03468
1570715353,13.211205,3.9312792,-0.01436521,1.912208,2.500252,1.7843723,17.468096,-0.51235914,-8.911219
1570715353,10.94629,-5.755661,11.745954,2.5268843,-0.49749365,2.0933084,20.42254,-12.176909,13.417107
1570715353,-3.9264908,-0.11492168,-4.927267,1.3870167,-2.0155418,0.487906,4.6255975,-7.809886,-7.216124
1570715353,-10.251971,4.841076,3.6152446,1.0525134,-0.60934985,-1.004575,-3.6631286,-3.122039,-2.1978772
1570715353,-15.049952,31.502907,3.4476504,1.1260189,-4.581842,-0.27165073,-4.735731,16.079458,-0.545878
1570715353,4.1706996,8.336611,2.1739352,0.70203066,0.6200028,-0.9406572,4.146757,11.200075,-2.801216
1570715353,6.081272,-5.4922986,9.524135,1.7055404,-1.3294905,1.0194892,14.293385,-15.83525,6.8761473
1570715353,-16.55351,29.678524,8.829816,3.5687447,-2.109288,1.5883577,-4.381389,17.113754,3.0071173
1570715353,-14.135366,18.100164,9.3421755,5.026071,-0.24821419,2.1114185,-10.658986,14.15452,3.892972
1570715353,-6.8282633,7.651869,12.703634,3.8617015,-1.2144386,2.3468492,-4.7644615,-1.4460979,13.263878
1570715353,-4.0892963,2.2840683,13.76666,4.264384,-1.1782184,0.9790079,-0.40701428,-6.8665705,12.339716
1570715353,-5.2002063,-3.5051112,3.265691,3.5953772,-0.936396,0.56354207,-1.9632454,-9.433155,4.5298295
1570715353,-7.7907324,-15.547946,4.2999864,-0.653027,-0.5901745,1.1643696,-4.9655743,-24.329878,6.133945
1570715353,-3.3806129,-10.414778,3.265691,-2.138051,1.2463974,0.58484805,-1.484405,-21.475988,4.0222588
1570715353,1.8339585,-1.4987702,2.360683,-3.545308,1.8877062,-0.45807767,4.036624,-12.454638,1.364695
1570715353,0.06703765,3.9743748,2.111686,-3.845722,2.2371235,-0.7659485,3.86903,-5.4539914,0.9959879
1570715353,1.5993267,10.85531,11.592725,-5.0239406,2.648328,-0.6029581,5.142745,1.9728222,9.414001
1570715353,-11.789049,36.990417,11.152191,-4.279298,3.0574021,-4.624454,-6.205771,21.14559,19.325996
1570715353,-13.431472,38.06302,-5.386954,-3.6507726,3.1586053,-3.0584674,-7.800309,30.92351,-9.064447
1570715353,-12.430696,6.7372837,4.8027687,-2.8091881,-1.2655728,-1.5521376,-6.813898,-4.237737,3.7014358
1570715353,-8.959103,15.691598,8.925584,-1.8237884,1.2623769,-0.7851238,-2.5570073,9.797073,4.3957543
1570715354,0.35913026,13.55597,-0.1388637,-1.4477385,-0.046873067,0.0085223755,6.909666,7.9104424,-4.7644615
1570715354,3.2321723,4.1515455,-6.813898,0.77447087,1.2794216,0.8714129,9.720459,-1.4939818,-11.51611
1570715354,12.674904,-4.596867,10.084377,2.195577,0.71481425,1.9644076,19.077,-10.807426,6.0142345
1570715354,2.078167,-1.7381904,-0.79966336,1.1899366,-1.043991,1.1633042,8.101978,-8.461109,-4.620809
1570715354,-4.9176903,4.841076,-0.770933,0.3494174,-0.96302843,-0.29295665,0.90021986,-2.0015526,-4.697424
1570715354,-4.2521024,18.373104,0.80924016,0.53904027,-2.389461,-0.07244019,1.5131354,11.57836,-3.2848446
1570715354,-19.85272,37.06703,1.9919758,-0.29295665,-0.2109288,-1.0951252,-14.465767,30.162153,-2.4229321
1570715354,8.978256,-9.136273,14.676456,1.3252294,-0.7180101,-0.2759119,14.60463,-16.04594,10.58716
1570715354,-0.40701428,24.727316,-2.8682537,3.3492935,-1.4701098,0.92680836,4.9081135,17.520767,-6.871359
1570715354,-11.056423,22.34269,12.35887,4.546687,-3.5314593,1.3731678,-6.301539,14.518439,8.839393
1570715354,-21.514296,8.839393,15.729905,4.5541444,-0.7627526,1.697018,-16.601395,1.4796166,11.066
1570715354,-2.9113493,12.521675,11.128249,4.582907,-0.8767394,2.0720026,0.61291564,3.4955344,9.610326
1570715354,-7.1395097,1.4077905,12.435484,4.3283014,-1.7513481,0.78725445,-3.9743748,-7.8625584,11.96622
1570715354,-7.326257,-8.734048,3.8259344,2.3468492,-0.43464115,0.46660006,-4.3382936,-18.066647,4.213795
1570715354,-9.629479,-14.18325,3.8881836,-1.0514481,-0.05219955,1.1867408,-6.83784,-23.57331,4.271256
1570715354,-1.3742718,-9.706094,1.6711528,-2.6035857,2.1124837,0.6114804,1.1013328,-19.191921,1.5897499
1570715354,2.5234885,-1.2306197,4.2999864,-3.9043133,2.016607,0.0,4.429273,-12.765883,2.858677
1570715354,-0.14844051,5.0421886,2.815581,-3.9906023,2.4725542,-0.5443667,3.4811692,-4.0653543,2.2218192
1570715354,0.7278373,16.481684,13.857639,-5.6268983,2.648328,-0.9065677,6.215348,5.5976434,10.007763
1570715354,-12.20564,43.22492,8.058883,-3.918162,3.2044132,-5.4021206,-6.172252,26.858154,9.184157
1570715354,-17.21431,8.556877,8.236053,-3.9469252,2.6738954,-1.9281875,-10.879252,19.383457,-5.0517654
1570715354,-15.32768,7.086837,7.6614456,-2.1849241,-0.2801731,-1.6022066,-9.179369,-2.2361844,1.8291701
1570715354,-6.943185,16.275784,7.5944076,-1.2133732,0.8671517,-0.9459837,-2.2170308,10.084377,3.3135753
1570715354,3.0454245,9.524135,-6.3111157,-1.2229608,-0.73185897,-0.16085984,9.481039,7.28795,-7.3310456
1570715354,9.232041,1.9776106,-0.15801731,1.9399058,1.7119322,1.1782184,13.541605,-3.3423057,-7.565677
1570715354,9.974244,-7.6949644,9.23683,2.1295285,0.15766394,1.8376372,17.913418,-13.565547,6.631939
1570715354,-1.685518,-1.8531121,-1.4317327,0.8980453,-1.2549198,0.42824936,6.2345014,-9.255983,-3.9743748
1570715354,-9.557653,4.1802764,1.8962077,0.26312834,-0.46873066,-0.8948494,-2.3894134,-3.4284968,-3.763685
1570715354,-9.849746,33.968933,3.1268275,1.4253674,-3.498435,0.120378554,-1.1779473,18.550274,-1.8243817
1570715354,8.78672,7.6231384,6.703765,0.50495076,0.01065297,-0.19388404,10.314221,12.229582,1.0103531
1570715354,2.9831753,10.783484,-2.2457612,2.4736195,-2.1305938,0.95024484,9.662998,-4.3957543,-6.4068837
1570715354,-11.420342,27.61951,12.176909,4.058781,-2.898673,0.3877681,-5.78918,18.435352,7.153875
1570715354,-21.107283,13.067553,18.2917,5.3861413,-0.9907262,1.3422742,-13.814544,7.0964136,11.99495
1570715354,-9.3421755,5.4922986,8.403648,4.6905026,-1.1601083,2.7612495,-7.8625584,-3.2609026,8.963891
1570715355,-9.3182335,4.003105,14.96376,4.2856894,-1.0567746,1.0258809,-4.2664676,-2.743755,14.360422
1570715355,-4.936844,-1.1827357,8.820239,3.2374375,-1.460522,0.8138869,-1.9728222,-10.529699,8.844181
1570715355,-1.2401965,-14.255077,3.6631286,0.56993383,0.0074570784,1.1963284,1.4077905,-23.678656,4.185065
1570715355,-5.2768207,-16.294937,3.4715924,-2.160422,0.82880104,0.6189375,-2.8874073,-25.799917,3.691859
1570715355,-2.1404164,-3.4763808,4.5154643,-4.2249675,1.9505587,-0.03728539,0.20590134,-12.971785,3.821146
1570715355,0.81402856,9.184157,4.309563,-3.3737955,1.8866409,-0.38883337,3.2752678,-0.16280572,2.657564
1570715355,2.4372973,19.498379,12.832921,-5.1283393,2.8475387,-0.53904027,5.2624555,10.457873,10.295067
1570715355,-6.8809357,19.560627,11.334151,-3.6933844,3.6443808,-3.4100156,-3.3327289,11.123461,7.8050976
1570715355,-11.525687,40.026264,4.060566,-4.3602605,3.9224234,-3.6848621,-6.38773,32.63297,0.15801731
1570715355,-14.173674,5.2480903,3.2752678,-2.9753745,-2.0400436,-2.4810765,-8.446744,-1.1971009,-1.3982137
1570715355,-11.678916,17.319654,6.411672,-1.9058162,1.7598705,-1.2037855,-5.60722,11.439496,1.436521
1570715355,0.4309563,11.563994,-3.083732,-1.7843723,0.029828314,-0.36113566,6.813898,6.081272,-8.121132
1570715355,11.48738,3.083732,-1.6519991,1.5116564,1.2996622,0.6913777,17.884687,-2.4372973,-6.622362
1570715355,14.987702,-5.5401826,13.709199,2.4640317,1.406192,2.1657486,21.279665,-11.712435,9.414001
1570715355,-0.78529817,-3.8881836,-2.4947581,1.772654,-1.6661245,0.79151565,5.133168,-10.606314,-6.4882865
1570715355,-9.193734,3.0693667,-0.21547815,0.56780326,-0.9406572,-0.63065577,-3.442862,-3.739743,-4.3047748
1570715355,-2.4756045,23.784,-0.90979666,1.7257811,-2.859257,-0.33024204,3.241749,16.989256,-5.0661306
1570715355,-30.128633,52.854397,0.81881696,-0.0692443,-2.2222095,0.67539823,-15.049952,35.08942,-4.3478703
1570715355,8.925584,-3.1603463,17.48725,1.9622769,-0.95876724,-0.243953,12.454638,-4.7022123,12.698846
1570715355,4.1515455,8.887277,-2.0494366,3.386579,-1.9452322,0.65089643,14.207192,-3.5865142,-5.21936
1570715355,-14.30775,28.505365,16.299725,4.300604,-4.4880958,1.5574641,-10.304645,21.08334,18.11453
1570715355,-18.344374,9.533711,16.831238,2.9189136,-0.0074570784,3.1873684,-17.78892,6.694188,16.40507
1570715355,-1.0534488,4.7309427,11.587936,4.828991,-1.1675655,1.0333381,1.3742718,-5.2959743,9.030929
1570715355,-2.7868507,0.2777274,9.964667,3.9906023,-2.0783944,-0.25141007,0.6847417,-7.9726915,9.89763
1570715355,-6.933608,-10.199299,5.21936,1.1867408,-0.50921196,-0.18855755,-2.0159178,-17.836803,1.5562311
1570715355,-8.298303,-9.859323,3.8977604,-1.1654348,-0.050068956,0.9726161,-6.373365,-19.876663,5.21936
1570715355,0.46926352,-7.651869,1.8866309,-2.3766775,2.0208683,0.5912398,2.4420857,-17.367538,0.641646
1570715355,2.6767175,-1.6328455,3.6870706,-3.6369238,1.815266,-0.2759119,5.554548,-11.87524,3.4045548
1570715355,1.8531121,3.3566709,7.795521,-4.086479,2.2222095,-1.277291,4.654328,-7.015011,3.7205894
1570715355,-5.267244,24.085669,20.202274,-7.7617536,2.7644455,-1.6757121,3.3423057,12.042834,13.455414
1570715355,-16.678009,53.706734,-0.51714754,-3.2875063,2.7037237,-5.6162453,-10.055647,41.496304,3.7972038
1570715355,-17.324444,-13.584701,12.339716,-5.0676174,0.87460876,-1.3017929,-10.840945,-7.819463,10.13705
1570715355,-19.699492,16.55351,9.830592,-3.185238,2.486403,-1.11217,-13.838486,6.0956373,1.1252748
1570715356,-6.50744,15.629349,-1.4317327,-2.3660245,1.3635801,0.47831833,-0.9911995,16.663643,-0.8858546
1570715356,3.4093432,3.107674,-6.26802,0.62213343,1.9580158,0.8277357,7.383718,-0.6895301,-14.523228
1570715356,17.669209,-0.35913026,10.644621,2.3191514,2.26056,2.6142387,24.641125,-5.5258174,5.4300494
1570715356,9.461885,-4.3382936,2.183512,2.3116944,-0.23116943,1.8323107,16.098612,-10.58716,-1.4269443
1570715356,-4.003105,0.8331822,-2.5809495,2.1838586,-2.1028962,-0.07137489,2.3175871,-5.827487,-6.0142345
1570715356,-8.12592,4.0078936,4.6112323,0.351548,-1.9814523,-1.2815522,-1.8148049,-2.5761611,1.0007763
1570715356,-30.98097,41.03183,0.7278373,-0.12890093,-4.664935,-0.64770055,-24.894909,34.562695,-3.4332852
1570715356,11.415554,-1.4077905,4.9464207,0.243953,-0.7755362,-0.50495076,15.251065,-3.8594532,-0.30166942
1570715356,2.1308396,2.7102363,0.92895025,2.0613496,-1.1856755,1.277291,8.240842,-3.6152446,-3.3997664
1570715356,-22.117636,29.266722,6.277597,3.3642077,-2.18812,1.259181,-16.452953,22.203827,2.4947581
1570715356,-11.295844,16.625336,15.231912,3.6656868,0.3185238,2.1945117,-6.019023,8.949526,12.157756
1570715356,-5.1523223,10.682928,12.512098,4.0875444,-1.0258809,2.6824176,-0.5554548,2.3127987,10.25676
1570715356,-6.6415157,6.0621185,9.998186,4.477443,-1.1654348,1.287944,-2.6192567,-2.7868507,8.710106
1570715356,-4.6255975,-1.3311762,4.3382936,4.429505,-0.8607599,0.9332001,-0.8571242,-10.381259,4.2425256
1570715356,-8.288726,-11.640609,8.307879,0.85330284,-0.29189137,0.7563608,-4.7405195,-20.767305,8.839393
1570715356,-3.4955344,-12.919112,4.879383,-1.4008654,0.52519137,1.1281495,-0.23942018,-22.16073,5.209783
1570715356,1.6663644,-7.9487495,2.9017725,-3.2235885,1.4562609,-0.21305938,4.8123455,-17.233463,2.7006595
1570715356,0.90979666,5.741296,4.213795,-3.7700858,0.9438531,-0.7371855,4.237737,-3.4093432,3.074155
1570715356,2.6192567,10.022128,7.1730285,-3.9011173,2.7324867,-1.6693203,6.3542113,1.1587936,5.2528787
1570715356,-7.455544,20.527885,24.353819,-6.211746,3.7871306,-1.8898368,-3.1411927,12.23437,21.38501
1570715356,-17.884687,63.03933,0.20590134,-4.331497,2.9530032,-4.5914297,-12.325351,55.84236,-3.4715924
1570715356,-15.969325,-11.444284,9.849746,-4.380501,0.22264706,-2.3756123,-9.739613,-17.693151,5.568913
1570715356,-13.867216,14.240712,14.518439,-2.9998763,1.8919674,-0.9917914,-7.326257,8.6813755,9.773131
1570715356,-3.7014358,18.602947,5.1475334,-1.6703856,1.8216578,-0.62213343,1.1252748,13.733141,1.7525556
1570715356,1.8579005,5.12838,-6.6510925,-1.5159175,0.040481284,0.21412468,9.227253,2.3415294,-8.384495
1570715356,7.565677,-0.05267244,-0.78050977,1.5563989,1.8983592,2.1188755,12.919112,-5.070919,-6.909666
1570715356,14.4130945,-5.9663506,7.627927,2.4373994,0.8383887,3.0797734,20.30283,-11.161768,4.1132383
1570715356,2.566584,-3.5242648,-2.566584,2.762315,-1.0056403,1.6906263,10.994174,-11.999739,-4.003105
1570715356,-9.26556,0.009576807,3.1172507,-0.0010652969,-0.011718267,-0.31532788,-2.0925324,-8.346188,-3.1890767
1570715356,-11.444284,11.731588,8.643068,-1.1750225,-0.83306223,-1.7321728,-5.070919,0.6751649,5.8466406
1570715356,-27.016172,53.86475,-16.381128,-1.5446806,-1.7896988,-2.6536546,-50.105854,93.1536,-21.528662
1570715356,18.215086,-11.568783,5.305551,-1.043991,1.1494554,0.32704616,26.09201,-9.911995,-3.6296098
1570715357,-2.6623523,17.458519,1.8291701,2.7175725,-1.0397298,2.8091881,10.160992,3.7110126,0.7278373
1570715357,-2.6623523,17.458519,1.8291701,2.7175725,-1.0397298,2.8091881,10.160992,3.7110126,0.7278373
1570715357,-25.61317,36.02316,5.7029886,2.142312,-1.287944,2.3575022,-14.738706,26.326641,2.1643584
1570715357,-12.751518,7.489063,7.0245876,1.3209682,0.33343795,2.4278116,-8.858546,3.2704794,1.3838485
1570715357,-2.896984,1.3742718,10.290278,2.2467113,-1.6171207,2.2914536,0.46447513,-6.670246,8.159439
1570715357,-3.8307228,5.0182467,7.560889,2.5300803,-1.2506586,0.8522375,1.7525556,-4.0797195,5.0421886
1570715357,-6.703765,2.5139117,3.217807,3.1170588,-1.6213819,0.4474247,-3.4332852,-4.960786,0.51235914
1570715357,-5.645528,-6.6893997,1.2880806,0.8905882,-0.3163932,0.818148,-3.098097,-15.696386,-0.51714754
1570715357,1.7286136,-13.972561,5.3821654,-0.16725162,-0.8650211,1.3476006,3.8402996,-21.341913,2.695871
1570715357,3.0214825,-9.433155,0.15322891,-1.4402815,0.3898987,-1.3987349,7.177817,-21.887793,-0.9576807
1570715357,0.56982,4.7070007,3.3806129,-1.940971,-0.023436533,-2.507709,4.4196963,-5.080496,0.22026655
1570715357,1.163582,13.010092,10.764331,-2.766576,-1.6757121,-2.8070574,7.091625,3.1028855,5.45878
1570715357,-30.645782,46.466667,18.32043,-2.921044,0.99711794,-3.9756882,-17.78413,33.83007,22.692244
1570715357,-17.338808,32.59466,-21.509508,-3.272592,-1.0503827,-2.0251296,-11.535264,26.283546,-26.27397
1570715357,-17.27177,-15.619772,9.217676,-3.2416985,0.74890375,-1.2677033,-11.267113,-19.407398,-2.1499932
1570715357,-10.644621,8.571242,12.26789,-0.07457078,0.8564987,-1.6959528,-4.31914,3.490746,6.751649
1570715357,-1.6376339,17.199945,4.3718123,-0.16938221,-0.034089502,-0.74890375,5.0421886,12.330139,-0.90021986
1570715357,7.8050976,10.7356,-6.799533,-0.92041653,0.5528891,0.028763017,14.542381,6.0716953,-12.186486
1570715357,10.453085,5.104438,2.2697031,0.3462215,0.50708133,2.9050648,17.03714,0.15801731,-3.0502129
1570715357,0.8810662,-14.72434,11.099519,3.4707375,-3.2427638,2.1028962,6.766014,-20.551826,5.851429
1570715357,-8.5473,-5.195418,0.50757074,1.1675655,0.8298663,-1.1451942,-2.896984,-11.429919,-4.5298295
1570715357,-13.024457,3.0454245,8.499416,-0.7371855,0.9278736,-1.9878441,-6.7851677,-2.801216,3.691859
1570715357,-14.499286,17.946936,8.614338,-1.180349,-3.5889854,-0.8064298,-8.485051,12.382812,3.217807
1570715357,6.1100025,23.472754,19.876663,-2.8784323,4.0555854,-0.98007315,12.603078,18.598158,14.379576
1570715357,0.63206923,9.514558,7.7332716,0.30041373,0.7691444,2.5599086,7.019799,4.8458643,1.9393034
1570715357,-10.635044,11.281479,-1.2737153,2.0421743,-2.160422,0.70948774,-4.697424,5.827487,-6.8569937
1570715357,-7.7428484,12.459426,6.459556,0.99285674,0.47405714,0.07244019,-1.8674773,6.8282633,0.9816227
1570715357,-3.7684734,7.441179,8.1642275,1.6085984,-0.37285393,1.2932705,1.9776106,1.4700398,2.9161377
1570715357,-1.460463,9.691729,7.038953,1.9004897,-0.51666903,1.9526893,3.9073372,3.1507695,2.078167
1570715357,-4.4580035,8.283937,6.291962,2.2669518,-0.64450467,2.0602844,0.39264908,1.1204864,1.6711528
1570715357,-5.9807158,2.0254946,8.734048,1.9782565,-0.7797974,1.3721025,-1.6184803,-5.659893,4.4819455
1570715357,-0.8619126,-1.8579005,9.02614,1.54255,-1.959081,0.8820659,3.0789435,-9.892841,5.0182467
1570715357,-2.801216,-1.3694834,1.532289,0.7648832,-1.4711751,0.5976316,1.7429788,-9.44752,-0.6464345
1570715357,-2.60968,1.4269443,0.7374141,0.70629185,-0.33024204,-0.5262567,0.7326257,-7.153875,-4.1276035
1570715357,-3.4093432,2.4468741,1.2401965,0.5486279,0.41440052,-0.7755362,0.6607997,-6.1100025,-2.4229321
1570715358,-3.2944214,14.369999,-0.5793968,-0.8277357,1.3678412,-0.43783703,0.45968673,2.7389667,-4.0892963
1570715358,-4.960786,21.820755,9.691729,-2.4097016,0.7180101,-1.0258809,-1.3455414,14.633361,5.861006
1570715358,-9.768343,19.038692,-0.50278234,-2.1678793,0.9033718,-1.0951252,-3.8833952,12.253524,-5.023035
1570715358,-11.602302,8.973468,4.3287168,-1.8067436,1.1537166,-0.2801731,-6.9000893,2.7868507,-0.7661445
1570715358,-8.571242,8.307879,5.171476,-0.9672896,0.56247675,-0.57952154,-3.8259344,1.2018893,0.272939
1570715358,-4.55856,9.787497,4.817134,-0.35367858,0.3419603,-0.7371855,-0.23463176,2.9831753,0.81881696
1570715358,-0.8762778,10.510546,-0.5410896,-0.44849002,1.2890093,-0.43357584,4.3957543,4.2760444,-4.510676
1570715358,-3.6870706,7.61835,1.6807296,-0.243953,1.7396299,-0.25141007,2.954445,1.7621324,-5.683835
1570715358,-4.343082,8.078036,5.1475334,0.14807628,0.839454,0.14274979,1.8626889,1.4413095,0.30645782
1570715358,-4.367024,10.979809,3.394978,0.23543063,-0.0074570784,0.5997622,1.5993267,4.036624,-0.19632454
1570715358,-2.815581,9.002198,1.8339585,0.18216577,0.6615494,1.8525513,3.0023289,2.3223755,-2.3702598
1570715358,-6.172252,7.297527,3.5242648,1.2762257,0.58484805,2.6994624,-0.32561144,-0.7565677,-1.0582372
1570715358,-7.920019,8.274361,4.0797195,1.1782184,0.5731298,2.1646833,-2.8491,0.40222588,0.47405192
1570715358,-7.062895,7.776367,4.6686935,0.43144527,0.60189277,1.6458838,-2.7485435,-0.10534488,1.5993267
1570715358,-5.8226986,9.030929,4.4675803,-0.16085984,0.117182665,1.5958148,-1.757344,0.15801731,1.7860745
1570715358,-5.9902925,11.884817,1.484405,-0.8980453,0.4133352,1.7801112,-2.27928,3.41892,-1.7908629
1570715358,-7.1155677,9.998186,5.659893,-1.2517239,0.9108289,2.2690825,-3.845088,1.436521,2.15957
1570715358,-6.3781533,8.082825,5.9519854,-0.75316495,-0.4857754,2.1508346,-3.691859,-0.5793968,2.2266076
1570715358,-8.0445175,6.042965,4.4723687,0.29295665,-0.9150901,0.99392205,-5.8562174,-2.7102363,0.63206923
1570715358,-5.3438582,5.923255,5.683835,1.0109668,-0.70203066,-0.27165073,-3.2944214,-2.9496565,2.0446482
1570715358,-3.5290532,6.4499793,0.25857377,-0.7552955,1.2432015,-0.5539544,-1.3311762,-2.3894134,-3.3662477
1570715358,-3.5625722,5.353435,6.2871737,-0.34302562,2.5172966,-0.5145384,-0.93852705,-3.3566709,2.6240451
1570715358,-4.5920787,2.087744,9.92636,-0.058591332,0.7883197,-0.58484805,-1.7190368,-6.588843,6.373365
1570715358,-4.960786,3.5577838,12.789825,-1.259181,0.29934844,-1.7907641,-2.2744915,-5.305551,9.873688
1570715358,-2.3798366,6.349423,9.662998,-3.7679553,0.72759783,-3.4632804,1.6759412,-1.4077905,5.243302
1570715358,-1.7717092,8.135497,11.300632,-3.4132113,0.13103153,-3.5367858,3.1507695,1.4030021,6.1387334
1570715358,-1.4891934,8.552089,8.662222,-2.4800112,-0.75209963,-2.895477,3.8498764,2.5713725,3.514688
1570715358,-2.2505496,8.1402855,8.987833,-2.2435153,-0.89271885,-2.0975697,3.3997664,3.1124623,2.743755
1570715358,-2.5953147,6.3111157,8.020576,-2.921044,-1.0344033,-1.7705235,3.2465374,2.087744,1.6232687
1570715358,-4.510676,5.12838,9.112331,-3.1905644,-1.1675655,-1.6149901,1.4173675,1.6136919,1.9632454
1570715358,-4.1946416,5.257667,6.1866174,-3.0041373,-1.5137869,-2.20623,3.2465374,1.9153614,-2.9113493
1570715358,-2.7964275,6.766014,10.721235,-2.3724163,-2.5737574,-0.7648832,3.5290532,5.1906295,3.86903
1570715358,-6.4882865,-0.58418524,4.582502,-2.8422122,-1.9292527,-1.3135111,-0.40222588,0.62249243,-2.7341783
1570715359,-4.3143516,1.6376339,7.627927,-2.2808008,-1.7747847,-2.1550958,-0.24420857,2.0350714,-0.24420857
1570715359,-2.6144683,2.2505496,7.560889,-2.0443048,-1.3806248,-2.3298044,0.92416185,3.0885203,-1.6711528
1570715359,-1.1875241,3.514688,8.825027,-1.6746467,-1.3284253,-1.7225852,1.8866309,5.142745,-0.2681506
1570715359,-0.18674773,2.432509,8.121132,-1.3891472,-1.1686307,-0.58484805,2.6671407,4.9799395,-0.8810662
1570715359,-1.5562311,1.0534488,8.451532,-1.3071194,-0.67326766,0.8980453,1.436521,3.9264908,-0.5602432
1570715359,-3.016694,-1.2449849,6.4404025,-1.2059162,0.01065297,1.5478765,-0.12449849,2.0207062,-2.3319526
1570715359,-3.98874,-1.3838485,7.3549876,-0.61787224,0.63385165,1.0482522,-1.0055647,1.5562311,-1.685518
1570715359,-7.240066,-4.4915223,14.197616,-0.117182665,-0.60082746,0.28336897,-4.8745947,-0.1436521,11.324574
1570715359,-3.1890767,-1.4460979,9.715671,-0.15127216,-0.7595567,-0.2801731,-0.90500826,1.6759412,1.1109096
1570715359,-2.2984335,-1.910573,7.3549876,-0.2077329,-0.7169448,-0.054330144,-0.21547815,1.3503298,-0.8858546
1570715359,-1.2880806,-0.81881696,7.067683,-0.17151281,0.046873067,0.42505348,1.2114661,2.27928,-1.8914193
1570715359,-2.9257145,-2.5091233,8.892065,0.243953,-0.4133352,0.6785942,-0.35434186,0.62728083,-0.35913026
1570715359,-1.7190368,-2.3175871,8.508993,0.25141007,-0.56247675,0.506016,0.56982,0.5363012,-0.51714754
1570715359,-1.6998832,-2.7629087,8.154651,-0.2759119,0.02130594,0.43357584,0.78529817,0.21068975,-0.7278373
1570715359,-1.9536686,-2.6623523,7.920019,-0.3877681,0.37072334,0.26099774,0.51714754,0.2873042,-1.0965444
1570715359,-2.3702598,-2.5378537,9.074024,0.13103153,0.10120321,0.08202787,0.20590134,0.39264908,0.076614454
1570715359,-2.5139117,-2.566584,9.251195,0.5784562,-0.30041373,-0.07244019,0.019153614,0.22026655,0.19632454
1570715359,-2.006341,-1.8770541,9.093178,0.45914298,-0.25141007,-0.19494934,0.4261679,0.770933,-0.02873042
1570715359,-2.2218192,-1.9057846,8.106767,0.012783563,0.39948636,-0.036220096,0.22984336,0.6512229,-1.0342951
1570715359,-2.3798366,-1.9393034,9.011775,-0.18216577,0.61361104,0.05646074,0.23942018,0.6512229,-0.07182605
1570715359,-2.896984,-2.4372973,10.180145,0.18003519,-0.08415846,0.1395539,-0.2633622,0.1436521,1.1204864
1570715359,-2.2457612,-2.4181437,9.030929,0.41653112,-0.50068957,0.24608359,0.39743748,0.02873042,-0.08619126
1570715359,-1.7669208,-1.982399,7.264008,0.47725302,-0.26952013,0.33556855,0.33518824,-0.05267244,-1.8004397
