time,ax,ay,az,gx,gy,gz,la_x,la_y,la_z,fox,foy,foz
1570715679,-11.262848,-8.47995,8.784515,-3.82901,0.24069214,-0.8664856,-5.7100363,-2.5965843,2.9304876
1570715679,-8.997925,-9.412491,7.7178955,-3.7906647,0.6859741,-0.5980377,-3.3070245,-2.740868,2.438128
1570715679,-11.21376,-8.995911,9.991196,-3.3347168,0.24494934,-0.4201355,-5.4340973,-1.7226858,5.5278473
1570715679,-11.024628,-8.0466,8.316452,-2.5006256,-0.29408264,0.23072815,-5.4004583,-0.29096365,4.6368885
1570715679,-9.576126,-7.879013,5.4218597,-2.5773163,-0.15238953,1.2374115,-4.757575,-0.5956993,2.6279452
1570715679,-6.938919,-7.1224365,4.8197174,-2.63591,0.13310242,1.2928009,-0.7413745,0.6393976,2.1204813
1570715679,-7.6212616,-5.8559113,5.682831,-2.2492218,-0.5593262,1.0957336,-1.1275167,1.8405037,3.5461702
1570715679,-6.839554,-5.0897675,3.000122,-1.8816986,-0.8117981,0.92741394,-0.15554619,2.5026765,1.1927246
1570715679,-3.1800232,-1.7259064,15.877335,-0.70033264,2.6641693,0.31062317,5.046857,4.300534,16.321854
1570715679,-3.4385986,-3.9632874,3.0611725,-0.42868042,0.18528748,0.03152466,3.2967434,3.689197,2.640185
1570715679,-1.3460693,-5.377075,-0.60913086,-0.61509705,-0.041610718,-0.5639496,5.5353622,2.2208614,-1.7295527
1570715679,-1.0288239,-5.4141846,2.6290283,-0.49899292,-1.242157,-1.381012,5.189054,2.2592864,1.7524102
1570715679,1.7448578,-5.914566,-0.047698975,-0.5724945,-0.117248535,-2.8180542,7.407398,2.743289,-0.7836231
1570715679,-10.574509,-11.574463,2.390808,-0.5970001,2.3286133,-2.7935486,-4.95238,-2.5038652,0.65962255
1570715679,-9.845474,-11.506226,-4.1369934,0.5854492,1.0641327,-1.1051025,-3.2486525,-1.7047558,-1.1580817
1570715679,-2.558731,-12.627914,-2.6908875,-1.2670441,0.35360718,0.38839722,2.6661472,-4.0410337,-3.0011759
1570715679,-4.8978577,-9.07132,2.0891266,-1.0657043,0.12138367,0.37667847,0.27765894,-0.27390003,2.603591
1570715679,-4.981659,-10.203781,0.9028015,-0.502182,-0.31324768,0.39372253,0.1858263,-1.1533556,1.7863522
1570715679,-5.3443756,-10.149918,-0.6330719,0.15934753,-0.14387512,-0.10694885,0.12354708,-1.5409126,-0.07495171
1570715679,0.1191864,-7.516281,-2.353302,0.47146606,0.08302307,-0.9144287,5.9099703,0.9227743,-1.934241
1570715679,2.3876953,-3.7202759,-4.3776093,0.18383789,-1.4797211,-2.6167145,8.643026,4.978897,-4.597473
1570715679,-10.581696,-4.451706,2.0364532,0.40115356,-0.3420105,-1.3075104,-6.2144055,4.656315,1.5637336
1570715679,-7.977997,-4.5678253,2.9354858,1.0168762,2.0175476,-0.5085602,-4.0756855,4.7667894,3.1533666
1570715679,-2.084671,-4.2518005,1.5863495,0.42884827,1.8492432,-0.62361145,1.4798851,5.1858244,1.3293273
1570715680,-4.7637787,-4.6468353,0.4479065,0.3990326,-0.634964,-1.4300079,-1.0617816,4.898299,0.8139728
1570715680,-2.883133,-4.092575,0.576004,0.32232666,-0.009643555,-1.5109711,-0.027095318,5.7007732,0.85656476
1570715680,-3.8300476,-6.933304,-7.662445,-0.07608032,0.044677734,-0.8995056,-2.0406506,3.9762735,-7.755694
1570715680,-0.3764038,-16.529266,-2.2120514,-2.2385712,0.14801025,-1.0443878,2.140839,-6.201214,-3.159439
1570715680,1.0301819,-11.224915,2.1884918,-1.8188477,-0.21737671,-1.8241577,3.0419245,-1.4370718,3.485389
1570715680,-3.302124,-16.222809,0.71965027,-0.6566467,1.3176727,-1.7858124,-1.4657948,-5.937701,1.691199
1570715680,-0.39796448,-10.090057,-1.2005005,0.56414795,0.08409119,0.14445496,0.67184937,-0.32382965,0.017555356
1570715680,-1.7614594,-8.318344,-0.7120819,6.2561035E-4,-0.14173889,-0.3413086,-0.58974075,1.6875973,0.3700484
1570715680,-1.190445,-7.9077454,-1.3752747,0.1103363,-0.07463074,-0.1378479,-0.09511459,2.1181402,-0.33122003
1570715680,-0.29141235,-8.582901,-1.6553955,0.1486969,-0.019241333,0.046447754,0.5188916,1.4377956,-0.7162199
1570715680,1.0541229,-7.6874695,-0.9395294,0.68878174,0.03616333,0.34791565,1.2724988,1.2536879,0.784634
1570715680,0.17784119,-9.25209,-1.4447021,0.3287201,-0.20991516,0.2861328,1.3576927,0.74208164,-0.5936793
1570715680,-1.0539703,-5.5207214,-0.55885315,0.20088196,-0.01071167,0.16682434,0.43021393,3.5909824,0.121364534
1570715680,-1.22995,0.9101105,-0.6115265,0.965744,-0.7830353,0.9732208,0.27786446,10.599007,-0.075743556
1570715680,-0.57392883,1.113617,-2.997345,0.42352295,-1.017395,1.755127,1.2353541,10.936262,-2.5875647
1570715680,3.6697845,-9.70459,0.5843811,-0.516037,1.484909,-0.011077881,5.6440454,0.12614536,0.22968274
1570715680,1.9363861,-7.889786,-0.90960693,0.5620117,-0.31217957,-3.3442993,4.0730658,1.2967453,1.7154176
1570715680,4.2815094,-17.794601,-1.9762268,-1.5706482,2.0793304,-4.5725403,5.0105577,-8.318923,-2.2419443
1570715680,-2.2474823,-4.2685547,1.2679138,-0.4787445,-2.9114227,-5.4684296,-3.1974154,5.2571793,3.4563725
1570715680,-10.445221,-27.324722,-0.2966919,0.6131439,-5.002548,-4.571472,-12.310146,-22.129698,1.1881133
1570715680,0.9332123,-4.019562,-2.4778137,-0.13146973,-1.6949005,1.2501984,-1.9406059,7.2630615,-1.4358677
1570715680,3.6542206,-8.7708435,-0.2212677,0.27012634,1.9195404,-0.10269165,2.2950284,-0.80158806,0.629807
1570715680,5.458252,-8.338699,-2.8070068,0.50341797,0.9299164,0.0070343018,3.050914,1.3401546,-1.63988
1570715680,2.6450653,-8.458405,-1.4327393,-0.08140564,-0.5422821,-0.054748535,0.29298258,1.1845055,-0.45299762
1570715680,2.1363068,-8.218994,-0.93833923,0.0783844,0.19488525,-0.0057525635,-0.29070187,1.4127493,0.083877146
1570715680,1.7352753,-8.356659,-1.1717682,-4.4250488E-4,0.4111328,-0.015335083,-0.7027035,1.2871628,-0.19970244
1570715680,2.7216797,-8.773239,-1.0580444,0.02192688,0.3312378,0.03152466,0.28568196,0.7855749,-0.15860796
1570715680,2.4667053,-8.670288,-0.94073486,0.015533447,0.12243652,-0.016403198,0.07596445,0.8804951,-0.048174858
1570715680,1.7113342,-8.462006,-0.97065735,0.014465332,0.13948059,-0.0014953613,-0.7272918,1.1272917,-0.07894069
1570715680,2.1782074,-8.749298,-0.6354675,0.007003784,0.1554718,0.029403687,-0.34544468,0.8168211,0.22208017
1570715680,2.4511414,-8.685852,-0.7587738,0.04536438,0.08622742,0.012359619,-0.0041000843,0.8824749,0.11638093
1570715680,2.2703857,-8.5134735,-1.0089722,0.020858765,0.0074005127,-0.003616333,-0.15532827,1.0278559,-0.16184771
1570715680,2.0968018,-8.402145,-1.2220459,0.0038146973,-0.023498535,0.0059661865,-0.33866405,1.1594896,-0.38822746
1570715680,2.4523315,-8.503891,-1.0089722,6.2561035E-4,0.008453369,0.009155273,0.009034395,1.0075445,-0.19432068
1570715681,2.414032,-8.569733,-0.9215698,0.009140015,-0.04586792,0.003829956,-4.005432E-5,0.94586086,-0.0791688
1570715681,2.4200134,-8.537415,-1.0101624,-0.0015106201,0.0074005127,0.008102417,0.009944439,0.9732752,-0.17854875
1570715681,2.4499512,-8.514664,-1.0807953,-0.010040283,-0.0011291504,-4.272461E-4,0.018797636,0.9599304,-0.20950252
1570715681,2.422409,-8.546997,-0.996994,-0.0015106201,-0.011779785,0.0070343018,-0.009021044,0.96497536,-0.15644318
1570715681,2.5612793,-8.535019,-1.1083221,0.0016784668,0.04360962,0.013427734,0.12608719,0.88598347,-0.26736814
1570715681,2.5265656,-8.318344,-1.1981049,-0.019622803,0.041488647,6.4086914E-4,0.10337281,1.053586,-0.2897203
1570715681,2.4702911,-8.541,-1.2052917,-0.033462524,0.041488647,-0.0014953613,0.020732164,0.9983511,-0.3444513
1570715681,2.44635,-8.550583,-1.0568542,-0.041992188,0.04788208,-4.272461E-4,0.011059284,0.7801151,-0.1723066
1570715681,2.4283905,-8.689453,-0.8748932,-0.03666687,0.044677734,-0.0025634766,-0.03323245,0.599638,0.050495744
1570715681,2.2260895,-8.560165,-0.8772888,-0.019622803,0.013793945,-0.010009766,-0.17453837,0.7010164,0.042244554
1570715681,2.3960724,-8.660721,-1.0233307,-4.4250488E-4,0.03616333,0.0017089844,-0.060427666,0.53652096,-0.08329636
1570715681,2.2153168,-8.593674,-0.87968445,0.008071899,-0.03414917,-0.011077881,-0.18419313,0.58207226,0.034065306
1570715681,2.149475,-8.575729,-1.2459869,0.018722534,-0.040542603,-0.0068206787,-0.31790328,0.5569706,-0.27150214
1570715681,2.2548218,-8.543396,-1.1406403,0.026184082,-0.07463074,-0.012145996,-0.11798239,0.6024618,-0.2045945
1570715681,2.3757172,-8.57811,-1.1729736,0.061340332,-0.04800415,-0.003616333,-0.034320354,0.48191547,-0.18486333
1570715681,2.6450653,-8.53981,-1.1789551,0.07305908,-0.028823853,-0.003616333,0.21334362,0.53676605,-0.22718394
1570715681,2.4331818,-8.430878,-1.170578,0.07624817,-0.033081055,-0.016403198,0.089845896,0.558424,-0.26531887
1570715681,2.1159515,-8.3949585,-0.996994,0.0783844,-0.038406372,-0.024932861,-0.22324109,0.63316345,-0.1363557
1570715681,2.1315155,-8.120819,-0.9838257,0.07092285,-0.03201294,0.034729004,-0.35687208,0.9444933,0.014730513
1570715681,3.2041168,-8.705017,-0.89523315,0.002746582,0.02444458,0.04324341,0.693254,0.3699379,-0.11875713
1570715681,3.152649,-8.494324,-0.7671509,-0.028137207,-0.05545044,-0.003616333,0.85672116,0.4699812,0.19712168
1570715681,2.9347687,-8.803177,-0.8533478,-0.0025787354,0.09580994,0.018753052,0.49202418,0.2612419,0.077907324
1570715681,2.8557587,-8.77684,-0.38526917,0.0038146973,-0.007522583,-0.008956909,0.5393214,0.13886261,0.4510944
1570715681,1.9399872,-8.303986,-0.89045715,0.048553467,-0.04373169,0.003829956,-0.42769456,0.63701916,0.06652069
1570715681,2.1901703,-8.640366,-0.91918945,0.0357666,-6.1035156E-5,0.021942139,-0.28548694,0.35715675,-0.07172543
1570715681,2.3386078,-8.600861,-1.0197449,0.0315094,-0.07356262,-0.007888794,-0.05943942,0.34689522,-0.097694874
1570715681,2.3302307,-8.33989,-1.1837463,0.022994995,-0.025634766,-0.013214111,-0.0529387,0.6284418,-0.2880751
1570715681,2.327835,-8.417709,-1.3154297,-0.0057678223,-0.041610718,-0.018539429,-0.03821969,0.56317043,-0.4636379
1570715681,2.3972778,-8.524246,-0.95269775,-0.026016235,-0.058654785,-0.0068206787,-0.051522255,0.4285469,-0.13464838
1570715681,2.663025,-8.605652,-0.74320984,-0.033462524,-0.0011291504,-0.0046844482,0.25638556,0.34557247,0.14396048
1570715681,2.5038147,-8.582901,-0.7779236,-0.012161255,0.025497437,-0.010009766,0.11681104,0.3579197,0.101682544
1570715681,2.4654999,-8.61882,-0.94911194,0.002746582,0.046813965,-0.0057525635,0.05160308,0.3707409,-0.006989956
1570715681,2.4272003,-8.548187,-0.83299255,-0.0068359375,0.025497437,-0.012145996,0.03291297,0.37908268,0.10089207
1570715682,2.2608032,-8.436859,-0.8988342,-0.012161255,0.0105896,-0.007888794,-0.13786054,0.44907856,0.05570829
1570715682,2.4678955,-8.594879,-1.0700226,-0.02281189,0.035095215,0.0070343018,0.026953697,0.30496693,-0.15884125
1570715682,2.5026245,-8.563751,-0.8317871,-0.019622803,0.008453369,-0.0046844482,0.1495471,0.3128004,0.062725544
1570715682,2.540924,-8.488327,-0.9610748,-0.01322937,0.019119263,-0.0068206787,0.08823991,0.34805965,-0.045997143
1570715682,2.4272003,-8.5134735,-0.8138428,-0.01322937,-0.018173218,-0.017471313,0.048808813,0.38386917,0.05114317
1570715682,2.429596,-8.566147,-1.0005798,-0.015365601,0.021240234,-0.0046844482,0.0075643063,0.25899887,-0.104343295
1570715682,2.484665,-8.512283,-0.95988464,-0.014297485,-0.023498535,-0.013214111,0.08002019,0.29158306,0.02534622
1570715682,2.3912811,-8.53981,-0.93833923,-0.004714966,0.015914917,-0.0014953613,-0.050051928,0.27253914,-0.06628454
1570715682,2.548111,-8.548187,-0.9455261,-0.004714966,-0.006454468,0.0017089844,0.1162262,0.24939537,-0.024030626
1570715682,2.5600739,-8.587692,-1.0161438,0.0048828125,-0.023498535,-0.0068206787,0.09960699,0.21364784,-0.069901586
1570715682,2.6091614,-8.44165,-1.0017853,-0.0036468506,-0.017105103,-0.013214111,0.1846888,0.3095379,-0.056590855
1570715682,2.4547272,-8.482346,-1.1238861,-4.4250488E-4,0.0031280518,-0.007888794,-5.013943E-4,0.27287292,-0.17032999
1570715682,2.3637543,-8.49791,-0.9898071,-0.012161255,-6.1035156E-5,-0.0025634766,-0.041297913,0.26625347,-0.0653941
1570715682,2.5624695,-8.593674,-1.0771942,-0.0057678223,0.021240234,6.4086914E-4,0.038499117,0.14561939,-0.15613854
1570715682,2.568451,-8.511078,-0.92396545,-0.0068359375,-0.020309448,-0.010009766,0.14247084,0.20673656,0.07619953
1570715682,2.4020538,-8.45961,-1.076004,-0.008972168,0.02017212,0.0027618408,-0.07326031,0.24487686,-0.0931803
1570715682,2.5361328,-8.594879,-0.99580383,-0.008972168,0.032958984,0.009155273,0.07151151,0.11913681,-0.021298349
1570715682,2.6127472,-8.53862,-0.88087463,-0.0015106201,0.023376465,6.4086914E-4,0.13471031,0.13834667,0.0858621
1570715682,2.611557,-8.5685425,-1.0640259,-4.4250488E-4,0.039352417,0.0027618408,0.13318992,0.123101234,-0.10411805
1570715682,2.505005,-8.541,-0.93473816,-0.004714966,0.015914917,-0.0014953613,0.025982141,0.1412878,0.021931052
1570715682,2.4918365,-8.582901,-0.90122986,0.018722534,0.041488647,0.0059661865,-0.018424273,0.107577324,0.04348117
1570715682,2.5756378,-8.621216,-0.85095215,0.01979065,0.009521484,-0.0046844482,0.08421612,0.023732185,0.07688266
1570715682,2.283554,-8.496719,-0.917984,0.028320312,0.019119263,0.003829956,-0.20051336,0.16539097,0.043001056
1570715682,2.484665,-8.562561,-0.9874115,0.030441284,0.037216187,0.008102417,0.027164936,0.08393669,-0.06876278
1570715682,2.607956,-8.530228,-0.9622803,0.030441284,0.0020751953,-0.0046844482,0.11332822,0.14933491,-0.042801857
1570715682,2.3793182,-8.366226,-1.052063,0.016601562,-0.008590698,-0.003616333,-0.10539436,0.2562065,-0.12838471
1570715682,2.5672607,-8.417709,-1.0568542,-0.0036468506,-0.008590698,-0.0025634766,0.07654619,0.20788765,-0.15013885
1570715682,2.4595184,-8.505096,-0.93833923,-0.017486572,-0.007522583,-0.0014953613,-0.021712303,0.12301159,-0.0014378428
1570715682,2.5097961,-8.527832,-0.9790344,-0.008972168,0.042541504,0.009155273,0.013404608,0.07460213,-0.037888587
1570715682,2.6342926,-8.535019,-0.87968445,0.0048828125,0.03189087,0.010223389,0.16053963,0.07327843,0.025611222
1570715682,2.5516968,-8.569733,-0.90960693,0.01234436,0.009521484,0.0070343018,0.07444763,0.040338516,0.0321213
1570715682,2.4236145,-8.482346,-1.0101624,0.009140015,0.015914917,0.010223389,-0.06689191,0.12316418,-0.1009416
1570715682,2.5433197,-8.4739685,-1.0831909,0.013397217,0.0382843,0.015548706,0.09305215,0.115587234,-0.21678346
1570715683,2.4810638,-8.55896,-0.92996216,0.016601562,0.014846802,0.013427734,-0.0059611797,0.07959175,0.003268361
1570715683,2.4822693,-8.5529785,-0.88327026,0.030441284,0.0382843,0.019805908,0.007212639,0.03777027,0.055538774
1570715683,2.651062,-8.570938,-0.8820648,0.027252197,-0.0043182373,0.009155273,0.16896987,0.03978634,0.014853895
1570715683,2.4990234,-8.482346,-0.8665161,0.0357666,-0.035217285,-4.272461E-4,0.03442955,0.05767536,0.051211774
1570715683,2.4834595,-8.615234,-0.81503296,0.04536438,-0.037353516,6.4086914E-4,-0.03340149,0.011182785,0.08569908
1570715683,2.3003082,-8.57692,-0.8880615,0.053878784,-0.07676697,-0.0014953613,-0.17080283,0.021819115,2.5212765E-4
1570715683,2.4403687,-8.626007,-0.91319275,0.056015015,-0.09274292,0.009155273,-0.045588255,-0.026496887,-0.06299734
1570715683,2.3697357,-8.4739685,-0.80784607,0.04536438,-0.10871887,0.010223389,-0.05870247,0.12335682,0.052053154
1570715683,2.4798737,-8.424881,-1.0747986,0.040039062,-0.066101074,6.4086914E-4,-0.012309551,0.15787125,-0.14087468
1570715683,2.5205688,-8.464386,-1.0293121,0.011276245,-0.046936035,-0.015335083,0.03451228,0.11299038,-0.17919111
1570715683,2.200943,-8.5529785,-0.91319275,6.2561035E-4,-0.014968872,-0.0206604,-0.2213068,0.076203346,-0.017532825
1570715683,2.4260101,-8.597275,-0.94192505,-0.0025787354,0.079833984,0.011291504,-0.043723345,-0.009072304,-0.08209175
1570715683,2.8246307,-8.489532,-0.7671509,-0.029205322,0.028701782,0.011291504,0.36068177,0.10957241,0.06257349
1570715683,2.405655,-8.629593,-0.66539,-4.4250488E-4,-0.061843872,-0.0206604,-0.047181606,-0.023340225,0.20971775
1570715683,2.303894,-8.627197,-0.7228546,0.01020813,-0.051193237,-0.007888794,-0.1797986,-0.08041859,0.11700332
1570715683,2.4152222,-8.548187,-0.77194214,0.030441284,-0.018173218,-0.0068206787,-0.06407881,0.03798294,0.08628267
1570715683,2.2907257,-8.570938,-0.8772888,0.04536438,-0.026687622,-0.0057525635,-0.15986753,0.007454872,-0.014725268
1570715683,2.4918365,-8.535019,-0.7372284,0.028320312,-0.016036987,0.009155273,0.0015215874,0.005086899,0.10494232
1570715683,2.627121,-8.53862,-0.7480011,0.020858765,-0.02456665,0.010223389,0.15876889,0.043337822,0.05020535
1570715683,2.584015,-8.532623,-0.89045715,0.017669678,-0.038406372,6.4086914E-4,0.12287617,0.04949093,-0.051846564
1570715683,2.505005,-8.532623,-0.88087463,0.018722534,-0.044799805,-0.0057525635,0.06294298,0.05815983,-0.022755027
1570715683,2.4128418,-8.491928,-0.8377838,0.013397217,-0.027755737,-0.0014953613,-0.04954171,0.077441216,-0.0222857
1570715683,2.422409,-8.593674,-0.8497467,0.015533447,0.0031280518,0.009155273,-0.049176693,-0.0021867752,-0.014686406
1570715683,2.7252808,-8.610443,-0.8305969,0.0059509277,0.015914917,0.014480591,0.26800752,-0.05273342,-0.064664364
1570715683,2.5912018,-8.487137,-0.79467773,0.017669678,-0.033081055,-0.0014953613,0.15154886,0.08302307,0.044642866
1570715683,2.4272003,-8.5924835,-0.77194214,0.022994995,-0.007522583,0.0027618408,-0.054572105,-0.01626873,-0.011149108
1570715683,2.429596,-8.5529785,-0.83657837,0.018722534,-0.016036987,0.0017089844,-0.030428648,-0.01035881,0.022176147
1570715683,2.4678955,-8.53981,-0.90242004,0.02192688,0.0020751953,0.003829956,-0.02229476,0.050393105,-0.115567565
1570715683,2.5026245,-8.543396,-0.9610748,0.017669678,0.016983032,-0.0014953613,0.03900385,0.064720154,-0.09563148
1570715683,2.469101,-8.515869,-0.7695465,0.008071899,0.028701782,6.4086914E-4,0.015854359,0.042175293,0.007910848
1570715683,2.4367828,-8.596069,-0.7779236,0.009140015,0.040420532,0.003829956,-0.02691865,0.017253876,0.016822338
1570715683,2.4726868,-8.604446,-0.75398254,0.008071899,0.023376465,0.0048980713,-0.01204586,0.011003494,0.004949391
1570715683,2.4343872,-8.562561,-0.70251465,0.013397217,0.03616333,-0.0025634766,-0.02964449,0.025286674,0.098851085
1570715683,2.3924866,-8.5134735,-0.72525024,0.01234436,0.042541504,0.003829956,-0.084456205,0.016160011,0.043990493
1570715684,2.5337372,-8.529037,-0.72406006,0.002746582,0.042541504,-0.0025634766,0.060156107,0.026518822,-0.016252756
1570715684,2.4499512,-8.518265,-0.78990173,-0.01109314,0.032958984,-0.007888794,-0.043683767,0.056157112,-0.00474149
1570715684,2.477478,-8.509888,-0.7767334,-0.018554688,0.04788208,-0.0057525635,-0.044008255,0.051711082,-0.0059117675
1570715684,2.4678955,-8.524246,-0.7587738,-0.026016235,0.04574585,-0.003616333,0.024356604,0.029536247,0.03410995
1570715684,2.4559326,-8.570938,-0.7420044,-0.019622803,0.03189087,-0.0025634766,-0.011754274,0.00504303,0.052516043
1570715684,2.505005,-8.59967,-0.68814087,-0.0015106201,0.025497437,-0.0025634766,0.087724924,-0.04195118,0.11566293
1570715684,2.5205688,-8.562561,-0.7336273,-0.0025787354,0.035095215,-0.0057525635,0.05038643,0.0077695847,0.08602208
1570715684,2.461914,-8.562561,-0.8282013,-0.007904053,0.037216187,-0.008956909,0.037188053,0.048007965,-0.017724514
1570715684,2.4307861,-8.462006,-0.7503967,-0.016418457,0.05000305,0.003829956,-0.091052294,0.056856155,-0.097685575
1570715684,2.528946,-8.564941,-0.7563782,-0.01109314,0.04360962,0.0017089844,0.01135397,-0.01828289,0.04125893
1570715684,2.5205688,-8.55896,-0.70251465,-0.012161255,0.03189087,0.0017089844,0.050350904,0.004761696,-7.531643E-4
1570715684,2.5433197,-8.5529785,-0.78990173,-0.01322937,0.040420532,-0.003616333,0.062098026,0.015830994,-0.016849518
1570715684,2.4607239,-8.531433,-0.80307007,-0.01322937,0.021240234,-0.007888794,-0.036957026,0.04450226,-0.011066973
1570715684,2.485855,-8.543396,-0.8377838,-0.014297485,0.041488647,-0.0025634766,-0.0029420853,-0.025529861,-0.03217143
1570715684,2.4104462,-8.466782,-0.77433777,-0.02494812,0.03616333,0.0017089844,-0.03488326,0.038981438,-0.0110942125
1570715684,2.5600739,-8.542206,-0.8569336,-0.035598755,0.0574646,0.0059661865,0.015731096,0.0013532639,-0.04820019
1570715684,2.4092407,-8.481155,-0.82221985,-0.035598755,0.014846802,-0.003616333,-0.013191938,0.091664314,0.004648268
1570715684,2.4918365,-8.588898,-0.8641205,-0.037734985,0.041488647,0.0017089844,0.015673637,-0.030129433,-0.084817946
1570715684,2.4200134,-8.541,-0.7084961,-0.041992188,0.009521484,-0.0057525635,-0.07716751,0.0036029816,0.058066428
1570715684,2.405655,-8.55777,-0.7264557,-0.037734985,0.04788208,0.0027618408,-0.06924915,-0.02559185,0.08468598
1570715684,2.5433197,-8.622406,-0.71328735,-0.030273438,0.008453369,-0.0046844482,0.045721292,-0.092336655,0.10257292
1570715684,2.4164276,-8.475159,-0.7408142,-0.016418457,0.009521484,-0.0025634766,-0.06887555,0.015135765,0.09376085
1570715684,2.5133972,-8.551788,-0.79467773,-0.008972168,0.015914917,0.003829956,0.0037419796,-0.053715706,0.003616631
1570715684,2.563675,-8.560165,-0.82221985,-0.01109314,-0.0011291504,-0.0025634766,0.044816494,0.0010604858,0.0075507164
1570715684,2.5038147,-8.495514,-0.84495544,-0.019622803,0.013793945,-0.0025634766,-4.2533875E-4,0.053391457,-0.053016603
1570715684,2.453537,-8.515869,-0.9072113,-0.015365601,-0.0021972656,-0.003616333,-0.016774654,0.017655373,-0.055815816
1570715684,2.548111,-8.537415,-0.86891174,-0.007904053,-0.006454468,-4.272461E-4,0.09275007,-0.037305832,-0.06894398
1570715684,2.5493011,-8.531433,-0.85453796,0.007003784,-0.0011291504,-0.0014953613,0.018989801,0.032503128,-0.039830565
1570715684,2.477478,-8.549393,-0.89404297,-0.0068359375,0.011657715,-0.003616333,0.05684209,-0.04317665,-0.0683884
1570715684,2.54451,-8.523056,-0.8856659,-0.0025787354,0.019119263,-0.0025634766,0.04407811,0.033028603,-0.0448094
1570715684,2.5469055,-8.550583,-0.89045715,0.0048828125,0.0031280518,0.003829956,0.050549507,-0.009180069,-0.0026891828
1570715684,2.5576782,-8.554169,-0.8712921,-0.0015106201,0.018051147,0.0027618408,0.030651093,-0.034241676,-0.061742306
1570715684,2.5229645,-8.487137,-0.8928528,-0.007904053,-0.0043182373,-0.0068206787,0.0015895367,0.07412815,-0.032912135
1570715685,2.485855,-8.535019,-0.90122986,-0.012161255,0.01272583,-0.0025634766,-0.080810785,0.012003899,-0.062410533
1570715685,2.6103516,-8.512283,-0.8665161,-0.01109314,0.008453369,-4.272461E-4,0.09473777,0.0059814453,0.021034122
1570715685,2.5133972,-8.509888,-0.82580566,-0.01322937,0.018051147,-4.272461E-4,-0.004555702,0.0074338913,0.023266435
1570715685,2.548111,-8.543396,-0.82580566,-0.018554688,0.023376465,-0.0014953613,0.041128874,-0.034708977,0.03209728
1570715685,2.5026245,-8.554169,-0.73243713,-0.016418457,0.0020751953,-0.0046844482,-0.024885178,-0.009150505,0.10307753
1570715685,2.477478,-8.555374,-0.8377838,-0.015365601,0.028701782,-0.0025634766,-0.028751612,-0.022033691,0.028120935
1570715685,2.4870605,-8.508682,-0.8533478,-0.018554688,0.0105896,-4.272461E-4,-0.04317522,0.0321455,0.0073392987
1570715685,2.5229645,-8.544601,-0.80067444,-0.031341553,0.009521484,-0.003616333,-0.013477564,0.041371346,-0.014723957
1570715685,2.5708466,-8.546997,-0.8557434,-0.033462524,0.023376465,-0.003616333,0.033428192,0.007668495,0.031232953
1570715685,2.5038147,-8.561356,-0.9072113,-0.033462524,0.01272583,-0.0014953613,-0.003433466,-0.019136429,-0.022818029
1570715685,2.5301514,-8.519455,-0.91319275,-0.02494812,0.023376465,0.003829956,-0.004783392,0.008896828,-0.062411964
1570715685,2.539734,-8.49791,-0.86291504,-0.019622803,0.021240234,-0.0025634766,0.011724949,0.06146145,-0.017738938
1570715685,2.5097961,-8.55777,-0.9443207,-0.02708435,0.02017212,6.4086914E-4,-0.015724897,-0.006682396,-0.023649335
1570715685,2.5301514,-8.475159,-1.0233307,-0.028137207,0.025497437,0.0017089844,0.006565094,0.031247139,-0.14008975
1570715685,2.564865,-8.508682,-0.9048157,-0.023880005,0.019119263,-0.0068206787,0.05052924,0.043649673,0.014924407
1570715685,2.5145874,-8.506287,-0.9359436,-0.018554688,0.023376465,-0.0068206787,-0.0046613216,0.0088710785,-0.017625451
1570715685,2.5145874,-8.506287,-0.9359436,-0.018554688,0.023376465,-0.0068206787,-0.0046613216,0.0088710785,-0.017625451
1570715685,2.5145874,-8.506287,-0.9359436,-0.018554688,0.023376465,-0.0068206787,-0.0046613216,0.0088710785,-0.017625451
1570715685,2.5145874,-8.506287,-0.9359436,-0.018554688,0.023376465,-0.0068206787,-0.0046613216,0.0088710785,-0.017625451
1570715685,2.5145874,-8.506287,-0.9359436,-0.018554688,0.023376465,-0.0068206787,-0.0046613216,0.0088710785,-0.017625451
1570715685,2.5145874,-8.506287,-0.9359436,-0.018554688,0.023376465,-0.0068206787,-0.0046613216,0.0088710785,-0.017625451
1570715685,2.5145874,-8.506287,-0.9359436,-0.018554688,0.023376465,-0.0068206787,-0.0046613216,0.0088710785,-0.017625451
1570715685,2.5145874,-8.506287,-0.9359436,-0.018554688,0.023376465,-0.0068206787,-0.0046613216,0.0088710785,-0.017625451
1570715685,2.5145874,-8.506287,-0.9359436,-0.018554688,0.023376465,-0.0068206787,-0.0046613216,0.0088710785,-0.017625451
1570715685,2.4236145,-8.541,-0.8581238,-0.008972168,-0.018173218,-0.010009766,0.10719967,0.03596306,-0.035161555
1570715685,2.3876953,-8.53981,-0.95150757,-0.0036468506,-0.01071167,-0.003616333,-0.17980337,-0.033329964,0.009087265
1570715685,2.3876953,-8.53981,-0.95150757,-0.0036468506,-0.01071167,-0.003616333,-0.17980337,-0.033329964,0.009087265
1570715685,2.3876953,-8.53981,-0.95150757,-0.0036468506,-0.01071167,-0.003616333,-0.17980337,-0.033329964,0.009087265
1570715685,2.3876953,-8.53981,-0.95150757,-0.0036468506,-0.01071167,-0.003616333,-0.17980337,-0.033329964,0.009087265
1570715685,2.3876953,-8.53981,-0.95150757,-0.0036468506,-0.01071167,-0.003616333,-0.17980337,-0.033329964,0.009087265
1570715685,2.3876953,-8.53981,-0.95150757,-0.0036468506,-0.01071167,-0.003616333,-0.17980337,-0.033329964,0.009087265
1570715685,2.3876953,-8.53981,-0.95150757,-0.0036468506,-0.01071167,-0.003616333,-0.17980337,-0.033329964,0.009087265
1570715685,2.3876953,-8.53981,-0.95150757,-0.0036468506,-0.01071167,-0.003616333,-0.17980337,-0.033329964,0.009087265
1570715686,2.3876953,-8.53981,-0.95150757,-0.0036468506,-0.01071167,-0.003616333,-0.17980337,-0.033329964,0.009087265
1570715686,2.500229,-8.526642,-1.0329132,-0.004714966,0.0020751953,-0.0068206787,-0.07859492,0.010478973,-0.04811722
1570715686,2.5660706,-8.585297,-1.0317078,-0.010040283,-0.0021972656,-0.0057525635,-0.00627017,-0.03918171,-0.08871269
1570715686,2.5660706,-8.585297,-1.0317078,-0.010040283,-0.0021972656,-0.0057525635,-0.00627017,-0.03918171,-0.08871269
1570715686,2.5660706,-8.585297,-1.0317078,-0.010040283,-0.0021972656,-0.0057525635,-0.00627017,-0.03918171,-0.08871269
1570715686,2.5660706,-8.585297,-1.0317078,-0.010040283,-0.0021972656,-0.0057525635,-0.00627017,-0.03918171,-0.08871269
1570715686,2.5660706,-8.585297,-1.0317078,-0.010040283,-0.0021972656,-0.0057525635,-0.00627017,-0.03918171,-0.08871269
1570715686,2.5660706,-8.585297,-1.0317078,-0.010040283,-0.0021972656,-0.0057525635,-0.00627017,-0.03918171,-0.08871269
1570715686,2.5660706,-8.585297,-1.0317078,-0.010040283,-0.0021972656,-0.0057525635,-0.00627017,-0.03918171,-0.08871269
1570715686,2.5660706,-8.585297,-1.0317078,-0.010040283,-0.0021972656,-0.0057525635,-0.00627017,-0.03918171,-0.08871269
1570715686,2.5660706,-8.585297,-1.0317078,-0.010040283,-0.0021972656,-0.0057525635,-0.00627017,-0.03918171,-0.08871269
1570715686,2.5660706,-8.585297,-1.0317078,-0.010040283,-0.0021972656,-0.0057525635,-0.00627017,-0.03918171,-0.08871269
1570715686,2.726471,-8.591278,-1.052063,-0.007904053,-0.0011291504,0.0027618408,-0.00627017,-0.03918171,-0.08871269
1570715686,2.6175385,-8.530228,-1.0436859,-0.0025787354,0.008453369,-0.0014953613,0.038295507,0.012087822,-0.022614956
1570715686,2.5205688,-8.5685425,-1.1095276,-0.0036468506,-0.0053863525,6.4086914E-4,0.0044841766,-0.044765472,-0.0578779
1570715686,2.706131,-8.453613,-1.0400848,-0.014297485,0.02444458,0.0059661865,0.08144426,0.032761574,-0.051015496
1570715686,2.60318,-8.482346,-1.0161438,-4.4250488E-4,0.009521484,-0.0057525635,0.033412695,0.025997162,-0.010604262
1570715686,2.5780334,-8.555374,-1.0460815,-0.0015106201,0.005264282,0.0027618408,-0.045794725,-0.016301155,-0.0040056705
1570715686,2.4786682,-8.500305,-0.89404297,-4.4250488E-4,-0.011779785,-4.272461E-4,-0.07164025,0.021801949,0.10145819
1570715686,2.5133972,-8.562561,-0.9910126,0.002746582,-0.0011291504,0.0027618408,-0.1144824,-0.028102875,0.03534341
1570715686,2.572052,-8.554169,-0.9622803,0.007003784,-0.029891968,-0.0025634766,0.01851368,-0.07600498,0.054806113
1570715686,2.500229,-8.493118,-1.0185394,0.011276245,-0.021362305,-0.0025634766,-0.08354378,0.015892982,0.02098453
1570715686,2.52417,-8.452423,-1.0053711,0.002746582,-0.027755737,-0.0014953613,-0.105513096,0.050671577,-0.004429698
1570715686,2.5421143,-8.526642,-0.97784424,-0.0025787354,-0.041610718,-0.0025634766,-0.03661251,-0.008200645,-3.812313E-4
1570715686,2.5708466,-8.518265,-0.9443207,-0.0068359375,-0.04373169,-0.003616333,-0.030027628,-0.017811775,0.053236008
1570715686,2.5612793,-8.511078,-0.9790344,-0.0015106201,-0.028823853,-0.0046844482,0.02090311,-0.018440247,0.082772374
1570715686,2.4906464,-8.535019,-0.9981842,-0.007904053,-0.0362854,-0.0014953613,-0.05411911,-0.025535583,0.0072511435
1570715686,2.540924,-8.494324,-1.0173492,-0.008972168,-0.0362854,-0.0025634766,-0.047584057,0.04843521,0.009964228
1570715686,2.5337372,-8.506287,-1.0305176,-0.007904053,-0.028823853,-0.0014953613,-0.023406982,0.00303936,-0.011763692
1570715686,2.5912018,-8.494324,-1.0173492,-0.017486572,-0.025634766,-0.0025634766,0.05345559,-0.009074211,-0.0019170046
1570715686,2.5205688,-8.503891,-0.92396545,-0.019622803,-0.019241333,0.0027618408,-0.043700457,-4.2057037E-4,0.07895112
1570715686,2.6283112,-8.555374,-1.0161438,-0.018554688,-0.018173218,6.4086914E-4,0.08075476,-0.06261635,0.01785767
1570715686,2.563675,-8.47876,-1.0664215,-0.016418457,-0.040542603,-0.0057525635,0.011904001,0.010042191,0.0077068806
1570715686,2.5110016,-8.4739685,-1.1131134,-0.019622803,-0.008590698,-0.0014953613,-0.019925356,-0.020885468,-0.003892064
1570715687,2.5852203,-8.495514,-1.0400848,-0.021759033,-0.018173218,-0.0025634766,-0.0015377998,-0.012026787,2.3782253E-4
1570715687,2.5576782,-8.451218,-1.1119232,-0.019622803,-0.009643555,0.0059661865,-0.03429222,0.040833473,-0.046937704
1570715687,2.8066864,-8.566147,-1.0484619,-0.01322937,0.015914917,0.0048980713,0.18830705,-0.06662655,-0.017110229
1570715687,2.539734,-8.546997,-1.0448761,-0.004714966,-0.007522583,-0.0046844482,0.011866093,-0.010598183,0.013216138
1570715687,2.5205688,-8.4739685,-1.0424805,-0.0015106201,0.016983032,0.015548706,-0.04198146,-0.0076580048,0.04547298
1570715687,2.710907,-8.501495,-1.0329132,0.009140015,-0.0021972656,-0.0014953613,0.13277125,0.01784134,0.034740448
1570715687,2.4008636,-8.445236,-1.2830963,0.0016784668,-0.03201294,-0.0057525635,-0.12378192,0.017176628,-0.18728638
1570715687,2.5768433,-8.427277,-1.3309784,-0.0025787354,0.0031280518,0.003829956,0.017143488,0.08008385,-0.25354052
1570715687,2.7552032,-8.412918,-1.1657867,-0.01322937,-0.0043182373,0.0027618408,0.19126678,0.073293686,-0.010826707
1570715687,2.6570435,-8.521851,-1.1825409,-0.008972168,0.019119263,0.003829956,0.09353638,-0.008160591,-0.099334
1570715687,2.690567,-8.594879,-1.0807953,-0.007904053,-0.0032653809,-0.003616333,0.08998847,-0.10032654,0.023327231
1570715687,2.666626,-8.509888,-0.95988464,6.2561035E-4,0.0340271,6.4086914E-4,0.06799126,-0.059817314,0.07970154
1570715687,2.4978333,-8.488327,-1.0245209,0.013397217,0.016983032,-0.003616333,-0.08055544,-0.02170086,0.03388214
1570715687,2.303894,-8.410522,-1.1418457,0.002746582,0.0010070801,6.4086914E-4,-0.23629928,0.023356438,-0.018865705
1570715687,2.398468,-8.397354,-1.115509,-0.0068359375,-0.009643555,0.003829956,-0.19869328,0.06232071,-0.03156936
1570715687,2.414032,-8.55777,-1.0951538,-0.004714966,-0.035217285,-0.0057525635,-0.10857415,-7.619858E-4,0.040871024
1570715687,2.343399,-8.52066,-0.98023987,-0.0057678223,-0.030960083,-0.0057525635,-0.17277908,-0.06918335,0.033908606
1570715687,2.3481903,-8.563751,-0.9934082,-0.0015106201,-0.05758667,-0.0025634766,-0.21459746,-0.03555298,0.11853659
1570715687,2.4272003,-8.503891,-1.0879669,0.008071899,-0.041610718,6.4086914E-4,-0.09488177,-0.0042238235,0.002273798
1570715687,2.6522522,-8.526642,-1.1574097,0.008071899,-0.019241333,0.009155273,0.11976981,-0.019320488,-0.09443593
1570715687,2.7887268,-8.533829,-1.1047363,0.01234436,0.011657715,0.009155273,0.27031136,-0.018519402,0.015947819
1570715687,2.7276764,-8.514664,-1.190918,0.013397217,0.03616333,0.0017089844,0.21485019,0.053714752,-0.087491274
1570715687,2.4978333,-8.445236,-1.234024,0.008071899,0.037216187,-0.0014953613,-0.06234145,0.09491253,-0.14313579
1570715687,2.6151428,-8.509888,-1.0628357,0.002746582,0.040420532,0.0070343018,0.059376717,0.0107393265,-0.010531187
1570715687,2.5540924,-8.483551,-1.0269165,6.2561035E-4,0.030838013,6.4086914E-4,0.01742363,0.011081696,0.039813757
1570715687,2.5852203,-8.541,-1.0987549,-0.0025787354,0.03616333,0.0070343018,0.047486782,-0.057214737,-0.009250879
1570715687,2.7097168,-8.483551,-1.0257263,-0.0015106201,0.018051147,0.0059661865,0.1769247,0.0045232773,0.04759574
1570715687,2.595993,-8.462006,-0.9838257,0.016601562,0.021240234,6.4086914E-4,0.06868267,0.052757263,0.119966984
1570715687,2.539734,-8.563751,-1.0652313,0.01020813,0.0074005127,0.0027618408,-0.011915207,-0.07723427,-0.015141368
1570715687,2.4990234,-8.512283,-1.067627,0.008071899,0.0020751953,0.003829956,-0.08493376,0.052801132,0.024027228
1570715687,2.663025,-8.457214,-1.0987549,0.002746582,0.0105896,0.0059661865,0.102907896,0.026312828,-0.043625474
1570715687,2.500229,-8.47995,-1.0652313,0.01020813,0.014846802,0.0027618408,-0.03908229,0.026459694,-0.0064846277
1570715687,2.6331024,-8.567337,-0.9503021,0.01234436,0.0031280518,0.009155273,0.112476826,-0.045722008,0.052929282
1570715688,2.4822693,-8.4739685,-1.0460815,0.02192688,-0.0011291504,0.015548706,-0.08436322,0.040725708,-0.023455143
1570715688,2.5505066,-8.563751,-1.1609955,0.032577515,0.0031280518,0.0070343018,-0.013255119,-0.12376499,-0.10673118
1570715688,2.2979126,-8.356659,-1.0149536,0.02192688,-0.06716919,-0.0057525635,-0.24879837,0.14510345,0.044204354
1570715688,2.429596,-8.598465,-1.0376892,0.0059509277,-0.035217285,0.0048980713,-0.117430925,-0.08615017,-0.021608353
1570715688,2.659439,-8.484741,-1.0436859,0.013397217,-0.051193237,0.016616821,0.1155715,0.028388023,0.0010629892
1570715688,3.0844116,-8.485947,-1.0843811,0.03364563,0.011657715,0.013427734,0.53363943,0.032138824,-0.03803897
1570715688,2.8186493,-8.427277,-1.0185394,0.0357666,-0.017105103,-0.018539429,0.35232663,0.09231663,0.011705756
1570715688,2.4152222,-8.596069,-1.1274719,0.027252197,0.030838013,-0.007888794,-0.1371181,-0.08447933,-0.10613561
1570715688,2.2775574,-8.482346,-1.1238861,0.01234436,0.019119263,-0.0057525635,-0.2902038,0.009902954,-0.10818231
1570715688,2.2655945,-8.501495,-0.98501587,0.0059509277,0.011657715,-0.0046844482,-0.3010776,0.0082530975,-0.029390454
1570715688,2.204544,-8.512283,-1.0245209,-4.4250488E-4,-0.007522583,6.4086914E-4,-0.31725788,-0.04111767,0.0120821
1570715688,2.343399,-8.556564,-0.96946716,-0.0057678223,-0.0032653809,0.009155273,-0.25263953,0.0041389465,0.039792776
1570715688,2.6438751,-8.535019,-0.9000244,-0.0057678223,0.0105896,0.0027618408,0.09776354,-0.046032906,0.079772234
1570715688,2.5529022,-8.470383,-0.90960693,-0.004714966,-6.1035156E-5,-0.0046844482,0.0070431232,0.024084091,0.09215033
1570715688,2.6067657,-8.622406,-0.9945984,-0.0036468506,0.02230835,0.0059661865,0.019619226,-0.10108662,0.019875288
1570715688,2.484665,-8.477554,-0.97424316,-0.0025787354,-0.020309448,-0.011077881,-0.029505491,0.05818653,0.123425126
1570715688,2.5828247,-8.508682,-0.94911194,-0.014297485,0.02444458,-0.0025634766,0.04445386,0.0933218,0.05790329
1570715688,2.4391632,-8.575729,-0.89404297,-0.0036468506,-0.0011291504,-0.019607544,-0.098983526,-0.07362652,0.11573243
1570715688,2.3290405,-8.509888,-0.9084015,-0.0025787354,-0.039474487,-0.007888794,-0.25204253,-0.0019922256,0.1188333
1570715688,2.595993,-8.533829,-0.9479065,-0.0015106201,-0.070373535,-0.008956909,0.022410631,-0.0016012192,0.052226245
1570715688,2.7204895,-8.469177,-0.86891174,6.2561035E-4,-0.12683105,-0.026000977,0.1610055,0.021040916,0.19243097
1570715688,2.4918365,-8.52066,-1.0005798,0.0059509277,-0.11830139,-0.031326294,-0.062289476,-0.021300316,-0.023567915
1570715688,2.5026245,-8.610443,-1.0448761,0.002746582,-0.17370605,-0.023864746,-0.056041718,-0.06470394,-0.103880405
1570715688,2.5026245,-8.494324,-1.1657867,-0.0036468506,-0.16091919,-0.015335083,-0.06583214,-0.0051631927,-0.121564746
1570715688,2.7156982,-8.442841,-1.1179047,-0.020690918,-0.07356262,-0.0014953613,0.18377948,0.08132839,-0.06485498
1570715688,2.798294,-8.529037,-1.0484619,-0.018554688,0.013793945,6.4086914E-4,0.19708157,-0.03161335,-0.014357686
1570715688,2.738449,-8.438049,-1.1418457,-0.032409668,0.048934937,-0.0068206787,0.19194221,0.045677185,-0.07582533
1570715688,2.528946,-8.311157,-1.4052124,-0.02708435,-0.027755737,-0.019607544,-0.057802677,0.15388298,-0.33106565
1570715688,2.4367828,-8.428482,-1.2843018,-0.026016235,-0.05545044,-0.033447266,-0.12947321,0.018562317,-0.14394331
1570715688,2.307495,-8.518265,-1.1502228,-0.018554688,-0.029891968,-0.013214111,-0.25300288,-0.040920258,-0.042663217
1570715688,2.592392,-8.575729,-1.0819855,-0.023880005,0.02444458,0.010223389,0.007251978,-0.08702469,0.05561447
1570715688,2.817459,-8.484741,-1.0867767,-0.020690918,0.05532837,0.02407837,0.21027923,-0.00653553,0.049359202
1570715688,2.7480164,-8.505096,-1.0269165,0.007003784,-0.02243042,-0.012145996,0.16358972,0.014698982,0.17149627
1570715689,2.2859344,-8.551788,-1.1179047,0.017669678,-0.035217285,-0.019607544,-0.252064,-0.047636986,0.017214775
1570715689,2.3577728,-8.521851,-1.4291534,-0.0057678223,-0.0011291504,0.013427734,-0.2258203,-0.028949738,-0.31136394
1570715689,2.856964,-8.356659,-1.4135895,-0.031341553,0.11392212,0.06668091,0.1896956,0.16027546,-0.2612151
1570715689,3.200531,-8.379395,-0.99220276,-0.06010437,0.18528748,0.05923462,0.6828649,0.103526115,0.08675325
1570715689,2.4391632,-8.588898,-0.6294861,-0.021759033,0.08409119,-0.047302246,0.03381324,-0.045841217,0.50855315
1570715689,1.6000061,-8.653534,-1.0783997,0.011276245,-0.082092285,-0.05795288,-0.9126332,-0.22320747,0.0035089254
1570715689,2.1207428,-8.594879,-1.1681824,-0.012161255,-0.018173218,0.025146484,-0.596637,-0.10034275,-0.0064810514
1570715689,2.856964,-8.404541,-1.0688171,-0.039855957,0.056396484,0.05709839,0.22205472,0.074873924,0.053969264
1570715689,3.0197601,-8.374603,-1.067627,-0.039855957,-0.0043182373,0.018753052,0.46582747,0.09440422,0.0399431
1570715689,2.758789,-8.517059,-1.0376892,-0.015365601,-0.054397583,-0.04197693,0.26881576,-0.0057868958,0.15135896
1570715689,2.264389,-8.65712,-1.1801453,0.0038146973,-0.06716919,-0.027053833,-0.2953527,-0.1546011,-0.0209831
1570715689,2.3362274,-8.550583,-1.210083,-0.016418457,0.027633667,0.023010254,-0.27855396,-0.08371925,-0.04774177
1570715689,2.7049255,-8.369827,-1.4004211,-0.012161255,0.07237244,0.032592773,0.11660075,0.10106182,-0.15126705
1570715689,2.9180145,-8.4189,-1.2531738,-0.012161255,0.008453369,0.0027618408,0.41377974,0.062532425,-0.07782459
1570715689,2.6821747,-8.4344635,-1.1083221,-0.012161255,0.02017212,-0.007888794,0.13287091,0.06851292,0.021998167
1570715689,2.326645,-8.556564,-1.1753693,-0.0068359375,0.025497437,-0.003616333,-0.16763163,-0.037142754,0.07290828
1570715689,2.2667847,-8.603256,-1.0819855,6.2561035E-4,0.0105896,0.008102417,-0.30951643,-0.13055992,-0.002313137
1570715689,2.528946,-8.532623,-1.1166992,0.011276245,-0.021362305,0.011291504,-0.07724714,-0.03520298,0.08581877
1570715689,2.6642303,-8.432068,-1.0700226,0.011276245,-0.01071167,0.0048980713,0.069471836,0.08006668,0.02500987
1570715689,2.7001343,-8.470383,-1.1957092,0.01020813,-0.020309448,-0.0014953613,0.17542791,-0.022615433,-0.032303452
1570715689,2.4894562,-8.458405,-1.2615509,0.011276245,-0.0362854,-0.0057525635,-0.09206176,0.076096535,-0.108181715
1570715689,2.5457153,-8.442841,-1.3166199,-0.004714966,-0.011779785,0.0048980713,-0.024326324,0.060638428,-0.14996469
1570715689,2.6366882,-8.44165,-1.2531738,-0.015365601,0.0105896,0.0048980713,0.042374372,0.06297779,-0.109698296
1570715689,2.695343,-8.466782,-1.1286774,-0.020690918,0.02444458,0.003829956,0.14399505,0.028075218,0.05274248
1570715689,2.6151428,-8.47876,-1.1442413,-0.017486572,0.029769897,0.0027618408,0.06472945,0.011126518,0.05066669
1570715689,2.6007843,-8.500305,-1.0999451,-0.016418457,0.039352417,0.0017089844,0.072551966,-0.003739357,0.07586038
1570715689,2.4571228,-8.475159,-1.1394501,-0.020690918,0.029769897,0.0027618408,-0.11542678,-0.014461517,0.0102415085
1570715689,2.5193787,-8.476364,-1.230423,-0.019622803,0.042541504,0.010223389,-0.0557878,-0.0040454865,-0.021442533
1570715689,2.5672607,-8.464386,-1.1059265,-0.023880005,0.016983032,-0.008956909,0.025671005,-0.0045137405,0.029239774
1570715689,2.4954376,-8.605652,-1.1334686,-0.019622803,-0.020309448,-0.0025634766,-0.10677481,-0.09195328,0.037148714
1570715689,2.6175385,-8.357849,-1.0987549,-0.01322937,-0.009643555,-0.011077881,0.056936502,0.12650776,0.07771945
1570715689,2.3517761,-8.594879,-1.2280273,-0.016418457,-0.020309448,-0.015335083,-0.19808578,-0.096321106,-0.022014499
1570715689,2.3996735,-8.517059,-1.1226959,-0.017486572,-0.014968872,-0.0025634766,-0.16142154,-0.041261673,0.07914019
1570715689,2.7288666,-8.488327,-1.210083,-0.010040283,-0.008590698,0.003829956,0.18658185,0.024760246,0.022987843
1570715690,2.6151428,-8.467987,-1.2172546,-0.0015106201,-0.014968872,-0.012145996,0.05918336,0.018129349,-0.0058050156
1570715690,2.5301514,-8.511078,-1.3704834,-0.010040283,-0.0032653809,-0.013214111,-0.03403449,-0.033216476,-0.14989543
1570715690,2.5301514,-8.511078,-1.3704834,-0.010040283,-0.0032653809,-0.013214111,-0.03403449,-0.033216476,-0.14989543
1570715690,2.5301514,-8.511078,-1.3704834,-0.010040283,-0.0032653809,-0.013214111,-0.03403449,-0.033216476,-0.14989543
1570715690,2.5301514,-8.511078,-1.3704834,-0.010040283,-0.0032653809,-0.013214111,-0.03403449,-0.033216476,-0.14989543
1570715690,2.5301514,-8.511078,-1.3704834,-0.010040283,-0.0032653809,-0.013214111,-0.03403449,-0.033216476,-0.14989543
1570715690,2.5301514,-8.511078,-1.3704834,-0.010040283,-0.0032653809,-0.013214111,-0.03403449,-0.033216476,-0.14989543
1570715690,2.5301514,-8.511078,-1.3704834,-0.010040283,-0.0032653809,-0.013214111,-0.03403449,-0.033216476,-0.14989543
1570715690,2.5301514,-8.511078,-1.3704834,-0.010040283,-0.0032653809,-0.013214111,-0.03403449,-0.033216476,-0.14989543
1570715690,2.5301514,-8.511078,-1.3704834,-0.010040283,-0.0032653809,-0.013214111,-0.03403449,-0.033216476,-0.14989543
1570715690,2.5301514,-8.511078,-1.3704834,-0.010040283,-0.0032653809,-0.013214111,-0.03403449,-0.033216476,-0.14989543
1570715690,2.6187286,-8.47995,-1.2220459,-0.0068359375,0.014846802,-0.0025634766,0.033853292,-0.0045433044,0.01497674
1570715690,2.5708466,-8.472778,-1.2196503,-4.4250488E-4,0.01272583,-0.0014953613,7.305145E-4,0.0068187714,-0.009157062
1570715690,2.6211243,-8.448837,-1.2364197,-0.007904053,0.014846802,-4.272461E-4,0.04362583,0.008481026,-0.0061422586
1570715690,2.5971832,-8.45961,-1.2388153,-0.0036468506,0.016983032,6.4086914E-4,0.0014538765,0.005759239,-0.010821819
1570715690,2.6654205,-8.506287,-1.2232513,-0.0057678223,0.0074005127,-0.0014953613,0.06778669,-0.027122498,0.007679105
1570715690,2.5768433,-8.483551,-1.2687378,-4.4250488E-4,0.014846802,0.0017089844,0.004599571,0.009044647,-0.04406643
1570715690,2.6127472,-8.422501,-1.2878876,-0.0025787354,0.023376465,0.0027618408,0.016628504,0.03656006,-0.04204762
1570715690,2.6546478,-8.424881,-1.2112732,-0.0015106201,0.016983032,0.003829956,0.043152332,0.027705193,0.008141279
1570715690,2.5947876,-8.466782,-1.3142242,-0.0025787354,0.015914917,-0.0014953613,0.028206348,0.023628235,-0.047543764
1570715690,2.4870605,-8.495514,-1.2531738,-0.0057678223,0.0105896,-0.0014953613,-9.772778E-4,0.030280113,-0.056937456
1570715690,2.563675,-8.477554,-1.2663422,-0.0068359375,0.0382843,0.010223389,-0.037845135,-0.02931881,-0.00764966
1570715690,2.5983887,-8.514664,-1.186142,-0.004714966,0.02230835,0.0059661865,0.019473553,-0.035512924,0.062141657
1570715690,2.659439,-8.493118,-1.2424011,-0.0036468506,0.02444458,0.0048980713,0.06491995,-0.012813568,0.010202169
1570715690,2.5540924,-8.442841,-1.2328186,-0.0025787354,0.02017212,0.0017089844,-0.02084279,0.025040627,0.017953634
1570715690,2.627121,-8.499115,-1.225647,-0.0057678223,0.02230835,0.0048980713,0.008155584,-0.02398777,-0.03374362
1570715690,2.5864105,-8.453613,-1.2016907,-0.0068359375,-0.0032653809,-4.272461E-4,-0.017221928,0.0032634735,0.020200491
1570715690,2.5852203,-8.454819,-1.2136688,-0.0036468506,0.008453369,6.4086914E-4,-0.009429693,0.015004158,0.0030343533
1570715690,2.6582336,-8.481155,-1.2615509,-0.0015106201,0.01272583,-0.0025634766,0.054021597,-0.017374992,-0.030117273
1570715690,2.4954376,-8.446442,-1.1681824,-0.0036468506,-6.1035156E-5,-0.003616333,-0.09945893,0.027971268,0.03996992
1570715690,2.611557,-8.4739685,-1.1813507,-0.0025787354,0.016983032,0.0048980713,0.009898901,-0.019124985,0.027656674
1570715690,2.6247253,-8.469177,-1.2483826,-0.0025787354,-0.0021972656,-0.0025634766,0.054933786,-0.01727295,-0.003770113
1570715690,2.5469055,-8.445236,-1.1897278,-4.4250488E-4,-0.006454468,-0.0025634766,-0.034756422,0.021838188,0.04030478
1570715691,2.5349426,-8.472778,-1.2124786,-0.0057678223,0.004196167,6.4086914E-4,-0.03433156,-0.0031261444,-0.00172019
1570715691,2.6498566,-8.462006,-1.1813507,-0.0068359375,0.0010070801,-0.0014953613,0.05657363,0.0033168793,0.0479635
1570715691,2.5696564,-8.505096,-1.2400055,-0.0036468506,-0.006454468,-4.272461E-4,-0.018813372,-0.016626358,-0.034851193
1570715691,2.6151428,-8.477554,-1.2615509,6.2561035E-4,0.0010070801,0.0017089844,0.007844925,0.00785923,0.0033118725
1570715691,2.6127472,-8.458405,-1.2040863,0.0048828125,-6.1035156E-5,-0.0025634766,0.042857885,0.0051603317,0.019608974
1570715691,2.5588837,-8.508682,-1.3034515,0.0016784668,-0.007522583,-4.272461E-4,-0.02964902,0.0013408661,-0.08749831
1570715691,2.592392,-8.484741,-1.2364197,6.2561035E-4,-0.0053863525,0.0027618408,-0.010701656,-0.0049324036,-0.077160716
1570715691,2.6737976,-8.452423,-1.293869,0.009140015,-0.008590698,-4.272461E-4,0.03733754,0.009585381,-0.029331803
1570715691,2.6151428,-8.435669,-1.2843018,0.01020813,-0.006454468,0.0027618408,0.04894209,0.0022144318,0.010905385
1570715715,2.6151428,-8.435669,-1.2843018,0.01020813,-0.006454468,0.0027618408,0.009449959,-0.02845478,0.042439222
1570715715,2.6151428,-8.435669,-1.2843018,0.01020813,-0.006454468,0.0027618408,0.009449959,-0.02845478,0.042439222
1570715715,2.6151428,-8.435669,-1.2843018,0.01020813,-0.006454468,0.0027618408,0.009449959,-0.02845478,0.042439222
1570715715,2.6151428,-8.435669,-1.2843018,0.01020813,-0.006454468,0.0027618408,0.009449959,-0.02845478,0.042439222
1570715715,2.6151428,-8.435669,-1.2843018,0.01020813,-0.006454468,0.0027618408,0.009449959,-0.02845478,0.042439222
1570715715,2.6151428,-8.435669,-1.2843018,0.01020813,-0.006454468,0.0027618408,0.009449959,-0.02845478,0.042439222
1570715715,2.6151428,-8.435669,-1.2843018,0.01020813,-0.006454468,0.0027618408,0.009449959,-0.02845478,0.042439222
1570715715,2.6151428,-8.435669,-1.2843018,0.01020813,-0.006454468,0.0027618408,0.009449959,-0.02845478,0.042439222
1570715715,2.6151428,-8.435669,-1.2843018,0.01020813,-0.006454468,0.0027618408,0.009449959,-0.02845478,0.042439222
1570715715,2.6151428,-8.435669,-1.2843018,0.01020813,-0.006454468,0.0027618408,0.009449959,-0.02845478,0.042439222
1570715715,2.6151428,-8.435669,-1.2843018,0.01020813,-0.006454468,0.0027618408,0.009449959,-0.02845478,0.042439222
1570715715,2.6151428,-8.435669,-1.2843018,0.01020813,-0.006454468,0.0027618408,0.009449959,-0.02845478,0.042439222
1570715715,2.6151428,-8.435669,-1.2843018,0.01020813,-0.006454468,0.0027618408,0.009449959,-0.02845478,0.042439222
1570715715,2.6151428,-8.435669,-1.2843018,0.01020813,-0.006454468,0.0027618408,0.009449959,-0.02845478,0.042439222
1570715715,2.6151428,-8.435669,-1.2843018,0.01020813,-0.006454468,0.0027618408,0.009449959,-0.02845478,0.042439222
1570715715,2.6151428,-8.435669,-1.2843018,0.01020813,-0.006454468,0.0027618408,0.009449959,-0.02845478,0.042439222
1570715715,2.6151428,-8.435669,-1.2843018,0.01020813,-0.006454468,0.0027618408,0.009449959,-0.02845478,0.042439222
1570715715,2.6151428,-8.435669,-1.2843018,0.01020813,-0.006454468,0.0027618408,0.009449959,-0.02845478,0.042439222
1570715715,2.6151428,-8.435669,-1.2843018,0.01020813,-0.006454468,0.0027618408,0.009449959,-0.02845478,0.042439222
1570715715,2.6151428,-8.435669,-1.2843018,0.01020813,-0.006454468,0.0027618408,0.009449959,-0.02845478,0.042439222
1570715715,2.6151428,-8.435669,-1.2843018,0.01020813,-0.006454468,0.0027618408,0.009449959,-0.02845478,0.042439222
1570715715,2.6151428,-8.435669,-1.2843018,0.01020813,-0.006454468,0.0027618408,0.009449959,-0.02845478,0.042439222
1570715715,2.6151428,-8.435669,-1.2843018,0.01020813,-0.006454468,0.0027618408,0.009449959,-0.02845478,0.042439222
1570715715,2.6151428,-8.435669,-1.2843018,0.01020813,-0.006454468,0.0027618408,0.009449959,-0.02845478,0.042439222
1570715715,2.6151428,-8.435669,-1.2843018,0.01020813,-0.006454468,0.0027618408,0.009449959,-0.02845478,0.042439222
1570715715,2.6151428,-8.435669,-1.2843018,0.01020813,-0.006454468,0.0027618408,0.009449959,-0.02845478,0.042439222
1570715715,2.6151428,-8.435669,-1.2843018,0.01020813,-0.006454468,0.0027618408,0.009449959,-0.02845478,0.042439222
1570715715,2.6151428,-8.435669,-1.2843018,0.01020813,-0.006454468,0.0027618408,0.009449959,-0.02845478,0.042439222
1570715715,2.6151428,-8.435669,-1.2843018,0.01020813,-0.006454468,0.0027618408,0.009449959,-0.02845478,0.042439222
1570715715,2.6151428,-8.435669,-1.2843018,0.01020813,-0.006454468,0.0027618408,0.009449959,-0.02845478,0.042439222
1570715715,2.6151428,-8.435669,-1.2843018,0.01020813,-0.006454468,0.0027618408,0.009449959,-0.02845478,0.042439222
1570715715,2.6151428,-8.435669,-1.2843018,0.01020813,-0.006454468,0.0027618408,0.009449959,-0.02845478,0.042439222
1570715715,2.6151428,-8.435669,-1.2843018,0.01020813,-0.006454468,0.0027618408,0.009449959,-0.02845478,0.042439222
1570715715,2.6151428,-8.435669,-1.2843018,0.01020813,-0.006454468,0.0027618408,0.009449959,-0.02845478,0.042439222
1570715715,2.6151428,-8.435669,-1.2843018,0.01020813,-0.006454468,0.0027618408,0.009449959,-0.02845478,0.042439222
1570715715,2.6151428,-8.435669,-1.2843018,0.01020813,-0.006454468,0.0027618408,0.009449959,-0.02845478,0.042439222
1570715715,2.6151428,-8.435669,-1.2843018,0.01020813,-0.006454468,0.0027618408,0.009449959,-0.02845478,0.042439222
1570715715,2.6151428,-8.435669,-1.2843018,0.01020813,-0.006454468,0.0027618408,0.009449959,-0.02845478,0.042439222
1570715715,2.6151428,-8.435669,-1.2843018,0.01020813,-0.006454468,0.0027618408,0.009449959,-0.02845478,0.042439222
1570715715,2.6151428,-8.435669,-1.2843018,0.01020813,-0.006454468,0.0027618408,0.009449959,-0.02845478,0.042439222
1570715715,2.6151428,-8.435669,-1.2843018,0.01020813,-0.006454468,0.0027618408,0.009449959,-0.02845478,0.042439222
1570715715,2.6151428,-8.435669,-1.2843018,0.01020813,-0.006454468,0.0027618408,0.009449959,-0.02845478,0.042439222
1570715715,2.6151428,-8.435669,-1.2843018,0.01020813,-0.006454468,0.0027618408,0.009449959,-0.02845478,0.042439222
1570715715,2.6151428,-8.435669,-1.2843018,0.01020813,-0.006454468,0.0027618408,0.009449959,-0.02845478,0.042439222
1570715715,2.6151428,-8.435669,-1.2843018,0.01020813,-0.006454468,0.0027618408,0.009449959,-0.02845478,0.042439222
1570715715,2.6151428,-8.435669,-1.2843018,0.01020813,-0.006454468,0.0027618408,0.009449959,-0.02845478,0.042439222
1570715715,2.6151428,-8.435669,-1.2843018,0.01020813,-0.006454468,0.0027618408,0.009449959,-0.02845478,0.042439222
1570715715,2.6151428,-8.435669,-1.2843018,0.01020813,-0.006454468,0.0027618408,0.009449959,-0.02845478,0.042439222
1570715715,2.6151428,-8.435669,-1.2843018,0.01020813,-0.006454468,0.0027618408,0.009449959,-0.02845478,0.042439222
1570715715,2.6151428,-8.435669,-1.2843018,0.01020813,-0.006454468,0.0027618408,0.009449959,-0.02845478,0.042439222
1570715715,2.6151428,-8.435669,-1.2843018,0.01020813,-0.006454468,0.0027618408,0.009449959,-0.02845478,0.042439222
1570715715,2.6151428,-8.435669,-1.2843018,0.01020813,-0.006454468,0.0027618408,0.009449959,-0.02845478,0.042439222
1570715715,2.6151428,-8.435669,-1.2843018,0.01020813,-0.006454468,0.0027618408,0.009449959,-0.02845478,0.042439222
1570715715,2.6151428,-8.435669,-1.2843018,0.01020813,-0.006454468,0.0027618408,0.009449959,-0.02845478,0.042439222
1570715715,2.6151428,-8.435669,-1.2843018,0.01020813,-0.006454468,0.0027618408,0.009449959,-0.02845478,0.042439222
1570715715,2.6151428,-8.435669,-1.2843018,0.01020813,-0.006454468,0.0027618408,0.009449959,-0.02845478,0.042439222
1570715715,2.6151428,-8.435669,-1.2843018,0.01020813,-0.006454468,0.0027618408,0.009449959,-0.02845478,0.042439222
1570715715,2.6151428,-8.435669,-1.2843018,0.01020813,-0.006454468,0.0027618408,0.009449959,-0.02845478,0.042439222
1570715715,2.6151428,-8.435669,-1.2843018,0.01020813,-0.006454468,0.0027618408,0.009449959,-0.02845478,0.042439222
1570715715,2.6151428,-8.435669,-1.2843018,0.01020813,-0.006454468,0.0027618408,0.009449959,-0.02845478,0.042439222
1570715715,2.6151428,-8.435669,-1.2843018,0.01020813,-0.006454468,0.0027618408,0.009449959,-0.02845478,0.042439222
1570715715,2.6151428,-8.435669,-1.2843018,0.01020813,-0.006454468,0.0027618408,0.009449959,-0.02845478,0.042439222
1570715715,2.6151428,-8.435669,-1.2843018,0.01020813,-0.006454468,0.0027618408,0.009449959,-0.02845478,0.042439222
1570715715,2.6151428,-8.435669,-1.2843018,0.01020813,-0.006454468,0.0027618408,0.009449959,-0.02845478,0.042439222
1570715715,2.6151428,-8.435669,-1.2843018,0.01020813,-0.006454468,0.0027618408,0.009449959,-0.02845478,0.042439222
1570715715,2.6151428,-8.435669,-1.2843018,0.01020813,-0.006454468,0.0027618408,0.009449959,-0.02845478,0.042439222
1570715715,2.6151428,-8.435669,-1.2843018,0.01020813,-0.006454468,0.0027618408,0.009449959,-0.02845478,0.042439222
1570715715,2.6151428,-8.435669,-1.2843018,0.01020813,-0.006454468,0.0027618408,0.009449959,-0.02845478,0.042439222
1570715715,2.6151428,-8.435669,-1.2843018,0.01020813,-0.006454468,0.0027618408,0.009449959,-0.02845478,0.042439222
1570715715,2.6151428,-8.435669,-1.2843018,0.01020813,-0.006454468,0.0027618408,0.009449959,-0.02845478,0.042439222
1570715715,2.6151428,-8.435669,-1.2843018,0.01020813,-0.006454468,0.0027618408,0.009449959,-0.02845478,0.042439222
1570715715,2.6151428,-8.435669,-1.2843018,0.01020813,-0.006454468,0.0027618408,0.009449959,-0.02845478,0.042439222
1570715715,2.6151428,-8.435669,-1.2843018,0.01020813,-0.006454468,0.0027618408,0.009449959,-0.02845478,0.042439222
1570715715,2.6151428,-8.435669,-1.2843018,0.01020813,-0.006454468,0.0027618408,0.009449959,-0.02845478,0.042439222
1570715715,2.6151428,-8.435669,-1.2843018,0.01020813,-0.006454468,0.0027618408,0.009449959,-0.02845478,0.042439222
1570715715,2.6151428,-8.435669,-1.2843018,0.01020813,-0.006454468,0.0027618408,0.009449959,-0.02845478,0.042439222
1570715715,2.6151428,-8.435669,-1.2843018,0.01020813,-0.006454468,0.0027618408,0.009449959,-0.02845478,0.042439222
1570715715,2.6151428,-8.435669,-1.2843018,0.01020813,-0.006454468,0.0027618408,0.009449959,-0.02845478,0.042439222
1570715715,2.6151428,-8.435669,-1.2843018,0.01020813,-0.006454468,0.0027618408,0.009449959,-0.02845478,0.042439222
1570715715,2.6151428,-8.435669,-1.2843018,0.01020813,-0.006454468,0.0027618408,0.009449959,-0.02845478,0.042439222
1570715715,2.6151428,-8.435669,-1.2843018,0.01020813,-0.006454468,0.0027618408,0.009449959,-0.02845478,0.042439222
1570715715,2.6151428,-8.435669,-1.2843018,0.01020813,-0.006454468,0.0027618408,0.009449959,-0.02845478,0.042439222
1570715715,2.6151428,-8.435669,-1.2843018,0.01020813,-0.006454468,0.0027618408,0.009449959,-0.02845478,0.042439222
1570715715,2.6151428,-8.435669,-1.2843018,0.01020813,-0.006454468,0.0027618408,0.009449959,-0.02845478,0.042439222
1570715715,2.6151428,-8.435669,-1.2843018,0.01020813,-0.006454468,0.0027618408,0.009449959,-0.02845478,0.042439222
1570715715,2.6151428,-8.435669,-1.2843018,0.01020813,-0.006454468,0.0027618408,0.009449959,-0.02845478,0.042439222
1570715715,2.6151428,-8.435669,-1.2843018,0.01020813,-0.006454468,0.0027618408,0.009449959,-0.02845478,0.042439222
1570715715,2.6151428,-8.435669,-1.2843018,0.01020813,-0.006454468,0.0027618408,0.009449959,-0.02845478,0.042439222
1570715715,2.6151428,-8.435669,-1.2843018,0.01020813,-0.006454468,0.0027618408,0.009449959,-0.02845478,0.042439222
1570715715,2.6151428,-8.435669,-1.2843018,0.01020813,-0.006454468,0.0027618408,0.009449959,-0.02845478,0.042439222
1570715715,2.6151428,-8.435669,-1.2843018,0.01020813,-0.006454468,0.0027618408,0.009449959,-0.02845478,0.042439222
1570715715,2.6151428,-8.435669,-1.2843018,0.01020813,-0.006454468,0.0027618408,0.009449959,-0.02845478,0.042439222
1570715715,2.6151428,-8.435669,-1.2843018,0.01020813,-0.006454468,0.0027618408,0.009449959,-0.02845478,0.042439222
1570715715,2.6151428,-8.435669,-1.2843018,0.01020813,-0.006454468,0.0027618408,0.009449959,-0.02845478,0.042439222
1570715715,2.6151428,-8.435669,-1.2843018,0.01020813,-0.006454468,0.0027618408,0.009449959,-0.02845478,0.042439222
1570715715,2.6151428,-8.435669,-1.2843018,0.01020813,-0.006454468,0.0027618408,0.009449959,-0.02845478,0.042439222
1570715715,2.6151428,-8.435669,-1.2843018,0.01020813,-0.006454468,0.0027618408,0.009449959,-0.02845478,0.042439222
1570715715,2.6151428,-8.435669,-1.2843018,0.01020813,-0.006454468,0.0027618408,0.009449959,-0.02845478,0.042439222
1570715715,2.6151428,-8.435669,-1.2843018,0.01020813,-0.006454468,0.0027618408,0.009449959,-0.02845478,0.042439222
1570715715,2.6151428,-8.435669,-1.2843018,0.01020813,-0.006454468,0.0027618408,0.009449959,-0.02845478,0.042439222
1570715715,2.6151428,-8.435669,-1.2843018,0.01020813,-0.006454468,0.0027618408,0.009449959,-0.02845478,0.042439222
1570715715,2.6151428,-8.435669,-1.2843018,0.01020813,-0.006454468,0.0027618408,0.009449959,-0.02845478,0.042439222
1570715715,2.6151428,-8.435669,-1.2843018,0.01020813,-0.006454468,0.0027618408,0.009449959,-0.02845478,0.042439222
1570715715,2.6151428,-8.435669,-1.2843018,0.01020813,-0.006454468,0.0027618408,0.009449959,-0.02845478,0.042439222
1570715715,2.6151428,-8.435669,-1.2843018,0.01020813,-0.006454468,0.0027618408,0.009449959,-0.02845478,0.042439222
1570715715,2.6151428,-8.435669,-1.2843018,0.01020813,-0.006454468,0.0027618408,0.009449959,-0.02845478,0.042439222
1570715715,2.6151428,-8.435669,-1.2843018,0.01020813,-0.006454468,0.0027618408,0.009449959,-0.02845478,0.042439222
1570715715,2.6151428,-8.435669,-1.2843018,0.01020813,-0.006454468,0.0027618408,0.009449959,-0.02845478,0.042439222
1570715715,2.6151428,-8.435669,-1.2843018,0.01020813,-0.006454468,0.0027618408,0.009449959,-0.02845478,0.042439222
1570715715,2.6151428,-8.435669,-1.2843018,0.01020813,-0.006454468,0.0027618408,0.009449959,-0.02845478,0.042439222
1570715715,2.6151428,-8.435669,-1.2843018,0.01020813,-0.006454468,0.0027618408,0.009449959,-0.02845478,0.042439222
1570715715,2.6151428,-8.435669,-1.2843018,0.01020813,-0.006454468,0.0027618408,0.009449959,-0.02845478,0.042439222
1570715715,2.6151428,-8.435669,-1.2843018,0.01020813,-0.006454468,0.0027618408,0.009449959,-0.02845478,0.042439222
1570715715,2.6151428,-8.435669,-1.2843018,0.01020813,-0.006454468,0.0027618408,0.009449959,-0.02845478,0.042439222
1570715715,2.6151428,-8.435669,-1.2843018,0.01020813,-0.006454468,0.0027618408,0.009449959,-0.02845478,0.042439222
1570715715,2.6151428,-8.435669,-1.2843018,0.01020813,-0.006454468,0.0027618408,0.009449959,-0.02845478,0.042439222
1570715715,2.6151428,-8.435669,-1.2843018,0.01020813,-0.006454468,0.0027618408,0.009449959,-0.02845478,0.042439222
1570715715,2.6151428,-8.435669,-1.2843018,0.01020813,-0.006454468,0.0027618408,0.009449959,-0.02845478,0.042439222
1570715715,2.6151428,-8.435669,-1.2843018,0.01020813,-0.006454468,0.0027618408,0.009449959,-0.02845478,0.042439222
1570715715,2.6151428,-8.435669,-1.2843018,0.01020813,-0.006454468,0.0027618408,0.009449959,-0.02845478,0.042439222
1570715715,2.6151428,-8.435669,-1.2843018,0.01020813,-0.006454468,0.0027618408,0.009449959,-0.02845478,0.042439222
1570715715,2.6151428,-8.435669,-1.2843018,0.01020813,-0.006454468,0.0027618408,0.009449959,-0.02845478,0.042439222
1570715715,2.6151428,-8.435669,-1.2843018,0.01020813,-0.006454468,0.0027618408,0.009449959,-0.02845478,0.042439222
1570715715,2.6151428,-8.435669,-1.2843018,0.01020813,-0.006454468,0.0027618408,0.009449959,-0.02845478,0.042439222
1570715715,2.6151428,-8.435669,-1.2843018,0.01020813,-0.006454468,0.0027618408,0.009449959,-0.02845478,0.042439222
1570715715,2.6151428,-8.435669,-1.2843018,0.01020813,-0.006454468,0.0027618408,0.009449959,-0.02845478,0.042439222
1570715715,2.6151428,-8.435669,-1.2843018,0.01020813,-0.006454468,0.0027618408,0.009449959,-0.02845478,0.042439222
1570715715,2.6151428,-8.435669,-1.2843018,0.01020813,-0.006454468,0.0027618408,0.009449959,-0.02845478,0.042439222
1570715715,2.6151428,-8.435669,-1.2843018,0.01020813,-0.006454468,0.0027618408,0.009449959,-0.02845478,0.042439222
1570715715,2.6151428,-8.435669,-1.2843018,0.01020813,-0.006454468,0.0027618408,0.009449959,-0.02845478,0.042439222
1570715715,2.6151428,-8.435669,-1.2843018,0.01020813,-0.006454468,0.0027618408,0.009449959,-0.02845478,0.042439222
1570715715,2.6151428,-8.435669,-1.2843018,0.01020813,-0.006454468,0.0027618408,0.009449959,-0.02845478,0.042439222
1570715715,2.6151428,-8.435669,-1.2843018,0.01020813,-0.006454468,0.0027618408,0.009449959,-0.02845478,0.042439222
1570715715,2.6151428,-8.435669,-1.2843018,0.01020813,-0.006454468,0.0027618408,0.009449959,-0.02845478,0.042439222
1570715715,2.6151428,-8.435669,-1.2843018,0.01020813,-0.006454468,0.0027618408,0.009449959,-0.02845478,0.042439222
1570715715,2.6151428,-8.435669,-1.2843018,0.01020813,-0.006454468,0.0027618408,0.009449959,-0.02845478,0.042439222
1570715715,2.6151428,-8.435669,-1.2843018,0.01020813,-0.006454468,0.0027618408,0.009449959,-0.02845478,0.042439222
1570715715,2.6151428,-8.435669,-1.2843018,0.01020813,-0.006454468,0.0027618408,0.009449959,-0.02845478,0.042439222
1570715715,2.6151428,-8.435669,-1.2843018,0.01020813,-0.006454468,0.0027618408,0.009449959,-0.02845478,0.042439222
1570715715,2.6151428,-8.435669,-1.2843018,0.01020813,-0.006454468,0.0027618408,0.009449959,-0.02845478,0.042439222
1570715715,2.6151428,-8.435669,-1.2843018,0.01020813,-0.006454468,0.0027618408,0.009449959,-0.02845478,0.042439222
1570715715,2.6151428,-8.435669,-1.2843018,0.01020813,-0.006454468,0.0027618408,0.009449959,-0.02845478,0.042439222
1570715715,2.6151428,-8.435669,-1.2843018,0.01020813,-0.006454468,0.0027618408,0.009449959,-0.02845478,0.042439222
1570715715,2.6151428,-8.435669,-1.2843018,0.01020813,-0.006454468,0.0027618408,0.009449959,-0.02845478,0.042439222
1570715715,2.6151428,-8.435669,-1.2843018,0.01020813,-0.006454468,0.0027618408,0.009449959,-0.02845478,0.042439222
1570715715,2.6151428,-8.435669,-1.2843018,0.01020813,-0.006454468,0.0027618408,0.009449959,-0.02845478,0.042439222
1570715715,2.6151428,-8.435669,-1.2843018,0.01020813,-0.006454468,0.0027618408,0.009449959,-0.02845478,0.042439222
1570715715,2.6151428,-8.435669,-1.2843018,0.01020813,-0.006454468,0.0027618408,0.009449959,-0.02845478,0.042439222
1570715715,2.6151428,-8.435669,-1.2843018,0.01020813,-0.006454468,0.0027618408,0.009449959,-0.02845478,0.042439222
1570715715,2.6151428,-8.435669,-1.2843018,0.01020813,-0.006454468,0.0027618408,0.009449959,-0.02845478,0.042439222
1570715715,2.6151428,-8.435669,-1.2843018,0.01020813,-0.006454468,0.0027618408,0.009449959,-0.02845478,0.042439222
1570715715,2.6151428,-8.435669,-1.2843018,0.01020813,-0.006454468,0.0027618408,0.009449959,-0.02845478,0.042439222
1570715715,2.6151428,-8.435669,-1.2843018,0.01020813,-0.006454468,0.0027618408,0.009449959,-0.02845478,0.042439222
1570715715,2.6151428,-8.435669,-1.2843018,0.01020813,-0.006454468,0.0027618408,0.009449959,-0.02845478,0.042439222
1570715715,2.6151428,-8.435669,-1.2843018,0.01020813,-0.006454468,0.0027618408,0.009449959,-0.02845478,0.042439222
1570715715,2.6151428,-8.435669,-1.2843018,0.01020813,-0.006454468,0.0027618408,0.009449959,-0.02845478,0.042439222
1570715715,2.6151428,-8.435669,-1.2843018,0.01020813,-0.006454468,0.0027618408,0.009449959,-0.02845478,0.042439222
1570715715,2.6151428,-8.435669,-1.2843018,0.01020813,-0.006454468,0.0027618408,0.009449959,-0.02845478,0.042439222
1570715715,2.6151428,-8.435669,-1.2843018,0.01020813,-0.006454468,0.0027618408,0.009449959,-0.02845478,0.042439222
1570715715,2.6151428,-8.435669,-1.2843018,0.01020813,-0.006454468,0.0027618408,0.009449959,-0.02845478,0.042439222
1570715715,2.6151428,-8.435669,-1.2843018,0.01020813,-0.006454468,0.0027618408,0.009449959,-0.02845478,0.042439222
1570715715,2.6151428,-8.435669,-1.2843018,0.01020813,-0.006454468,0.0027618408,0.009449959,-0.02845478,0.042439222
1570715715,2.6151428,-8.435669,-1.2843018,0.01020813,-0.006454468,0.0027618408,0.009449959,-0.02845478,0.042439222
1570715715,2.6151428,-8.435669,-1.2843018,0.01020813,-0.006454468,0.0027618408,0.009449959,-0.02845478,0.042439222
1570715715,2.6151428,-8.435669,-1.2843018,0.01020813,-0.006454468,0.0027618408,0.009449959,-0.02845478,0.042439222
1570715715,2.6151428,-8.435669,-1.2843018,0.01020813,-0.006454468,0.0027618408,0.009449959,-0.02845478,0.042439222
1570715715,2.6151428,-8.435669,-1.2843018,0.01020813,-0.006454468,0.0027618408,0.009449959,-0.02845478,0.042439222
1570715715,2.6151428,-8.435669,-1.2843018,0.01020813,-0.006454468,0.0027618408,0.009449959,-0.02845478,0.042439222
1570715715,2.6151428,-8.435669,-1.2843018,0.01020813,-0.006454468,0.0027618408,0.009449959,-0.02845478,0.042439222
1570715715,2.6151428,-8.435669,-1.2843018,0.01020813,-0.006454468,0.0027618408,0.009449959,-0.02845478,0.042439222
1570715715,2.6151428,-8.435669,-1.2843018,0.01020813,-0.006454468,0.0027618408,0.009449959,-0.02845478,0.042439222
1570715715,2.6151428,-8.435669,-1.2843018,0.01020813,-0.006454468,0.0027618408,0.009449959,-0.02845478,0.042439222
1570715715,2.6151428,-8.435669,-1.2843018,0.01020813,-0.006454468,0.0027618408,0.009449959,-0.02845478,0.042439222
1570715715,2.6151428,-8.435669,-1.2843018,0.01020813,-0.006454468,0.0027618408,0.009449959,-0.02845478,0.042439222
1570715715,2.6151428,-8.435669,-1.2843018,0.01020813,-0.006454468,0.0027618408,0.009449959,-0.02845478,0.042439222
1570715715,2.6151428,-8.435669,-1.2843018,0.01020813,-0.006454468,0.0027618408,0.009449959,-0.02845478,0.042439222
1570715715,2.6151428,-8.435669,-1.2843018,0.01020813,-0.006454468,0.0027618408,0.009449959,-0.02845478,0.042439222
1570715715,2.6151428,-8.435669,-1.2843018,0.01020813,-0.006454468,0.0027618408,0.009449959,-0.02845478,0.042439222
1570715715,2.6151428,-8.435669,-1.2843018,0.01020813,-0.006454468,0.0027618408,0.009449959,-0.02845478,0.042439222
1570715715,2.6151428,-8.435669,-1.2843018,0.01020813,-0.006454468,0.0027618408,0.009449959,-0.02845478,0.042439222
1570715715,2.6151428,-8.435669,-1.2843018,0.01020813,-0.006454468,0.0027618408,0.009449959,-0.02845478,0.042439222
1570715715,2.6151428,-8.435669,-1.2843018,0.01020813,-0.006454468,0.0027618408,0.009449959,-0.02845478,0.042439222
1570715715,2.6151428,-8.435669,-1.2843018,0.01020813,-0.006454468,0.0027618408,0.009449959,-0.02845478,0.042439222
1570715715,2.6151428,-8.435669,-1.2843018,0.01020813,-0.006454468,0.0027618408,0.009449959,-0.02845478,0.042439222
1570715715,2.6151428,-8.435669,-1.2843018,0.01020813,-0.006454468,0.0027618408,0.009449959,-0.02845478,0.042439222
1570715715,2.6151428,-8.435669,-1.2843018,0.01020813,-0.006454468,0.0027618408,0.009449959,-0.02845478,0.042439222
1570715715,2.6151428,-8.435669,-1.2843018,0.01020813,-0.006454468,0.0027618408,0.009449959,-0.02845478,0.042439222
1570715715,2.6151428,-8.435669,-1.2843018,0.01020813,-0.006454468,0.0027618408,0.009449959,-0.02845478,0.042439222
1570715715,2.6151428,-8.435669,-1.2843018,0.01020813,-0.006454468,0.0027618408,0.009449959,-0.02845478,0.042439222
1570715715,2.6151428,-8.435669,-1.2843018,0.01020813,-0.006454468,0.0027618408,0.009449959,-0.02845478,0.042439222
1570715715,2.6151428,-8.435669,-1.2843018,0.01020813,-0.006454468,0.0027618408,0.009449959,-0.02845478,0.042439222
1570715715,2.6151428,-8.435669,-1.2843018,0.01020813,-0.006454468,0.0027618408,0.009449959,-0.02845478,0.042439222
1570715715,2.6151428,-8.435669,-1.2843018,0.01020813,-0.006454468,0.0027618408,0.009449959,-0.02845478,0.042439222
1570715715,2.6151428,-8.435669,-1.2843018,0.01020813,-0.006454468,0.0027618408,0.009449959,-0.02845478,0.042439222
1570715715,2.6151428,-8.435669,-1.2843018,0.01020813,-0.006454468,0.0027618408,0.009449959,-0.02845478,0.042439222
1570715715,2.6151428,-8.435669,-1.2843018,0.01020813,-0.006454468,0.0027618408,0.009449959,-0.02845478,0.042439222
1570715715,2.6151428,-8.435669,-1.2843018,0.01020813,-0.006454468,0.0027618408,0.009449959,-0.02845478,0.042439222
1570715715,2.6151428,-8.435669,-1.2843018,0.01020813,-0.006454468,0.0027618408,0.009449959,-0.02845478,0.042439222
1570715715,2.6151428,-8.435669,-1.2843018,0.01020813,-0.006454468,0.0027618408,0.009449959,-0.02845478,0.042439222
1570715715,2.6151428,-8.435669,-1.2843018,0.01020813,-0.006454468,0.0027618408,0.009449959,-0.02845478,0.042439222
1570715715,2.6151428,-8.435669,-1.2843018,0.01020813,-0.006454468,0.0027618408,0.009449959,-0.02845478,0.042439222
1570715715,2.6151428,-8.435669,-1.2843018,0.01020813,-0.006454468,0.0027618408,0.009449959,-0.02845478,0.042439222
1570715715,2.6151428,-8.435669,-1.2843018,0.01020813,-0.006454468,0.0027618408,0.009449959,-0.02845478,0.042439222
1570715715,2.6151428,-8.435669,-1.2843018,0.01020813,-0.006454468,0.0027618408,0.009449959,-0.02845478,0.042439222
1570715715,2.6151428,-8.435669,-1.2843018,0.01020813,-0.006454468,0.0027618408,0.009449959,-0.02845478,0.042439222
1570715715,2.6151428,-8.435669,-1.2843018,0.01020813,-0.006454468,0.0027618408,0.009449959,-0.02845478,0.042439222
1570715715,2.6151428,-8.435669,-1.2843018,0.01020813,-0.006454468,0.0027618408,0.009449959,-0.02845478,0.042439222
1570715715,2.6151428,-8.435669,-1.2843018,0.01020813,-0.006454468,0.0027618408,0.009449959,-0.02845478,0.042439222
1570715715,2.6151428,-8.435669,-1.2843018,0.01020813,-0.006454468,0.0027618408,0.009449959,-0.02845478,0.042439222
1570715715,2.6151428,-8.435669,-1.2843018,0.01020813,-0.006454468,0.0027618408,0.009449959,-0.02845478,0.042439222
1570715715,2.6151428,-8.435669,-1.2843018,0.01020813,-0.006454468,0.0027618408,0.009449959,-0.02845478,0.042439222
1570715715,2.6151428,-8.435669,-1.2843018,0.01020813,-0.006454468,0.0027618408,0.009449959,-0.02845478,0.042439222
1570715715,2.6151428,-8.435669,-1.2843018,0.01020813,-0.006454468,0.0027618408,0.009449959,-0.02845478,0.042439222
1570715715,2.6151428,-8.435669,-1.2843018,0.01020813,-0.006454468,0.0027618408,0.009449959,-0.02845478,0.042439222
1570715715,2.6151428,-8.435669,-1.2843018,0.01020813,-0.006454468,0.0027618408,0.009449959,-0.02845478,0.042439222
1570715715,2.6151428,-8.435669,-1.2843018,0.01020813,-0.006454468,0.0027618408,0.009449959,-0.02845478,0.042439222
1570715715,2.6151428,-8.435669,-1.2843018,0.01020813,-0.006454468,0.0027618408,0.009449959,-0.02845478,0.042439222
1570715715,2.6151428,-8.435669,-1.2843018,0.01020813,-0.006454468,0.0027618408,0.009449959,-0.02845478,0.042439222
1570715715,2.6151428,-8.435669,-1.2843018,0.01020813,-0.006454468,0.0027618408,0.009449959,-0.02845478,0.042439222
1570715715,2.6151428,-8.435669,-1.2843018,0.01020813,-0.006454468,0.0027618408,0.009449959,-0.02845478,0.042439222
1570715715,2.6151428,-8.435669,-1.2843018,0.01020813,-0.006454468,0.0027618408,0.009449959,-0.02845478,0.042439222
1570715715,2.6151428,-8.435669,-1.2843018,0.01020813,-0.006454468,0.0027618408,0.009449959,-0.02845478,0.042439222
1570715715,2.6151428,-8.435669,-1.2843018,0.01020813,-0.006454468,0.0027618408,0.009449959,-0.02845478,0.042439222
1570715715,2.6151428,-8.435669,-1.2843018,0.01020813,-0.006454468,0.0027618408,0.009449959,-0.02845478,0.042439222
1570715715,2.6151428,-8.435669,-1.2843018,0.01020813,-0.006454468,0.0027618408,0.009449959,-0.02845478,0.042439222
1570715715,2.6151428,-8.435669,-1.2843018,0.01020813,-0.006454468,0.0027618408,0.009449959,-0.02845478,0.042439222
1570715715,2.6151428,-8.435669,-1.2843018,0.01020813,-0.006454468,0.0027618408,0.009449959,-0.02845478,0.042439222
1570715715,2.6151428,-8.435669,-1.2843018,0.01020813,-0.006454468,0.0027618408,0.009449959,-0.02845478,0.042439222
1570715715,2.6151428,-8.435669,-1.2843018,0.01020813,-0.006454468,0.0027618408,0.009449959,-0.02845478,0.042439222
1570715715,2.6151428,-8.435669,-1.2843018,0.01020813,-0.006454468,0.0027618408,0.009449959,-0.02845478,0.042439222
1570715715,2.6151428,-8.435669,-1.2843018,0.01020813,-0.006454468,0.0027618408,0.009449959,-0.02845478,0.042439222
1570715715,2.6151428,-8.435669,-1.2843018,0.01020813,-0.006454468,0.0027618408,0.009449959,-0.02845478,0.042439222
1570715715,2.6151428,-8.435669,-1.2843018,0.01020813,-0.006454468,0.0027618408,0.009449959,-0.02845478,0.042439222
1570715715,2.6151428,-8.435669,-1.2843018,0.01020813,-0.006454468,0.0027618408,0.009449959,-0.02845478,0.042439222
1570715715,2.6151428,-8.435669,-1.2843018,0.01020813,-0.006454468,0.0027618408,0.009449959,-0.02845478,0.042439222
1570715715,2.6151428,-8.435669,-1.2843018,0.01020813,-0.006454468,0.0027618408,0.009449959,-0.02845478,0.042439222
1570715715,2.6151428,-8.435669,-1.2843018,0.01020813,-0.006454468,0.0027618408,0.009449959,-0.02845478,0.042439222
1570715715,2.6151428,-8.435669,-1.2843018,0.01020813,-0.006454468,0.0027618408,0.009449959,-0.02845478,0.042439222
1570715715,2.6151428,-8.435669,-1.2843018,0.01020813,-0.006454468,0.0027618408,0.009449959,-0.02845478,0.042439222
1570715715,2.6151428,-8.435669,-1.2843018,0.01020813,-0.006454468,0.0027618408,0.009449959,-0.02845478,0.042439222
1570715715,2.6151428,-8.435669,-1.2843018,0.01020813,-0.006454468,0.0027618408,0.009449959,-0.02845478,0.042439222
1570715715,2.6151428,-8.435669,-1.2843018,0.01020813,-0.006454468,0.0027618408,0.009449959,-0.02845478,0.042439222
1570715715,2.6151428,-8.435669,-1.2843018,0.01020813,-0.006454468,0.0027618408,0.009449959,-0.02845478,0.042439222
1570715715,2.6151428,-8.435669,-1.2843018,0.01020813,-0.006454468,0.0027618408,0.009449959,-0.02845478,0.042439222
1570715715,2.6151428,-8.435669,-1.2843018,0.01020813,-0.006454468,0.0027618408,0.009449959,-0.02845478,0.042439222
1570715715,2.6151428,-8.435669,-1.2843018,0.01020813,-0.006454468,0.0027618408,0.009449959,-0.02845478,0.042439222
1570715715,2.6151428,-8.435669,-1.2843018,0.01020813,-0.006454468,0.0027618408,0.009449959,-0.02845478,0.042439222
1570715715,2.6151428,-8.435669,-1.2843018,0.01020813,-0.006454468,0.0027618408,0.009449959,-0.02845478,0.042439222
1570715715,2.6151428,-8.435669,-1.2843018,0.01020813,-0.006454468,0.0027618408,0.009449959,-0.02845478,0.042439222
1570715715,2.6151428,-8.435669,-1.2843018,0.01020813,-0.006454468,0.0027618408,0.009449959,-0.02845478,0.042439222
1570715715,2.6151428,-8.435669,-1.2843018,0.01020813,-0.006454468,0.0027618408,0.009449959,-0.02845478,0.042439222
1570715715,2.6151428,-8.435669,-1.2843018,0.01020813,-0.006454468,0.0027618408,0.009449959,-0.02845478,0.042439222
1570715715,2.6151428,-8.435669,-1.2843018,0.01020813,-0.006454468,0.0027618408,0.009449959,-0.02845478,0.042439222
1570715715,2.6151428,-8.435669,-1.2843018,0.01020813,-0.006454468,0.0027618408,0.009449959,-0.02845478,0.042439222
1570715715,2.6151428,-8.435669,-1.2843018,0.01020813,-0.006454468,0.0027618408,0.009449959,-0.02845478,0.042439222
1570715715,2.6151428,-8.435669,-1.2843018,0.01020813,-0.006454468,0.0027618408,0.009449959,-0.02845478,0.042439222
1570715715,2.6151428,-8.435669,-1.2843018,0.01020813,-0.006454468,0.0027618408,0.009449959,-0.02845478,0.042439222
1570715715,2.6151428,-8.435669,-1.2843018,0.01020813,-0.006454468,0.0027618408,0.009449959,-0.02845478,0.042439222
1570715715,2.6151428,-8.435669,-1.2843018,0.01020813,-0.006454468,0.0027618408,0.009449959,-0.02845478,0.042439222
1570715715,2.6151428,-8.435669,-1.2843018,0.01020813,-0.006454468,0.0027618408,0.009449959,-0.02845478,0.042439222
1570715715,2.6151428,-8.435669,-1.2843018,0.01020813,-0.006454468,0.0027618408,0.009449959,-0.02845478,0.042439222
1570715715,2.6151428,-8.435669,-1.2843018,0.01020813,-0.006454468,0.0027618408,0.009449959,-0.02845478,0.042439222
1570715715,2.6151428,-8.435669,-1.2843018,0.01020813,-0.006454468,0.0027618408,0.009449959,-0.02845478,0.042439222
1570715715,2.6151428,-8.435669,-1.2843018,0.01020813,-0.006454468,0.0027618408,0.009449959,-0.02845478,0.042439222
1570715715,2.6151428,-8.435669,-1.2843018,0.01020813,-0.006454468,0.0027618408,0.009449959,-0.02845478,0.042439222
1570715715,2.6151428,-8.435669,-1.2843018,0.01020813,-0.006454468,0.0027618408,0.009449959,-0.02845478,0.042439222
1570715715,2.6151428,-8.435669,-1.2843018,0.01020813,-0.006454468,0.0027618408,0.009449959,-0.02845478,0.042439222
1570715715,2.6151428,-8.435669,-1.2843018,0.01020813,-0.006454468,0.0027618408,0.009449959,-0.02845478,0.042439222
1570715715,2.6151428,-8.435669,-1.2843018,0.01020813,-0.006454468,0.0027618408,0.009449959,-0.02845478,0.042439222
1570715715,2.6151428,-8.435669,-1.2843018,0.01020813,-0.006454468,0.0027618408,0.009449959,-0.02845478,0.042439222
1570715715,2.6151428,-8.435669,-1.2843018,0.01020813,-0.006454468,0.0027618408,0.009449959,-0.02845478,0.042439222
1570715715,2.6151428,-8.435669,-1.2843018,0.01020813,-0.006454468,0.0027618408,0.009449959,-0.02845478,0.042439222
1570715715,2.6151428,-8.435669,-1.2843018,0.01020813,-0.006454468,0.0027618408,0.009449959,-0.02845478,0.042439222
1570715715,2.6151428,-8.435669,-1.2843018,0.01020813,-0.006454468,0.0027618408,0.009449959,-0.02845478,0.042439222
1570715715,2.6151428,-8.435669,-1.2843018,0.01020813,-0.006454468,0.0027618408,0.009449959,-0.02845478,0.042439222
1570715715,2.6151428,-8.435669,-1.2843018,0.01020813,-0.006454468,0.0027618408,0.009449959,-0.02845478,0.042439222
1570715715,2.6151428,-8.435669,-1.2843018,0.01020813,-0.006454468,0.0027618408,0.009449959,-0.02845478,0.042439222
1570715715,2.6151428,-8.435669,-1.2843018,0.01020813,-0.006454468,0.0027618408,0.009449959,-0.02845478,0.042439222
1570715715,2.6151428,-8.435669,-1.2843018,0.01020813,-0.006454468,0.0027618408,0.009449959,-0.02845478,0.042439222
1570715715,2.6151428,-8.435669,-1.2843018,0.01020813,-0.006454468,0.0027618408,0.009449959,-0.02845478,0.042439222
1570715715,2.6151428,-8.435669,-1.2843018,0.01020813,-0.006454468,0.0027618408,0.009449959,-0.02845478,0.042439222
1570715715,2.6151428,-8.435669,-1.2843018,0.01020813,-0.006454468,0.0027618408,0.009449959,-0.02845478,0.042439222
1570715715,2.6151428,-8.435669,-1.2843018,0.01020813,-0.006454468,0.0027618408,0.009449959,-0.02845478,0.042439222
1570715715,2.6151428,-8.435669,-1.2843018,0.01020813,-0.006454468,0.0027618408,0.009449959,-0.02845478,0.042439222
1570715715,2.6151428,-8.435669,-1.2843018,0.01020813,-0.006454468,0.0027618408,0.009449959,-0.02845478,0.042439222
1570715715,2.6151428,-8.435669,-1.2843018,0.01020813,-0.006454468,0.0027618408,0.009449959,-0.02845478,0.042439222
1570715715,2.6151428,-8.435669,-1.2843018,0.01020813,-0.006454468,0.0027618408,0.009449959,-0.02845478,0.042439222
1570715715,2.6151428,-8.435669,-1.2843018,0.01020813,-0.006454468,0.0027618408,0.009449959,-0.02845478,0.042439222
1570715715,2.6151428,-8.435669,-1.2843018,0.01020813,-0.006454468,0.0027618408,0.009449959,-0.02845478,0.042439222
1570715715,2.6151428,-8.435669,-1.2843018,0.01020813,-0.006454468,0.0027618408,0.009449959,-0.02845478,0.042439222
1570715715,2.6151428,-8.435669,-1.2843018,0.01020813,-0.006454468,0.0027618408,0.009449959,-0.02845478,0.042439222
1570715715,2.6151428,-8.435669,-1.2843018,0.01020813,-0.006454468,0.0027618408,0.009449959,-0.02845478,0.042439222
1570715715,2.6151428,-8.435669,-1.2843018,0.01020813,-0.006454468,0.0027618408,0.009449959,-0.02845478,0.042439222
1570715715,2.6151428,-8.435669,-1.2843018,0.01020813,-0.006454468,0.0027618408,0.009449959,-0.02845478,0.042439222
1570715715,2.6151428,-8.435669,-1.2843018,0.01020813,-0.006454468,0.0027618408,0.009449959,-0.02845478,0.042439222
1570715715,2.6151428,-8.435669,-1.2843018,0.01020813,-0.006454468,0.0027618408,0.009449959,-0.02845478,0.042439222
1570715715,2.6151428,-8.435669,-1.2843018,0.01020813,-0.006454468,0.0027618408,0.009449959,-0.02845478,0.042439222
1570715715,2.6151428,-8.435669,-1.2843018,0.01020813,-0.006454468,0.0027618408,0.009449959,-0.02845478,0.042439222
1570715715,2.6151428,-8.435669,-1.2843018,0.01020813,-0.006454468,0.0027618408,0.009449959,-0.02845478,0.042439222
1570715715,2.6151428,-8.435669,-1.2843018,0.01020813,-0.006454468,0.0027618408,0.009449959,-0.02845478,0.042439222
1570715715,2.6151428,-8.435669,-1.2843018,0.01020813,-0.006454468,0.0027618408,0.009449959,-0.02845478,0.042439222
1570715715,2.6151428,-8.435669,-1.2843018,0.01020813,-0.006454468,0.0027618408,0.009449959,-0.02845478,0.042439222
1570715715,2.6151428,-8.435669,-1.2843018,0.01020813,-0.006454468,0.0027618408,0.009449959,-0.02845478,0.042439222
1570715715,2.6151428,-8.435669,-1.2843018,0.01020813,-0.006454468,0.0027618408,0.009449959,-0.02845478,0.042439222
1570715715,2.6151428,-8.435669,-1.2843018,0.01020813,-0.006454468,0.0027618408,0.009449959,-0.02845478,0.042439222
1570715715,2.6151428,-8.435669,-1.2843018,0.01020813,-0.006454468,0.0027618408,0.009449959,-0.02845478,0.042439222
1570715715,2.6151428,-8.435669,-1.2843018,0.01020813,-0.006454468,0.0027618408,0.009449959,-0.02845478,0.042439222
1570715715,2.6151428,-8.435669,-1.2843018,0.01020813,-0.006454468,0.0027618408,0.009449959,-0.02845478,0.042439222
1570715715,2.6151428,-8.435669,-1.2843018,0.01020813,-0.006454468,0.0027618408,0.009449959,-0.02845478,0.042439222
1570715715,2.6151428,-8.435669,-1.2843018,0.01020813,-0.006454468,0.0027618408,0.009449959,-0.02845478,0.042439222
1570715715,2.6151428,-8.435669,-1.2843018,0.01020813,-0.006454468,0.0027618408,0.009449959,-0.02845478,0.042439222
1570715715,2.6151428,-8.435669,-1.2843018,0.01020813,-0.006454468,0.0027618408,0.009449959,-0.02845478,0.042439222
1570715715,2.6151428,-8.435669,-1.2843018,0.01020813,-0.006454468,0.0027618408,0.009449959,-0.02845478,0.042439222
1570715715,2.6151428,-8.435669,-1.2843018,0.01020813,-0.006454468,0.0027618408,0.009449959,-0.02845478,0.042439222
1570715715,2.6151428,-8.435669,-1.2843018,0.01020813,-0.006454468,0.0027618408,0.009449959,-0.02845478,0.042439222
1570715715,2.6151428,-8.435669,-1.2843018,0.01020813,-0.006454468,0.0027618408,0.009449959,-0.02845478,0.042439222
1570715715,2.6151428,-8.435669,-1.2843018,0.01020813,-0.006454468,0.0027618408,0.009449959,-0.02845478,0.042439222
1570715715,2.6151428,-8.435669,-1.2843018,0.01020813,-0.006454468,0.0027618408,0.009449959,-0.02845478,0.042439222
1570715715,2.6151428,-8.435669,-1.2843018,0.01020813,-0.006454468,0.0027618408,0.009449959,-0.02845478,0.042439222
1570715715,2.6151428,-8.435669,-1.2843018,0.01020813,-0.006454468,0.0027618408,0.009449959,-0.02845478,0.042439222
1570715715,2.6151428,-8.435669,-1.2843018,0.01020813,-0.006454468,0.0027618408,0.009449959,-0.02845478,0.042439222
1570715715,2.6151428,-8.435669,-1.2843018,0.01020813,-0.006454468,0.0027618408,0.009449959,-0.02845478,0.042439222
1570715715,2.6151428,-8.435669,-1.2843018,0.01020813,-0.006454468,0.0027618408,0.009449959,-0.02845478,0.042439222
1570715715,2.6151428,-8.435669,-1.2843018,0.01020813,-0.006454468,0.0027618408,0.009449959,-0.02845478,0.042439222
1570715715,2.6151428,-8.435669,-1.2843018,0.01020813,-0.006454468,0.0027618408,0.009449959,-0.02845478,0.042439222
1570715715,2.6151428,-8.435669,-1.2843018,0.01020813,-0.006454468,0.0027618408,0.009449959,-0.02845478,0.042439222
1570715715,2.6151428,-8.435669,-1.2843018,0.01020813,-0.006454468,0.0027618408,0.009449959,-0.02845478,0.042439222
1570715715,2.6151428,-8.435669,-1.2843018,0.01020813,-0.006454468,0.0027618408,0.009449959,-0.02845478,0.042439222
1570715715,2.6151428,-8.435669,-1.2843018,0.01020813,-0.006454468,0.0027618408,0.009449959,-0.02845478,0.042439222
1570715715,2.6151428,-8.435669,-1.2843018,0.01020813,-0.006454468,0.0027618408,0.009449959,-0.02845478,0.042439222
1570715715,2.6151428,-8.435669,-1.2843018,0.01020813,-0.006454468,0.0027618408,0.009449959,-0.02845478,0.042439222
1570715715,2.6151428,-8.435669,-1.2843018,0.01020813,-0.006454468,0.0027618408,0.009449959,-0.02845478,0.042439222
1570715715,2.6151428,-8.435669,-1.2843018,0.01020813,-0.006454468,0.0027618408,0.009449959,-0.02845478,0.042439222
1570715715,2.6151428,-8.435669,-1.2843018,0.01020813,-0.006454468,0.0027618408,0.009449959,-0.02845478,0.042439222
1570715715,2.6151428,-8.435669,-1.2843018,0.01020813,-0.006454468,0.0027618408,0.009449959,-0.02845478,0.042439222
1570715715,2.6151428,-8.435669,-1.2843018,0.01020813,-0.006454468,0.0027618408,0.009449959,-0.02845478,0.042439222
1570715715,2.6151428,-8.435669,-1.2843018,0.01020813,-0.006454468,0.0027618408,0.009449959,-0.02845478,0.042439222
1570715715,2.6151428,-8.435669,-1.2843018,0.01020813,-0.006454468,0.0027618408,0.009449959,-0.02845478,0.042439222
1570715715,2.6151428,-8.435669,-1.2843018,0.01020813,-0.006454468,0.0027618408,0.009449959,-0.02845478,0.042439222
1570715715,2.6151428,-8.435669,-1.2843018,0.01020813,-0.006454468,0.0027618408,0.009449959,-0.02845478,0.042439222
1570715715,2.6151428,-8.435669,-1.2843018,0.01020813,-0.006454468,0.0027618408,0.009449959,-0.02845478,0.042439222
1570715715,2.6151428,-8.435669,-1.2843018,0.01020813,-0.006454468,0.0027618408,0.009449959,-0.02845478,0.042439222
1570715715,2.6151428,-8.435669,-1.2843018,0.01020813,-0.006454468,0.0027618408,0.009449959,-0.02845478,0.042439222
1570715715,2.6151428,-8.435669,-1.2843018,0.01020813,-0.006454468,0.0027618408,0.009449959,-0.02845478,0.042439222
1570715715,2.6151428,-8.435669,-1.2843018,0.01020813,-0.006454468,0.0027618408,0.009449959,-0.02845478,0.042439222
1570715715,2.6151428,-8.435669,-1.2843018,0.01020813,-0.006454468,0.0027618408,0.009449959,-0.02845478,0.042439222
1570715715,2.6151428,-8.435669,-1.2843018,0.01020813,-0.006454468,0.0027618408,0.009449959,-0.02845478,0.042439222
1570715715,2.6151428,-8.435669,-1.2843018,0.01020813,-0.006454468,0.0027618408,0.009449959,-0.02845478,0.042439222
1570715715,2.6151428,-8.435669,-1.2843018,0.01020813,-0.006454468,0.0027618408,0.009449959,-0.02845478,0.042439222
1570715715,2.6151428,-8.435669,-1.2843018,0.01020813,-0.006454468,0.0027618408,0.009449959,-0.02845478,0.042439222
1570715715,2.6151428,-8.435669,-1.2843018,0.01020813,-0.006454468,0.0027618408,0.009449959,-0.02845478,0.042439222
1570715715,2.6151428,-8.435669,-1.2843018,0.01020813,-0.006454468,0.0027618408,0.009449959,-0.02845478,0.042439222
1570715715,2.6151428,-8.435669,-1.2843018,0.01020813,-0.006454468,0.0027618408,0.009449959,-0.02845478,0.042439222
1570715715,2.6151428,-8.435669,-1.2843018,0.01020813,-0.006454468,0.0027618408,0.009449959,-0.02845478,0.042439222
1570715715,2.6151428,-8.435669,-1.2843018,0.01020813,-0.006454468,0.0027618408,0.009449959,-0.02845478,0.042439222
1570715715,2.6151428,-8.435669,-1.2843018,0.01020813,-0.006454468,0.0027618408,0.009449959,-0.02845478,0.042439222
1570715715,2.6151428,-8.435669,-1.2843018,0.01020813,-0.006454468,0.0027618408,0.009449959,-0.02845478,0.042439222
1570715715,2.6151428,-8.435669,-1.2843018,0.01020813,-0.006454468,0.0027618408,0.009449959,-0.02845478,0.042439222
1570715715,2.6151428,-8.435669,-1.2843018,0.01020813,-0.006454468,0.0027618408,0.009449959,-0.02845478,0.042439222
1570715715,2.6151428,-8.435669,-1.2843018,0.01020813,-0.006454468,0.0027618408,0.009449959,-0.02845478,0.042439222
1570715715,2.6151428,-8.435669,-1.2843018,0.01020813,-0.006454468,0.0027618408,0.009449959,-0.02845478,0.042439222
1570715715,2.6151428,-8.435669,-1.2843018,0.01020813,-0.006454468,0.0027618408,0.009449959,-0.02845478,0.042439222
1570715715,2.6151428,-8.435669,-1.2843018,0.01020813,-0.006454468,0.0027618408,0.009449959,-0.02845478,0.042439222
1570715715,2.6151428,-8.435669,-1.2843018,0.01020813,-0.006454468,0.0027618408,0.009449959,-0.02845478,0.042439222
1570715715,2.6151428,-8.435669,-1.2843018,0.01020813,-0.006454468,0.0027618408,0.009449959,-0.02845478,0.042439222
1570715715,2.6151428,-8.435669,-1.2843018,0.01020813,-0.006454468,0.0027618408,0.009449959,-0.02845478,0.042439222
1570715715,2.6151428,-8.435669,-1.2843018,0.01020813,-0.006454468,0.0027618408,0.009449959,-0.02845478,0.042439222
1570715715,2.6151428,-8.435669,-1.2843018,0.01020813,-0.006454468,0.0027618408,0.009449959,-0.02845478,0.042439222
1570715715,2.6151428,-8.435669,-1.2843018,0.01020813,-0.006454468,0.0027618408,0.009449959,-0.02845478,0.042439222
1570715715,2.6151428,-8.435669,-1.2843018,0.01020813,-0.006454468,0.0027618408,0.009449959,-0.02845478,0.042439222
1570715715,2.6151428,-8.435669,-1.2843018,0.01020813,-0.006454468,0.0027618408,0.009449959,-0.02845478,0.042439222
1570715715,2.6151428,-8.435669,-1.2843018,0.01020813,-0.006454468,0.0027618408,0.009449959,-0.02845478,0.042439222
1570715715,2.6151428,-8.435669,-1.2843018,0.01020813,-0.006454468,0.0027618408,0.009449959,-0.02845478,0.042439222
1570715715,2.6151428,-8.435669,-1.2843018,0.01020813,-0.006454468,0.0027618408,0.009449959,-0.02845478,0.042439222
1570715715,2.6151428,-8.435669,-1.2843018,0.01020813,-0.006454468,0.0027618408,0.009449959,-0.02845478,0.042439222
1570715715,2.6151428,-8.435669,-1.2843018,0.01020813,-0.006454468,0.0027618408,0.009449959,-0.02845478,0.042439222
1570715715,2.6151428,-8.435669,-1.2843018,0.01020813,-0.006454468,0.0027618408,0.009449959,-0.02845478,0.042439222
1570715715,2.6151428,-8.435669,-1.2843018,0.01020813,-0.006454468,0.0027618408,0.009449959,-0.02845478,0.042439222
1570715715,2.6151428,-8.435669,-1.2843018,0.01020813,-0.006454468,0.0027618408,0.009449959,-0.02845478,0.042439222
1570715715,2.6151428,-8.435669,-1.2843018,0.01020813,-0.006454468,0.0027618408,0.009449959,-0.02845478,0.042439222
1570715715,2.6151428,-8.435669,-1.2843018,0.01020813,-0.006454468,0.0027618408,0.009449959,-0.02845478,0.042439222
1570715715,2.6151428,-8.435669,-1.2843018,0.01020813,-0.006454468,0.0027618408,0.009449959,-0.02845478,0.042439222
1570715715,2.6151428,-8.435669,-1.2843018,0.01020813,-0.006454468,0.0027618408,0.009449959,-0.02845478,0.042439222
1570715715,2.6151428,-8.435669,-1.2843018,0.01020813,-0.006454468,0.0027618408,0.009449959,-0.02845478,0.042439222
1570715715,2.6151428,-8.435669,-1.2843018,0.01020813,-0.006454468,0.0027618408,0.009449959,-0.02845478,0.042439222
1570715715,2.6151428,-8.435669,-1.2843018,0.01020813,-0.006454468,0.0027618408,0.009449959,-0.02845478,0.042439222
1570715715,2.6151428,-8.435669,-1.2843018,0.01020813,-0.006454468,0.0027618408,0.009449959,-0.02845478,0.042439222
1570715715,2.6151428,-8.435669,-1.2843018,0.01020813,-0.006454468,0.0027618408,0.009449959,-0.02845478,0.042439222
1570715715,2.6151428,-8.435669,-1.2843018,0.01020813,-0.006454468,0.0027618408,0.009449959,-0.02845478,0.042439222
1570715715,2.6151428,-8.435669,-1.2843018,0.01020813,-0.006454468,0.0027618408,0.009449959,-0.02845478,0.042439222
1570715715,2.6151428,-8.435669,-1.2843018,0.01020813,-0.006454468,0.0027618408,0.009449959,-0.02845478,0.042439222
1570715715,2.6151428,-8.435669,-1.2843018,0.01020813,-0.006454468,0.0027618408,0.009449959,-0.02845478,0.042439222
1570715715,2.6151428,-8.435669,-1.2843018,0.01020813,-0.006454468,0.0027618408,0.009449959,-0.02845478,0.042439222
1570715715,2.6151428,-8.435669,-1.2843018,0.01020813,-0.006454468,0.0027618408,0.009449959,-0.02845478,0.042439222
1570715715,2.6151428,-8.435669,-1.2843018,0.01020813,-0.006454468,0.0027618408,0.009449959,-0.02845478,0.042439222
1570715715,2.6151428,-8.435669,-1.2843018,0.01020813,-0.006454468,0.0027618408,0.009449959,-0.02845478,0.042439222
1570715715,2.6151428,-8.435669,-1.2843018,0.01020813,-0.006454468,0.0027618408,0.009449959,-0.02845478,0.042439222
1570715715,2.6151428,-8.435669,-1.2843018,0.01020813,-0.006454468,0.0027618408,0.009449959,-0.02845478,0.042439222
1570715715,2.6151428,-8.435669,-1.2843018,0.01020813,-0.006454468,0.0027618408,0.009449959,-0.02845478,0.042439222
1570715715,2.6151428,-8.435669,-1.2843018,0.01020813,-0.006454468,0.0027618408,0.009449959,-0.02845478,0.042439222
1570715715,2.6151428,-8.435669,-1.2843018,0.01020813,-0.006454468,0.0027618408,0.009449959,-0.02845478,0.042439222
1570715715,2.6151428,-8.435669,-1.2843018,0.01020813,-0.006454468,0.0027618408,0.009449959,-0.02845478,0.042439222
1570715715,2.6151428,-8.435669,-1.2843018,0.01020813,-0.006454468,0.0027618408,0.009449959,-0.02845478,0.042439222
1570715715,2.6151428,-8.435669,-1.2843018,0.01020813,-0.006454468,0.0027618408,0.009449959,-0.02845478,0.042439222
1570715715,2.6151428,-8.435669,-1.2843018,0.01020813,-0.006454468,0.0027618408,0.009449959,-0.02845478,0.042439222
1570715715,2.6151428,-8.435669,-1.2843018,0.01020813,-0.006454468,0.0027618408,0.009449959,-0.02845478,0.042439222
1570715715,2.6151428,-8.435669,-1.2843018,0.01020813,-0.006454468,0.0027618408,0.009449959,-0.02845478,0.042439222
1570715715,2.6151428,-8.435669,-1.2843018,0.01020813,-0.006454468,0.0027618408,0.009449959,-0.02845478,0.042439222
1570715715,2.6151428,-8.435669,-1.2843018,0.01020813,-0.006454468,0.0027618408,0.009449959,-0.02845478,0.042439222
1570715715,2.6151428,-8.435669,-1.2843018,0.01020813,-0.006454468,0.0027618408,0.009449959,-0.02845478,0.042439222
1570715715,2.6151428,-8.435669,-1.2843018,0.01020813,-0.006454468,0.0027618408,0.009449959,-0.02845478,0.042439222
1570715715,2.6151428,-8.435669,-1.2843018,0.01020813,-0.006454468,0.0027618408,0.009449959,-0.02845478,0.042439222
1570715715,2.6151428,-8.435669,-1.2843018,0.01020813,-0.006454468,0.0027618408,0.009449959,-0.02845478,0.042439222
1570715715,2.6151428,-8.435669,-1.2843018,0.01020813,-0.006454468,0.0027618408,0.009449959,-0.02845478,0.042439222
1570715715,2.6151428,-8.435669,-1.2843018,0.01020813,-0.006454468,0.0027618408,0.009449959,-0.02845478,0.042439222
1570715715,2.6151428,-8.435669,-1.2843018,0.01020813,-0.006454468,0.0027618408,0.009449959,-0.02845478,0.042439222
1570715715,2.6151428,-8.435669,-1.2843018,0.01020813,-0.006454468,0.0027618408,0.009449959,-0.02845478,0.042439222
1570715715,2.6151428,-8.435669,-1.2843018,0.01020813,-0.006454468,0.0027618408,0.009449959,-0.02845478,0.042439222
1570715715,2.6151428,-8.435669,-1.2843018,0.01020813,-0.006454468,0.0027618408,0.009449959,-0.02845478,0.042439222
1570715715,2.6151428,-8.435669,-1.2843018,0.01020813,-0.006454468,0.0027618408,0.009449959,-0.02845478,0.042439222
1570715715,2.6151428,-8.435669,-1.2843018,0.01020813,-0.006454468,0.0027618408,0.009449959,-0.02845478,0.042439222
1570715715,2.6151428,-8.435669,-1.2843018,0.01020813,-0.006454468,0.0027618408,0.009449959,-0.02845478,0.042439222
1570715715,2.6151428,-8.435669,-1.2843018,0.01020813,-0.006454468,0.0027618408,0.009449959,-0.02845478,0.042439222
1570715715,2.6151428,-8.435669,-1.2843018,0.01020813,-0.006454468,0.0027618408,0.009449959,-0.02845478,0.042439222
1570715715,2.6151428,-8.435669,-1.2843018,0.01020813,-0.006454468,0.0027618408,0.009449959,-0.02845478,0.042439222
1570715715,2.6151428,-8.435669,-1.2843018,0.01020813,-0.006454468,0.0027618408,0.009449959,-0.02845478,0.042439222
1570715715,2.6151428,-8.435669,-1.2843018,0.01020813,-0.006454468,0.0027618408,0.009449959,-0.02845478,0.042439222
1570715715,2.6151428,-8.435669,-1.2843018,0.01020813,-0.006454468,0.0027618408,0.009449959,-0.02845478,0.042439222
1570715715,2.6151428,-8.435669,-1.2843018,0.01020813,-0.006454468,0.0027618408,0.009449959,-0.02845478,0.042439222
1570715715,2.6151428,-8.435669,-1.2843018,0.01020813,-0.006454468,0.0027618408,0.009449959,-0.02845478,0.042439222
1570715715,2.6151428,-8.435669,-1.2843018,0.01020813,-0.006454468,0.0027618408,0.009449959,-0.02845478,0.042439222
1570715715,2.6151428,-8.435669,-1.2843018,0.01020813,-0.006454468,0.0027618408,0.009449959,-0.02845478,0.042439222
1570715715,2.6151428,-8.435669,-1.2843018,0.01020813,-0.006454468,0.0027618408,0.009449959,-0.02845478,0.042439222
1570715715,2.6151428,-8.435669,-1.2843018,0.01020813,-0.006454468,0.0027618408,0.009449959,-0.02845478,0.042439222
1570715715,2.6151428,-8.435669,-1.2843018,0.01020813,-0.006454468,0.0027618408,0.009449959,-0.02845478,0.042439222
1570715715,2.6151428,-8.435669,-1.2843018,0.01020813,-0.006454468,0.0027618408,0.009449959,-0.02845478,0.042439222
1570715715,2.6151428,-8.435669,-1.2843018,0.01020813,-0.006454468,0.0027618408,0.009449959,-0.02845478,0.042439222
1570715715,2.6151428,-8.435669,-1.2843018,0.01020813,-0.006454468,0.0027618408,0.009449959,-0.02845478,0.042439222
1570715715,2.6151428,-8.435669,-1.2843018,0.01020813,-0.006454468,0.0027618408,0.009449959,-0.02845478,0.042439222
1570715715,2.6151428,-8.435669,-1.2843018,0.01020813,-0.006454468,0.0027618408,0.009449959,-0.02845478,0.042439222
1570715715,2.6151428,-8.435669,-1.2843018,0.01020813,-0.006454468,0.0027618408,0.009449959,-0.02845478,0.042439222
1570715715,2.6151428,-8.435669,-1.2843018,0.01020813,-0.006454468,0.0027618408,0.009449959,-0.02845478,0.042439222
1570715715,2.6151428,-8.435669,-1.2843018,0.01020813,-0.006454468,0.0027618408,0.009449959,-0.02845478,0.042439222
1570715715,2.6151428,-8.435669,-1.2843018,0.01020813,-0.006454468,0.0027618408,0.009449959,-0.02845478,0.042439222
1570715715,2.6151428,-8.435669,-1.2843018,0.01020813,-0.006454468,0.0027618408,0.009449959,-0.02845478,0.042439222
1570715715,2.6151428,-8.435669,-1.2843018,0.01020813,-0.006454468,0.0027618408,0.009449959,-0.02845478,0.042439222
1570715715,2.6151428,-8.435669,-1.2843018,0.01020813,-0.006454468,0.0027618408,0.009449959,-0.02845478,0.042439222
1570715715,2.6151428,-8.435669,-1.2843018,0.01020813,-0.006454468,0.0027618408,0.009449959,-0.02845478,0.042439222
1570715715,2.6151428,-8.435669,-1.2843018,0.01020813,-0.006454468,0.0027618408,0.009449959,-0.02845478,0.042439222
1570715715,2.6151428,-8.435669,-1.2843018,0.01020813,-0.006454468,0.0027618408,0.009449959,-0.02845478,0.042439222
1570715715,2.6151428,-8.435669,-1.2843018,0.01020813,-0.006454468,0.0027618408,0.009449959,-0.02845478,0.042439222
1570715715,2.6151428,-8.435669,-1.2843018,0.01020813,-0.006454468,0.0027618408,0.009449959,-0.02845478,0.042439222
1570715715,2.6151428,-8.435669,-1.2843018,0.01020813,-0.006454468,0.0027618408,0.009449959,-0.02845478,0.042439222
1570715715,2.6151428,-8.435669,-1.2843018,0.01020813,-0.006454468,0.0027618408,0.009449959,-0.02845478,0.042439222
1570715715,2.6151428,-8.435669,-1.2843018,0.01020813,-0.006454468,0.0027618408,0.009449959,-0.02845478,0.042439222
1570715715,2.6151428,-8.435669,-1.2843018,0.01020813,-0.006454468,0.0027618408,0.009449959,-0.02845478,0.042439222
1570715715,2.6151428,-8.435669,-1.2843018,0.01020813,-0.006454468,0.0027618408,0.009449959,-0.02845478,0.042439222
1570715715,2.6151428,-8.435669,-1.2843018,0.01020813,-0.006454468,0.0027618408,0.009449959,-0.02845478,0.042439222
1570715715,2.6151428,-8.435669,-1.2843018,0.01020813,-0.006454468,0.0027618408,0.009449959,-0.02845478,0.042439222
1570715715,2.6151428,-8.435669,-1.2843018,0.01020813,-0.006454468,0.0027618408,0.009449959,-0.02845478,0.042439222
1570715715,2.6151428,-8.435669,-1.2843018,0.01020813,-0.006454468,0.0027618408,0.009449959,-0.02845478,0.042439222
1570715715,2.6151428,-8.435669,-1.2843018,0.01020813,-0.006454468,0.0027618408,0.009449959,-0.02845478,0.042439222
1570715715,2.6151428,-8.435669,-1.2843018,0.01020813,-0.006454468,0.0027618408,0.009449959,-0.02845478,0.042439222
1570715715,2.6151428,-8.435669,-1.2843018,0.01020813,-0.006454468,0.0027618408,0.009449959,-0.02845478,0.042439222
1570715715,2.6151428,-8.435669,-1.2843018,0.01020813,-0.006454468,0.0027618408,0.009449959,-0.02845478,0.042439222
1570715715,2.6151428,-8.435669,-1.2843018,0.01020813,-0.006454468,0.0027618408,0.009449959,-0.02845478,0.042439222
1570715715,2.6151428,-8.435669,-1.2843018,0.01020813,-0.006454468,0.0027618408,0.009449959,-0.02845478,0.042439222
1570715715,2.6151428,-8.435669,-1.2843018,0.01020813,-0.006454468,0.0027618408,0.009449959,-0.02845478,0.042439222
1570715715,2.6151428,-8.435669,-1.2843018,0.01020813,-0.006454468,0.0027618408,0.009449959,-0.02845478,0.042439222
1570715715,2.6151428,-8.435669,-1.2843018,0.01020813,-0.006454468,0.0027618408,0.009449959,-0.02845478,0.042439222
1570715715,2.6151428,-8.435669,-1.2843018,0.01020813,-0.006454468,0.0027618408,0.009449959,-0.02845478,0.042439222
1570715715,2.6151428,-8.435669,-1.2843018,0.01020813,-0.006454468,0.0027618408,0.009449959,-0.02845478,0.042439222
1570715715,2.6151428,-8.435669,-1.2843018,0.01020813,-0.006454468,0.0027618408,0.009449959,-0.02845478,0.042439222
1570715715,2.6151428,-8.435669,-1.2843018,0.01020813,-0.006454468,0.0027618408,0.009449959,-0.02845478,0.042439222
1570715715,2.6151428,-8.435669,-1.2843018,0.01020813,-0.006454468,0.0027618408,0.009449959,-0.02845478,0.042439222
1570715715,2.6151428,-8.435669,-1.2843018,0.01020813,-0.006454468,0.0027618408,0.009449959,-0.02845478,0.042439222
1570715715,2.6151428,-8.435669,-1.2843018,0.01020813,-0.006454468,0.0027618408,0.009449959,-0.02845478,0.042439222
1570715715,2.6151428,-8.435669,-1.2843018,0.01020813,-0.006454468,0.0027618408,0.009449959,-0.02845478,0.042439222
1570715715,2.6151428,-8.435669,-1.2843018,0.01020813,-0.006454468,0.0027618408,0.009449959,-0.02845478,0.042439222
1570715715,2.6151428,-8.435669,-1.2843018,0.01020813,-0.006454468,0.0027618408,0.009449959,-0.02845478,0.042439222
1570715715,2.6151428,-8.435669,-1.2843018,0.01020813,-0.006454468,0.0027618408,0.009449959,-0.02845478,0.042439222
1570715715,2.6151428,-8.435669,-1.2843018,0.01020813,-0.006454468,0.0027618408,0.009449959,-0.02845478,0.042439222
1570715715,2.6151428,-8.435669,-1.2843018,0.01020813,-0.006454468,0.0027618408,0.009449959,-0.02845478,0.042439222
1570715715,2.6151428,-8.435669,-1.2843018,0.01020813,-0.006454468,0.0027618408,0.009449959,-0.02845478,0.042439222
1570715715,2.6151428,-8.435669,-1.2843018,0.01020813,-0.006454468,0.0027618408,0.009449959,-0.02845478,0.042439222
1570715715,2.6151428,-8.435669,-1.2843018,0.01020813,-0.006454468,0.0027618408,0.009449959,-0.02845478,0.042439222
1570715715,2.6151428,-8.435669,-1.2843018,0.01020813,-0.006454468,0.0027618408,0.009449959,-0.02845478,0.042439222
1570715715,2.6151428,-8.435669,-1.2843018,0.01020813,-0.006454468,0.0027618408,0.009449959,-0.02845478,0.042439222
1570715715,2.6151428,-8.435669,-1.2843018,0.01020813,-0.006454468,0.0027618408,0.009449959,-0.02845478,0.042439222
1570715715,2.6151428,-8.435669,-1.2843018,0.01020813,-0.006454468,0.0027618408,0.009449959,-0.02845478,0.042439222
1570715715,2.6151428,-8.435669,-1.2843018,0.01020813,-0.006454468,0.0027618408,0.009449959,-0.02845478,0.042439222
1570715715,2.6151428,-8.435669,-1.2843018,0.01020813,-0.006454468,0.0027618408,0.009449959,-0.02845478,0.042439222
1570715715,2.6151428,-8.435669,-1.2843018,0.01020813,-0.006454468,0.0027618408,0.009449959,-0.02845478,0.042439222
1570715715,2.6151428,-8.435669,-1.2843018,0.01020813,-0.006454468,0.0027618408,0.009449959,-0.02845478,0.042439222
1570715715,2.6151428,-8.435669,-1.2843018,0.01020813,-0.006454468,0.0027618408,0.009449959,-0.02845478,0.042439222
1570715715,2.6151428,-8.435669,-1.2843018,0.01020813,-0.006454468,0.0027618408,0.009449959,-0.02845478,0.042439222
1570715715,2.6151428,-8.435669,-1.2843018,0.01020813,-0.006454468,0.0027618408,0.009449959,-0.02845478,0.042439222
1570715715,2.6151428,-8.435669,-1.2843018,0.01020813,-0.006454468,0.0027618408,0.009449959,-0.02845478,0.042439222
1570715715,2.6151428,-8.435669,-1.2843018,0.01020813,-0.006454468,0.0027618408,0.009449959,-0.02845478,0.042439222
1570715715,2.6151428,-8.435669,-1.2843018,0.01020813,-0.006454468,0.0027618408,0.009449959,-0.02845478,0.042439222
1570715715,2.6151428,-8.435669,-1.2843018,0.01020813,-0.006454468,0.0027618408,0.009449959,-0.02845478,0.042439222
1570715715,2.6151428,-8.435669,-1.2843018,0.01020813,-0.006454468,0.0027618408,0.009449959,-0.02845478,0.042439222
1570715715,2.6151428,-8.435669,-1.2843018,0.01020813,-0.006454468,0.0027618408,0.009449959,-0.02845478,0.042439222
1570715715,2.6151428,-8.435669,-1.2843018,0.01020813,-0.006454468,0.0027618408,0.009449959,-0.02845478,0.042439222
1570715715,2.6151428,-8.435669,-1.2843018,0.01020813,-0.006454468,0.0027618408,0.009449959,-0.02845478,0.042439222
1570715715,2.6151428,-8.435669,-1.2843018,0.01020813,-0.006454468,0.0027618408,0.009449959,-0.02845478,0.042439222
1570715715,2.6151428,-8.435669,-1.2843018,0.01020813,-0.006454468,0.0027618408,0.009449959,-0.02845478,0.042439222
1570715715,2.6151428,-8.435669,-1.2843018,0.01020813,-0.006454468,0.0027618408,0.009449959,-0.02845478,0.042439222
1570715715,2.6151428,-8.435669,-1.2843018,0.01020813,-0.006454468,0.0027618408,0.009449959,-0.02845478,0.042439222
1570715715,2.6151428,-8.435669,-1.2843018,0.01020813,-0.006454468,0.0027618408,0.009449959,-0.02845478,0.042439222
1570715715,2.6151428,-8.435669,-1.2843018,0.01020813,-0.006454468,0.0027618408,0.009449959,-0.02845478,0.042439222
1570715715,2.6151428,-8.435669,-1.2843018,0.01020813,-0.006454468,0.0027618408,0.009449959,-0.02845478,0.042439222
1570715715,2.6151428,-8.435669,-1.2843018,0.01020813,-0.006454468,0.0027618408,0.009449959,-0.02845478,0.042439222
1570715715,2.6151428,-8.435669,-1.2843018,0.01020813,-0.006454468,0.0027618408,0.009449959,-0.02845478,0.042439222
1570715715,2.6151428,-8.435669,-1.2843018,0.01020813,-0.006454468,0.0027618408,0.009449959,-0.02845478,0.042439222
1570715715,2.6151428,-8.435669,-1.2843018,0.01020813,-0.006454468,0.0027618408,0.009449959,-0.02845478,0.042439222
1570715715,2.6151428,-8.435669,-1.2843018,0.01020813,-0.006454468,0.0027618408,0.009449959,-0.02845478,0.042439222
1570715715,2.6151428,-8.435669,-1.2843018,0.01020813,-0.006454468,0.0027618408,0.009449959,-0.02845478,0.042439222
1570715715,2.6151428,-8.435669,-1.2843018,0.01020813,-0.006454468,0.0027618408,0.009449959,-0.02845478,0.042439222
1570715715,2.6151428,-8.435669,-1.2843018,0.01020813,-0.006454468,0.0027618408,0.009449959,-0.02845478,0.042439222
1570715715,2.6151428,-8.435669,-1.2843018,0.01020813,-0.006454468,0.0027618408,0.009449959,-0.02845478,0.042439222
1570715715,2.6151428,-8.435669,-1.2843018,0.01020813,-0.006454468,0.0027618408,0.009449959,-0.02845478,0.042439222
1570715715,2.6151428,-8.435669,-1.2843018,0.01020813,-0.006454468,0.0027618408,0.009449959,-0.02845478,0.042439222
1570715715,2.6151428,-8.435669,-1.2843018,0.01020813,-0.006454468,0.0027618408,0.009449959,-0.02845478,0.042439222
1570715715,2.6151428,-8.435669,-1.2843018,0.01020813,-0.006454468,0.0027618408,0.009449959,-0.02845478,0.042439222
1570715715,2.6151428,-8.435669,-1.2843018,0.01020813,-0.006454468,0.0027618408,0.009449959,-0.02845478,0.042439222
1570715715,2.6151428,-8.435669,-1.2843018,0.01020813,-0.006454468,0.0027618408,0.009449959,-0.02845478,0.042439222
1570715715,2.6151428,-8.435669,-1.2843018,0.01020813,-0.006454468,0.0027618408,0.009449959,-0.02845478,0.042439222
1570715715,2.6151428,-8.435669,-1.2843018,0.01020813,-0.006454468,0.0027618408,0.009449959,-0.02845478,0.042439222
1570715715,2.6151428,-8.435669,-1.2843018,0.01020813,-0.006454468,0.0027618408,0.009449959,-0.02845478,0.042439222
1570715715,2.6151428,-8.435669,-1.2843018,0.01020813,-0.006454468,0.0027618408,0.009449959,-0.02845478,0.042439222
1570715715,2.6151428,-8.435669,-1.2843018,0.01020813,-0.006454468,0.0027618408,0.009449959,-0.02845478,0.042439222
1570715715,2.6151428,-8.435669,-1.2843018,0.01020813,-0.006454468,0.0027618408,0.009449959,-0.02845478,0.042439222
1570715715,2.6151428,-8.435669,-1.2843018,0.01020813,-0.006454468,0.0027618408,0.009449959,-0.02845478,0.042439222
1570715715,2.6151428,-8.435669,-1.2843018,0.01020813,-0.006454468,0.0027618408,0.009449959,-0.02845478,0.042439222
1570715715,2.6151428,-8.435669,-1.2843018,0.01020813,-0.006454468,0.0027618408,0.009449959,-0.02845478,0.042439222
1570715715,2.6151428,-8.435669,-1.2843018,0.01020813,-0.006454468,0.0027618408,0.009449959,-0.02845478,0.042439222
1570715715,2.6151428,-8.435669,-1.2843018,0.01020813,-0.006454468,0.0027618408,0.009449959,-0.02845478,0.042439222
1570715715,2.6151428,-8.435669,-1.2843018,0.01020813,-0.006454468,0.0027618408,0.009449959,-0.02845478,0.042439222
1570715715,2.6151428,-8.435669,-1.2843018,0.01020813,-0.006454468,0.0027618408,0.009449959,-0.02845478,0.042439222
1570715715,2.6151428,-8.435669,-1.2843018,0.01020813,-0.006454468,0.0027618408,0.009449959,-0.02845478,0.042439222
1570715715,2.6151428,-8.435669,-1.2843018,0.01020813,-0.006454468,0.0027618408,0.009449959,-0.02845478,0.042439222
1570715715,2.6151428,-8.435669,-1.2843018,0.01020813,-0.006454468,0.0027618408,0.009449959,-0.02845478,0.042439222
1570715715,2.6151428,-8.435669,-1.2843018,0.01020813,-0.006454468,0.0027618408,0.009449959,-0.02845478,0.042439222
1570715715,2.6151428,-8.435669,-1.2843018,0.01020813,-0.006454468,0.0027618408,0.009449959,-0.02845478,0.042439222
1570715715,2.6151428,-8.435669,-1.2843018,0.01020813,-0.006454468,0.0027618408,0.009449959,-0.02845478,0.042439222
1570715715,2.6151428,-8.435669,-1.2843018,0.01020813,-0.006454468,0.0027618408,0.009449959,-0.02845478,0.042439222
1570715715,2.6151428,-8.435669,-1.2843018,0.01020813,-0.006454468,0.0027618408,0.009449959,-0.02845478,0.042439222
1570715715,2.6151428,-8.435669,-1.2843018,0.01020813,-0.006454468,0.0027618408,0.009449959,-0.02845478,0.042439222
1570715715,2.6151428,-8.435669,-1.2843018,0.01020813,-0.006454468,0.0027618408,0.009449959,-0.02845478,0.042439222
1570715715,2.6151428,-8.435669,-1.2843018,0.01020813,-0.006454468,0.0027618408,0.009449959,-0.02845478,0.042439222
1570715715,2.6151428,-8.435669,-1.2843018,0.01020813,-0.006454468,0.0027618408,0.009449959,-0.02845478,0.042439222
1570715715,2.6151428,-8.435669,-1.2843018,0.01020813,-0.006454468,0.0027618408,0.009449959,-0.02845478,0.042439222
1570715715,2.6151428,-8.435669,-1.2843018,0.01020813,-0.006454468,0.0027618408,0.009449959,-0.02845478,0.042439222
1570715715,2.6151428,-8.435669,-1.2843018,0.01020813,-0.006454468,0.0027618408,0.009449959,-0.02845478,0.042439222
1570715715,2.6151428,-8.435669,-1.2843018,0.01020813,-0.006454468,0.0027618408,0.009449959,-0.02845478,0.042439222
1570715715,2.6151428,-8.435669,-1.2843018,0.01020813,-0.006454468,0.0027618408,0.009449959,-0.02845478,0.042439222
1570715715,2.6151428,-8.435669,-1.2843018,0.01020813,-0.006454468,0.0027618408,0.009449959,-0.02845478,0.042439222
1570715715,2.6151428,-8.435669,-1.2843018,0.01020813,-0.006454468,0.0027618408,0.009449959,-0.02845478,0.042439222
1570715715,2.6151428,-8.435669,-1.2843018,0.01020813,-0.006454468,0.0027618408,0.009449959,-0.02845478,0.042439222
1570715715,2.6151428,-8.435669,-1.2843018,0.01020813,-0.006454468,0.0027618408,0.009449959,-0.02845478,0.042439222
1570715715,2.6151428,-8.435669,-1.2843018,0.01020813,-0.006454468,0.0027618408,0.009449959,-0.02845478,0.042439222
1570715715,2.6151428,-8.435669,-1.2843018,0.01020813,-0.006454468,0.0027618408,0.009449959,-0.02845478,0.042439222
1570715715,2.6151428,-8.435669,-1.2843018,0.01020813,-0.006454468,0.0027618408,0.009449959,-0.02845478,0.042439222
1570715715,2.6151428,-8.435669,-1.2843018,0.01020813,-0.006454468,0.0027618408,0.009449959,-0.02845478,0.042439222
1570715715,2.6151428,-8.435669,-1.2843018,0.01020813,-0.006454468,0.0027618408,0.009449959,-0.02845478,0.042439222
1570715715,2.6151428,-8.435669,-1.2843018,0.01020813,-0.006454468,0.0027618408,0.009449959,-0.02845478,0.042439222
1570715715,2.6151428,-8.435669,-1.2843018,0.01020813,-0.006454468,0.0027618408,0.009449959,-0.02845478,0.042439222
1570715715,2.6151428,-8.435669,-1.2843018,0.01020813,-0.006454468,0.0027618408,0.009449959,-0.02845478,0.042439222
1570715715,2.6151428,-8.435669,-1.2843018,0.01020813,-0.006454468,0.0027618408,0.009449959,-0.02845478,0.042439222
1570715715,2.6151428,-8.435669,-1.2843018,0.01020813,-0.006454468,0.0027618408,0.009449959,-0.02845478,0.042439222
1570715715,2.6151428,-8.435669,-1.2843018,0.01020813,-0.006454468,0.0027618408,0.009449959,-0.02845478,0.042439222
1570715715,2.6151428,-8.435669,-1.2843018,0.01020813,-0.006454468,0.0027618408,0.009449959,-0.02845478,0.042439222
1570715715,2.6151428,-8.435669,-1.2843018,0.01020813,-0.006454468,0.0027618408,0.009449959,-0.02845478,0.042439222
1570715715,2.6151428,-8.435669,-1.2843018,0.01020813,-0.006454468,0.0027618408,0.009449959,-0.02845478,0.042439222
1570715715,2.6151428,-8.435669,-1.2843018,0.01020813,-0.006454468,0.0027618408,0.009449959,-0.02845478,0.042439222
1570715715,2.6151428,-8.435669,-1.2843018,0.01020813,-0.006454468,0.0027618408,0.009449959,-0.02845478,0.042439222
1570715715,2.6151428,-8.435669,-1.2843018,0.01020813,-0.006454468,0.0027618408,0.009449959,-0.02845478,0.042439222
1570715715,2.6151428,-8.435669,-1.2843018,0.01020813,-0.006454468,0.0027618408,0.009449959,-0.02845478,0.042439222
1570715715,2.6151428,-8.435669,-1.2843018,0.01020813,-0.006454468,0.0027618408,0.009449959,-0.02845478,0.042439222
1570715715,2.6151428,-8.435669,-1.2843018,0.01020813,-0.006454468,0.0027618408,0.009449959,-0.02845478,0.042439222
1570715715,2.6151428,-8.435669,-1.2843018,0.01020813,-0.006454468,0.0027618408,0.009449959,-0.02845478,0.042439222
1570715715,2.6151428,-8.435669,-1.2843018,0.01020813,-0.006454468,0.0027618408,0.009449959,-0.02845478,0.042439222
1570715715,2.6151428,-8.435669,-1.2843018,0.01020813,-0.006454468,0.0027618408,0.009449959,-0.02845478,0.042439222
1570715715,2.6151428,-8.435669,-1.2843018,0.01020813,-0.006454468,0.0027618408,0.009449959,-0.02845478,0.042439222
1570715715,2.6151428,-8.435669,-1.2843018,0.01020813,-0.006454468,0.0027618408,0.009449959,-0.02845478,0.042439222
1570715715,2.6151428,-8.435669,-1.2843018,0.01020813,-0.006454468,0.0027618408,0.009449959,-0.02845478,0.042439222
1570715715,2.6151428,-8.435669,-1.2843018,0.01020813,-0.006454468,0.0027618408,0.009449959,-0.02845478,0.042439222
1570715715,2.6151428,-8.435669,-1.2843018,0.01020813,-0.006454468,0.0027618408,0.009449959,-0.02845478,0.042439222
1570715715,2.6151428,-8.435669,-1.2843018,0.01020813,-0.006454468,0.0027618408,0.009449959,-0.02845478,0.042439222
1570715715,2.6151428,-8.435669,-1.2843018,0.01020813,-0.006454468,0.0027618408,0.009449959,-0.02845478,0.042439222
1570715715,2.6151428,-8.435669,-1.2843018,0.01020813,-0.006454468,0.0027618408,0.009449959,-0.02845478,0.042439222
1570715715,2.6151428,-8.435669,-1.2843018,0.01020813,-0.006454468,0.0027618408,0.009449959,-0.02845478,0.042439222
1570715715,2.6151428,-8.435669,-1.2843018,0.01020813,-0.006454468,0.0027618408,0.009449959,-0.02845478,0.042439222
1570715715,2.6151428,-8.435669,-1.2843018,0.01020813,-0.006454468,0.0027618408,0.009449959,-0.02845478,0.042439222
1570715715,2.6151428,-8.435669,-1.2843018,0.01020813,-0.006454468,0.0027618408,0.009449959,-0.02845478,0.042439222
1570715715,2.6151428,-8.435669,-1.2843018,0.01020813,-0.006454468,0.0027618408,0.009449959,-0.02845478,0.042439222
1570715715,2.6151428,-8.435669,-1.2843018,0.01020813,-0.006454468,0.0027618408,0.009449959,-0.02845478,0.042439222
1570715715,2.6151428,-8.435669,-1.2843018,0.01020813,-0.006454468,0.0027618408,0.009449959,-0.02845478,0.042439222
1570715715,2.6151428,-8.435669,-1.2843018,0.01020813,-0.006454468,0.0027618408,0.009449959,-0.02845478,0.042439222
1570715715,2.6151428,-8.435669,-1.2843018,0.01020813,-0.006454468,0.0027618408,0.009449959,-0.02845478,0.042439222
1570715715,2.6151428,-8.435669,-1.2843018,0.01020813,-0.006454468,0.0027618408,0.009449959,-0.02845478,0.042439222
1570715715,2.6151428,-8.435669,-1.2843018,0.01020813,-0.006454468,0.0027618408,0.009449959,-0.02845478,0.042439222
1570715715,2.6151428,-8.435669,-1.2843018,0.01020813,-0.006454468,0.0027618408,0.009449959,-0.02845478,0.042439222
1570715715,2.6151428,-8.435669,-1.2843018,0.01020813,-0.006454468,0.0027618408,0.009449959,-0.02845478,0.042439222
1570715715,2.6151428,-8.435669,-1.2843018,0.01020813,-0.006454468,0.0027618408,0.009449959,-0.02845478,0.042439222
1570715715,2.6151428,-8.435669,-1.2843018,0.01020813,-0.006454468,0.0027618408,0.009449959,-0.02845478,0.042439222
1570715715,2.6151428,-8.435669,-1.2843018,0.01020813,-0.006454468,0.0027618408,0.009449959,-0.02845478,0.042439222
1570715715,2.6151428,-8.435669,-1.2843018,0.01020813,-0.006454468,0.0027618408,0.009449959,-0.02845478,0.042439222
1570715715,2.6151428,-8.435669,-1.2843018,0.01020813,-0.006454468,0.0027618408,0.009449959,-0.02845478,0.042439222
1570715715,2.6151428,-8.435669,-1.2843018,0.01020813,-0.006454468,0.0027618408,0.009449959,-0.02845478,0.042439222
1570715715,2.6151428,-8.435669,-1.2843018,0.01020813,-0.006454468,0.0027618408,0.009449959,-0.02845478,0.042439222
1570715715,2.6151428,-8.435669,-1.2843018,0.01020813,-0.006454468,0.0027618408,0.009449959,-0.02845478,0.042439222
1570715715,2.6151428,-8.435669,-1.2843018,0.01020813,-0.006454468,0.0027618408,0.009449959,-0.02845478,0.042439222
1570715715,2.6151428,-8.435669,-1.2843018,0.01020813,-0.006454468,0.0027618408,0.009449959,-0.02845478,0.042439222
1570715715,2.6151428,-8.435669,-1.2843018,0.01020813,-0.006454468,0.0027618408,0.009449959,-0.02845478,0.042439222
1570715715,2.6151428,-8.435669,-1.2843018,0.01020813,-0.006454468,0.0027618408,0.009449959,-0.02845478,0.042439222
1570715715,2.6151428,-8.435669,-1.2843018,0.01020813,-0.006454468,0.0027618408,0.009449959,-0.02845478,0.042439222
1570715715,2.6151428,-8.435669,-1.2843018,0.01020813,-0.006454468,0.0027618408,0.009449959,-0.02845478,0.042439222
1570715715,2.6151428,-8.435669,-1.2843018,0.01020813,-0.006454468,0.0027618408,0.009449959,-0.02845478,0.042439222
1570715715,2.6151428,-8.435669,-1.2843018,0.01020813,-0.006454468,0.0027618408,0.009449959,-0.02845478,0.042439222
1570715715,2.6151428,-8.435669,-1.2843018,0.01020813,-0.006454468,0.0027618408,0.009449959,-0.02845478,0.042439222
1570715715,2.6151428,-8.435669,-1.2843018,0.01020813,-0.006454468,0.0027618408,0.009449959,-0.02845478,0.042439222
1570715715,2.6151428,-8.435669,-1.2843018,0.01020813,-0.006454468,0.0027618408,0.009449959,-0.02845478,0.042439222
1570715715,2.6151428,-8.435669,-1.2843018,0.01020813,-0.006454468,0.0027618408,0.009449959,-0.02845478,0.042439222
1570715715,2.6151428,-8.435669,-1.2843018,0.01020813,-0.006454468,0.0027618408,0.009449959,-0.02845478,0.042439222
1570715715,2.6151428,-8.435669,-1.2843018,0.01020813,-0.006454468,0.0027618408,0.009449959,-0.02845478,0.042439222
1570715715,2.6151428,-8.435669,-1.2843018,0.01020813,-0.006454468,0.0027618408,0.009449959,-0.02845478,0.042439222
1570715715,2.6151428,-8.435669,-1.2843018,0.01020813,-0.006454468,0.0027618408,0.009449959,-0.02845478,0.042439222
1570715715,2.6151428,-8.435669,-1.2843018,0.01020813,-0.006454468,0.0027618408,0.009449959,-0.02845478,0.042439222
1570715715,2.6151428,-8.435669,-1.2843018,0.01020813,-0.006454468,0.0027618408,0.009449959,-0.02845478,0.042439222
1570715715,2.6151428,-8.435669,-1.2843018,0.01020813,-0.006454468,0.0027618408,0.009449959,-0.02845478,0.042439222
1570715715,2.6151428,-8.435669,-1.2843018,0.01020813,-0.006454468,0.0027618408,0.009449959,-0.02845478,0.042439222
1570715715,2.6151428,-8.435669,-1.2843018,0.01020813,-0.006454468,0.0027618408,0.009449959,-0.02845478,0.042439222
1570715715,2.6151428,-8.435669,-1.2843018,0.01020813,-0.006454468,0.0027618408,0.009449959,-0.02845478,0.042439222
1570715715,2.6151428,-8.435669,-1.2843018,0.01020813,-0.006454468,0.0027618408,0.009449959,-0.02845478,0.042439222
1570715715,2.6151428,-8.435669,-1.2843018,0.01020813,-0.006454468,0.0027618408,0.009449959,-0.02845478,0.042439222
1570715715,2.6151428,-8.435669,-1.2843018,0.01020813,-0.006454468,0.0027618408,0.009449959,-0.02845478,0.042439222
1570715715,2.6151428,-8.435669,-1.2843018,0.01020813,-0.006454468,0.0027618408,0.009449959,-0.02845478,0.042439222
1570715715,2.6151428,-8.435669,-1.2843018,0.01020813,-0.006454468,0.0027618408,0.009449959,-0.02845478,0.042439222
1570715715,2.6151428,-8.435669,-1.2843018,0.01020813,-0.006454468,0.0027618408,0.009449959,-0.02845478,0.042439222
1570715715,2.6151428,-8.435669,-1.2843018,0.01020813,-0.006454468,0.0027618408,0.009449959,-0.02845478,0.042439222
1570715715,2.6151428,-8.435669,-1.2843018,0.01020813,-0.006454468,0.0027618408,0.009449959,-0.02845478,0.042439222
