time,ax,ay,az,gx,gy,gz,la_x,la_y,la_z,fox,foy,foz
1570715541,-4.036624,7.062895,3.572149,-0.1384886,-0.1736434,0.3483521,-0.062249243,-0.9576807,0.33039984
1570715541,-3.1364043,6.6367273,1.8387469,-0.5997622,-0.26312834,-0.44849002,0.39743748,-2.1308396,-1.2737153
1570715541,-1.340753,7.8050976,0.6895301,-1.0780805,0.5656727,-0.38670278,2.743755,-0.49799395,-3.265691
1570715542,-3.016694,9.102755,3.4620156,-1.0088362,0.3142626,-0.01384886,1.0247183,1.0199299,-0.33997664
1570715542,-3.5338416,8.556877,3.5482068,0.7638179,-0.12677033,0.39309457,0.2681506,0.7230489,-0.272939
1570715542,-3.3806129,8.025364,4.256891,0.9768773,-0.26419365,0.11079088,0.49799395,-0.21547815,0.62249243
1570715542,-2.7341783,7.8290396,3.5434184,0.5230608,-0.46553475,0.119313255,1.0821792,-0.49799395,0.047884032
1570715542,-1.2689269,7.905654,2.6767175,0.29828313,-0.46020827,0.29402196,2.4372973,-0.47884035,-0.79008657
1570715542,-1.661576,7.833828,4.19943,0.77020967,0.24821419,0.51666903,1.9297266,-0.6560113,0.866701
1570715542,-2.2744915,9.279925,5.659893,0.98113847,-0.5603462,0.8703476,1.1300632,0.62249243,2.5570073
1570715542,-2.777274,9.054871,5.8322754,0.79045033,-0.96409374,1.2005897,0.2681506,0.21068975,2.8874073
1570715542,-3.6966474,8.853758,5.827487,0.42718408,-1.1100394,1.1377372,-1.0582372,-0.1388637,2.9496565
1570715542,-4.271256,8.480263,4.951209,0.10972559,-0.65089643,0.7542302,-1.958457,-0.60333884,2.0733786
1570715542,-4.6686935,9.141062,5.616797,-0.12463974,-0.39629045,0.3792457,-2.5330653,0.023942016,2.695871
1570715542,-4.9320555,9.643845,6.2871737,0.04261188,-0.9747467,0.26952013,-2.944868,0.50757074,3.3135753
1570715542,-4.462792,9.873688,5.1523223,-0.39522517,-0.79471153,-0.028763017,-2.6001031,0.7422025,2.0829554
1570715542,-4.1611223,8.192958,2.0207062,-0.61467636,-0.47512242,-0.4538165,-2.2697031,-0.8523358,-1.2545617
1570715542,-3.1890767,9.112331,1.7621324,0.85117227,-1.0418605,-0.47938362,-1.2258313,0.05746084,-1.4556746
1570715542,-2.4181437,8.959103,2.504335,0.351548,-1.191002,-0.14168449,-0.49799395,-0.1340753,-0.62249243
1570715542,-1.7190368,8.710106,1.9393034,0.15553336,-0.7584914,-0.1747087,0.1436521,-0.39264908,-1.1875241
1570715542,-1.6807296,8.288726,2.5378537,0.094811425,-0.117182665,-0.09907261,0.7230489,-0.51235914,-1.0821792
1570715542,-3.289633,8.12592,3.86903,-0.37285393,0.46660006,-0.6647453,-1.2449849,-0.91937345,0.6799533
1570715542,-3.8067808,9.126697,4.8123455,-0.12890093,0.12783563,-0.4495553,-1.5179238,0.24420857,1.5466543
1570715542,-3.8259344,8.494628,3.040636,0.17790459,-0.9033718,-0.1054644,-1.7669208,-0.37828386,0.30166942
1570715542,-3.040636,8.901642,1.6184803,0.2119941,-0.6402435,-0.036220096,-0.9959879,-0.35434186,-1.4413095
1570715542,-2.9161377,10.328587,2.882619,-0.02450183,0.02450183,0.020240642,-0.7517793,1.115698,-0.6560113
1570715542,-1.8195933,8.528147,1.4269443,0.25567126,0.089484945,-0.17896989,0.11971009,-0.45010993,-0.37349546
1570715542,-2.5091233,7.4986396,2.3463178,0.4175964,-0.1022685,0.13103153,-0.31603462,-1.0007763,-0.6895301
1570715542,-2.873042,7.4268136,3.8833952,-0.04261188,0.03835069,-0.80323386,-1.9488802,-2.2888567,0.0
1570715542,-1.2689269,9.121908,2.542642,0.6956389,-0.12783563,-0.6935083,1.1492168,-0.12449849,-0.1340753
1570715542,-3.715801,7.517793,1.910573,0.9374613,0.7957768,-0.4953631,-0.80924016,-1.5035586,-1.5849615
1570715542,-3.0933087,6.775591,0.6799533,1.5649211,0.25567126,0.088419646,-0.35434186,-2.0494366,-1.2401965
1570715542,-2.0494366,9.586384,4.2425256,2.1220715,-0.02450183,-0.064983115,1.0726024,0.22505496,0.79966336
1570715542,-1.7669208,14.274231,-0.93852705,2.034717,0.17151281,0.61361104,0.78050977,3.7828386,-2.231396
1570715542,-1.7669208,14.274231,-0.93852705,2.034717,0.17151281,0.61361104,0.78050977,3.7828386,-2.231396
1570715542,-2.0159178,15.873557,-0.641646,1.9441669,0.14914156,0.6828553,0.93373865,6.14831,-0.8810662
1570715543,-3.572149,12.397177,-0.5315128,0.60828453,0.5528891,0.73931605,-0.8762778,2.777274,-1.091756
1570715543,-3.0071173,14.221559,-1.3790601,-0.12783563,-0.15020686,0.11824796,-0.6607997,4.5872903,-1.5370775
1570715543,-0.320823,7.374141,1.6903064,0.2759119,-0.43464115,-0.31745848,0.18674773,-1.2018893,0.6655881
1570715543,-0.320823,6.2345014,1.8770541,0.15553336,-0.49642837,-0.42718408,0.18674773,-1.2018893,0.6655881
1570715543,-0.37828386,6.2345014,1.8770541,0.15553336,-0.49642837,-0.42718408,0.18674773,-1.2018893,0.6655881
1570715543,-0.37828386,6.2345014,1.8770541,0.15553336,-0.49642837,-0.42718408,0.2777274,-3.5098996,1.0055647
1570715543,-0.37828386,6.2345014,1.8770541,0.15553336,-0.49642837,-0.42718408,0.2777274,-3.5098996,1.0055647
1570715543,-0.37828386,6.2345014,1.8770541,0.15553336,-0.49642837,-0.42718408,0.2777274,-3.5098996,1.0055647
1570715543,-0.37828386,6.2345014,1.8770541,0.15553336,-0.49642837,-0.42718408,0.2777274,-3.5098996,1.0055647
1570715543,-0.37828386,6.2345014,1.8770541,0.15553336,-0.49642837,-0.42718408,0.2777274,-3.5098996,1.0055647
1570715543,-0.37828386,6.2345014,1.8770541,0.15553336,-0.49642837,-0.42718408,0.2777274,-3.5098996,1.0055647
1570715543,-0.37828386,6.2345014,1.8770541,0.15553336,-0.49642837,-0.42718408,0.2777274,-3.5098996,1.0055647
1570715543,-0.37828386,6.2345014,1.8770541,0.15553336,-0.49642837,-0.42718408,0.2777274,-3.5098996,1.0055647
1570715543,-0.37828386,6.2345014,1.8770541,0.15553336,-0.49642837,-0.42718408,0.2777274,-3.5098996,1.0055647
1570715543,-0.37828386,6.2345014,1.8770541,0.15553336,-0.49642837,-0.42718408,0.2777274,-3.5098996,1.0055647
1570715543,-0.37828386,6.2345014,1.8770541,0.15553336,-0.49642837,-0.42718408,0.2777274,-3.5098996,1.0055647
1570715543,-0.37828386,6.2345014,1.8770541,0.15553336,-0.49642837,-0.42718408,0.2777274,-3.5098996,1.0055647
1570715543,-0.37828386,6.2345014,1.8770541,0.15553336,-0.49642837,-0.42718408,0.2777274,-3.5098996,1.0055647
1570715543,-0.46926352,5.1762643,2.1068976,-0.26632422,-0.64663523,-0.800038,0.24899697,-4.5633483,1.2162545
1570715543,0.4261679,14.958972,1.8339585,-1.306054,-1.2112426,-2.080525,1.5945383,5.2959743,0.63206923
1570715543,-1.7286136,11.15698,2.1739352,0.14274979,-0.7542302,-1.5180482,-0.11971009,1.5753847,0.79966336
1570715543,-4.027047,11.501745,0.9720459,0.47938362,-0.67539823,-0.9523755,-2.0638018,1.982399,-0.34955344
1570715543,-2.2266076,9.481039,1.0103531,0.1054644,-0.2769772,-0.40161693,-0.1340753,-0.01436521,-0.23463176
1570715543,-2.504335,10.414778,2.3223755,0.13103153,0.009587673,0.09055024,-0.38307226,0.91937345,1.0869676
1570715543,-1.934515,9.859323,1.1731589,-0.1043991,-0.050068956,0.117182665,0.1388637,0.35434186,-0.05746084
1570715543,-1.8148049,9.217676,1.388637,-0.040481284,-0.034089502,0.30147904,0.18674773,-0.29688102,0.12928689
1570715543,-1.1204864,8.350976,1.2497733,-0.07350549,0.02769772,0.20027582,0.80445176,-1.1779473,-0.009576807
1570715543,-1.3838485,9.672575,1.1971009,0.122509144,-0.0692443,0.15979454,0.49320555,0.12449849,-0.047884032
1570715543,-1.8531121,10.242394,0.6751649,0.26312834,-0.07457078,0.2087982,-0.033518825,0.6751649,-0.50278234
1570715543,-0.93373865,10.323798,0.93373865,-0.07457078,0.0063917814,0.09800732,0.8379706,0.7469909,-0.22505496
1570715543,-1.1540052,10.414778,1.2545617,-0.014914157,0.0042611877,0.10120321,0.59376204,0.8379706,0.07182605
1570715543,-1.0103531,11.09473,1.2258313,0.0692443,-0.015979454,0.16831692,0.6943185,1.508347,0.05746084
1570715543,-0.79487497,10.7356,0.8619126,-0.10652969,-0.0031958907,0.16618632,0.8714894,1.1013328,-0.35913026
1570715543,-1.0247183,9.643845,1.6759412,-0.4516859,-0.043677174,0.03089361,0.7182605,0.4405331,0.095768064
1570715544,-1.6136919,10.041282,2.1068976,-0.7382508,-0.3057402,-0.1374233,-0.40701428,0.45968673,0.51235914
1570715544,-1.3742718,5.7843914,2.7389667,0.18429637,-0.37285393,0.07883197,0.45489833,-4.606444,1.484405
1570715544,-1.508347,9.409213,1.2258313,0.08309316,-0.34302562,-0.05646074,0.15322891,-0.08619126,-0.21547815
1570715544,-1.8291701,9.44752,1.4700398,0.036220096,-0.29828313,-0.06285252,-0.12928689,-0.095768064,-0.062249243
1570715544,-1.9393034,9.504981,1.5849615,0.025567126,-0.23649593,-0.014914157,-0.29209262,-0.038307227,0.08140286
1570715544,-2.0494366,9.279925,1.5705963,0.009587673,-0.14168449,-0.0010652969,-0.44532153,-0.16280572,0.038307227
1570715544,-1.9297266,9.035717,1.532289,0.01384886,-0.067113705,-0.019175345,-0.3878607,-0.5602432,0.0
1570715544,-1.7860745,9.399636,1.6759412,-0.01065297,-0.06285252,-0.009587673,-0.24899697,-0.2777274,0.19153613
1570715544,-1.6376339,9.706094,1.7142484,0.0042611877,-0.063917816,0.005326485,-0.07182605,0.16759412,0.21068975
1570715544,-1.7956513,9.744401,1.5658079,0.0042611877,0.0063917814,0.01065297,-0.110133275,0.19153613,0.16759412
1570715544,-1.6280571,9.835381,1.412579,0.0063917814,-0.01384886,0.017044751,-0.076614454,0.2873042,-0.05267244
1570715544,-1.3359646,9.490616,1.6807296,-0.018110048,0.0063917814,0.029828314,0.17238252,0.02873042,0.20111294
1570715544,-1.2401965,9.193734,1.7956513,-0.0010652969,-0.068179004,0.009587673,0.30645782,-0.34476504,0.30166942
1570715544,-1.2641385,9.26556,1.8962077,0.023436533,-0.14488038,-0.023436533,0.3878607,-0.2681506,0.36870706
1570715544,-1.5514427,9.414001,1.7381904,0.019175345,-0.16512102,-0.04261188,0.047884032,-0.19632454,0.29688102
1570715544,-1.8148049,9.56723,1.8722657,-0.0085223755,-0.122509144,-0.01384886,-0.17238252,0.01436521,0.38307226
1570715544,-1.8243817,9.485827,1.8674773,-0.0010652969,-0.07244019,0.0042611877,-0.24420857,-0.07182605,0.34955344
1570715544,-1.8195933,9.279925,1.9919758,0.0042611877,-0.02769772,0.02130594,-0.2633622,-0.31124622,0.34476504
1570715544,-1.8004397,9.299079,2.0350714,-0.017044751,-0.0031958907,0.034089502,-0.23463176,-0.25857377,0.51235914
1570715544,-1.6472107,9.351752,1.934515,-0.017044751,0.028763017,0.04900366,-0.090979666,-0.20590134,0.40222588
1570715544,-1.5466543,9.461885,1.9488802,-0.0042611877,0.043677174,0.057526033,-0.0047884034,-0.10055647,0.41180268
1570715544,-1.5466543,9.323022,1.8531121,-0.02450183,0.09374613,0.054330144,-0.01436521,-0.23942018,0.31124622
1570715544,-1.340753,9.428367,1.7860745,-0.02769772,0.07776668,0.04154658,0.17717093,-0.1340753,0.23942018
1570715544,-1.1540052,9.586384,1.7860745,-0.02130594,0.068179004,0.03728539,0.35913026,0.019153614,0.22984336
1570715544,-1.067814,9.677363,1.7477672,-0.012783563,0.034089502,0.04900366,0.4357447,0.110133275,0.18674773
1570715544,-1.2306197,9.361329,1.685518,0.0085223755,-0.0010652969,0.054330144,0.25857377,-0.20111294,0.12449849
1570715544,-1.4030021,9.313444,1.541866,0.015979454,0.0031958907,0.044742472,0.07182605,-0.25378537,-0.01436521
1570715544,-1.4030021,9.442732,1.70946,-0.0010652969,-0.020240642,0.033024207,0.062249243,-0.12449849,0.1436521
1570715544,-1.3694834,9.548077,1.733402,0.0074570784,-0.015979454,0.035154797,0.08619126,-0.019153614,0.16759412
1570715544,-1.4173675,9.624691,1.7764976,0.005326485,0.022371236,0.045807768,0.023942016,0.047884032,0.21068975
1570715544,-1.532289,9.461885,1.5945383,0.0031958907,0.005326485,0.039415985,-0.095768064,-0.110133275,0.023942016
1570715544,-1.3359646,9.423578,1.6950948,0.0,0.040481284,0.034089502,0.033518825,-0.1340753,0.12928689
1570715544,-1.292869,9.514558,1.7621324,-0.0085223755,0.045807768,0.040481284,0.14844051,-0.095768064,0.14844051
1570715545,-1.1300632,9.481039,1.7190368,-0.0042611877,0.039415985,0.05113425,0.23463176,-0.038307227,0.1388637
1570715545,-1.1731589,9.500193,1.6280571,0.0010652969,0.03089361,0.050068956,0.31124622,0.0,0.05267244
1570715545,-1.1923125,9.490616,1.6711528,0.0010652969,0.05539544,0.04261188,0.24899697,-0.08140286,0.009576807
1570715545,-1.1875241,9.615114,1.5993267,0.0,0.04154658,0.043677174,0.10534488,0.019153614,0.07182605
1570715545,-1.1109096,9.490616,1.6184803,0.0021305939,0.015979454,0.04261188,0.272939,-0.019153614,0.009576807
1570715545,-1.1492168,9.380483,1.6376339,0.005326485,0.011718267,0.03728539,0.22984336,-0.22026655,0.0
1570715545,-1.1923125,9.481039,1.5753847,0.01065297,0.01065297,0.022371236,0.076614454,-0.11492168,0.019153614
1570715545,-1.163582,9.485827,1.6328455,0.0063917814,-0.0085223755,0.012783563,0.17717093,-0.038307227,0.05267244
1570715545,-1.1875241,9.437943,1.7238252,0.0063917814,-0.0021305939,0.020240642,0.22505496,-0.12449849,0.110133275
1570715545,-1.1683705,9.504981,1.757344,-0.0063917814,-0.0074570784,0.015979454,0.15322891,-0.07182605,0.1340753
1570715545,-1.1587936,9.519346,1.6136919,-0.0042611877,-0.01384886,0.0042611877,0.10534488,-0.062249243,0.038307227
1570715545,-1.1444284,9.414001,1.6280571,-0.0085223755,0.0010652969,0.01065297,0.17717093,-0.15322891,0.023942016
1570715545,-1.1875241,9.509769,1.7477672,-0.0063917814,0.011718267,0.0074570784,0.15322891,-0.12449849,0.18674773
1570715545,-1.067814,9.461885,1.661576,0.0063917814,-0.020240642,0.0010652969,0.19632454,-0.1388637,0.1340753
1570715545,-1.1013328,9.404425,1.6998832,-0.0010652969,-0.0021305939,-0.0042611877,0.11971009,-0.18195933,0.076614454
1570715545,-1.283292,9.452309,1.6903064,-0.03089361,0.0,-0.0031958907,0.038307227,-0.1340753,0.16759412
1570715545,-1.0342951,9.629479,1.7429788,-0.025567126,-0.017044751,-0.01065297,0.2777274,-0.009576807,0.20590134
1570715545,-1.1540052,9.471462,1.757344,-0.019175345,-0.011718267,-0.020240642,0.17717093,-0.076614454,0.14844051
1570715545,-1.0869676,9.428367,1.6424223,-0.0085223755,-0.0042611877,-0.028763017,0.16280572,-0.11971009,0.06703765
1570715545,-1.0390835,9.504981,1.6376339,-0.012783563,-0.015979454,-0.029828314,0.19153613,-0.12928689,-0.0047884034
1570715545,-1.2258313,9.543288,1.7621324,-0.017044751,-0.011718267,-0.020240642,0.110133275,-0.047884032,0.10534488
1570715545,-1.2545617,9.442732,1.7717092,-0.017044751,0.0042611877,-0.015979454,0.076614454,-0.12928689,0.12449849
1570715545,-1.283292,9.409213,1.7525556,-0.019175345,-0.01384886,-0.020240642,0.05267244,-0.16280572,0.10055647
1570715545,-1.3742718,9.504981,1.70946,-0.028763017,-0.011718267,-0.035154797,-0.02873042,-0.062249243,0.047884032
1570715545,-1.292869,9.682152,1.6903064,-0.02769772,-0.0010652969,-0.017044751,0.05267244,0.110133275,0.019153614
1570715545,-1.3599066,9.490616,1.7525556,-0.020240642,0.01384886,0.0042611877,-0.009576807,-0.076614454,0.076614454
1570715545,-1.3263878,9.466674,1.6328455,-0.0085223755,0.009587673,-0.0042611877,0.019153614,-0.10055647,-0.04309563
1570715545,-1.1779473,9.591172,1.7046716,-0.0074570784,0.012783563,-0.005326485,0.16759412,0.023942016,0.019153614
1570715545,-1.3551182,9.552865,1.7238252,-0.0074570784,0.046873067,0.009587673,-0.0047884034,-0.009576807,0.038307227
1570715545,-1.2162545,9.5385,1.8148049,0.0,0.054330144,0.020240642,0.12449849,-0.023942016,0.12928689
1570715545,-1.2401965,9.528923,1.9057846,-0.005326485,0.04154658,0.014914157,0.095768064,-0.038307227,0.22026655
1570715545,-1.1731589,9.375694,1.7477672,0.0085223755,0.025567126,0.01065297,0.15801731,-0.19153613,0.062249243
1570715545,-1.1252748,9.3182335,1.6519991,-0.0010652969,0.0085223755,0.0021305939,0.20590134,-0.24899697,-0.02873042
1570715546,-1.2545617,9.524135,1.8387469,-0.0085223755,0.026632423,-0.005326485,0.076614454,-0.04309563,0.15322891
1570715546,-1.2306197,9.423578,1.757344,-0.011718267,0.017044751,0.0042611877,0.10055647,-0.1436521,0.06703765
1570715546,-1.316811,9.44752,1.733402,-0.01384886,0.0010652969,0.0074570784,0.062249243,-0.1388637,0.10055647
1570715546,-1.3455414,9.605537,1.7764976,-0.0031958907,-0.005326485,0.0042611877,0.009576807,-0.019153614,0.090979666
1570715546,-1.340753,9.495404,1.7717092,-0.0042611877,0.01384886,0.0042611877,-0.062249243,-0.062249243,0.01436521
1570715546,-1.2737153,9.289502,1.7286136,0.0021305939,0.01065297,0.014914157,0.090979666,-0.22984336,0.08619126
1570715546,-1.2401965,9.3182335,1.8100165,-0.009587673,0.01384886,0.009587673,0.11492168,-0.25857377,0.14844051
1570715546,-1.3263878,9.524135,1.7238252,-0.028763017,-0.0031958907,-0.011718267,-0.047884032,-0.095768064,0.038307227
1570715546,-1.3024458,9.696517,1.7381904,-0.017044751,0.02769772,-0.0021305939,0.047884032,0.08140286,0.0047884034
1570715546,-1.2880806,9.457097,1.8004397,-0.005326485,0.031958908,0.0063917814,0.05746084,-0.047884032,0.08619126
1570715546,-1.2258313,9.414001,1.7812861,0.0031958907,0.009587673,0.0010652969,0.11971009,-0.21547815,0.08619126
1570715546,-1.1779473,9.461885,1.757344,-0.0063917814,0.0031958907,0.0,0.11492168,-0.11492168,0.038307227
1570715546,-1.2210429,9.437943,1.7525556,-0.019175345,0.0063917814,0.0,0.095768064,-0.1436521,0.05267244
1570715546,-1.2976574,9.466674,1.733402,-0.012783563,0.014914157,0.0021305939,0.06703765,-0.076614454,0.009576807
1570715546,-1.3359646,9.504981,1.7621324,-0.0063917814,0.0031958907,-0.0010652969,-0.009576807,-0.095768064,0.062249243
1570715546,-1.2689269,9.576807,1.7525556,-0.0031958907,0.011718267,0.0021305939,0.08140286,-0.05267244,0.02873042
1570715546,-1.2641385,9.5385,1.7717092,-0.0021305939,0.011718267,0.0074570784,0.1388637,-0.038307227,0.08140286
1570715546,-1.3263878,9.428367,1.8387469,0.0063917814,0.029828314,0.018110048,-0.04309563,-0.047884032,0.076614454
1570715546,-1.3024458,9.409213,1.8339585,0.01384886,0.015979454,0.019175345,0.0,-0.19632454,0.04309563
1570715546,-1.2210429,9.461885,1.8914193,0.005326485,0.011718267,0.01065297,0.038307227,-0.110133275,0.1436521
1570715546,-1.2976574,9.490616,1.7908629,-0.0031958907,0.0063917814,0.0021305939,0.0,-0.07182605,0.062249243
1570715546,-1.1731589,9.591172,1.6567876,0.0031958907,0.023436533,0.0085223755,0.11971009,0.023942016,-0.06703765
1570715546,-1.1971009,9.3661175,1.7860745,0.009587673,0.0021305939,0.019175345,0.095768064,-0.19632454,0.05746084
1570715546,-1.1731589,9.346964,1.7717092,0.0031958907,0.0074570784,0.01065297,0.11492168,-0.22026655,0.04309563
1570715546,-1.2354081,9.481039,1.7046716,-0.0010652969,-0.0042611877,-0.005326485,0.05267244,-0.08140286,-0.019153614
1570715546,-1.2641385,9.581595,1.8195933,-0.0063917814,0.01065297,-0.0085223755,0.023942016,0.01436521,0.090979666
1570715546,-1.2018893,9.552865,1.733402,-0.011718267,0.017044751,0.0085223755,0.08619126,-0.009576807,0.0
1570715546,-1.1492168,9.504981,1.7142484,0.009587673,0.0074570784,0.0063917814,0.1388637,-0.05746084,-0.01436521
1570715546,-1.0726024,9.457097,1.7429788,0.02130594,0.009587673,0.0074570784,0.21068975,-0.10534488,0.01436521
1570715546,-1.0247183,9.557653,1.8243817,0.0063917814,-0.005326485,0.0042611877,0.25857377,-0.009576807,0.095768064
1570715546,-1.163582,9.500193,1.7381904,0.009587673,-0.011718267,0.005326485,0.11492168,-0.06703765,0.009576807
1570715546,-1.2354081,9.394848,1.7286136,0.01384886,-0.011718267,-0.0021305939,0.04309563,-0.17238252,0.0047884034
1570715546,-1.2066777,9.44752,1.8531121,0.009587673,-0.014914157,-0.009587673,0.076614454,-0.12449849,0.05746084
1570715546,-1.2545617,9.56723,1.733402,0.0042611877,-0.01384886,-0.0031958907,0.01436521,0.0,0.02873042
1570715547,-1.2114661,9.409213,1.7429788,0.0085223755,-0.009587673,0.0021305939,0.062249243,-0.15801731,0.019153614
1570715547,-1.2545617,9.423578,1.8435353,0.0074570784,-0.0085223755,-0.0031958907,-0.0047884034,-0.1436521,0.11971009
1570715547,-1.2737153,9.404425,1.7286136,0.011718267,-0.0085223755,-0.0074570784,0.02873042,-0.110133275,0.023942016
1570715547,-1.2210429,9.428367,1.7142484,0.0,-0.0031958907,-0.012783563,0.0,-0.095768064,-0.04309563
1570715547,-1.1875241,9.495404,1.7621324,-0.0042611877,0.015979454,-0.0021305939,0.062249243,-0.04309563,0.02873042
1570715547,-1.1587936,9.504981,1.7717092,-0.0031958907,0.0074570784,0.0021305939,0.05267244,-0.10534488,0.04309563
1570715547,-1.1875241,9.5385,1.6567876,0.0021305939,0.0085223755,0.0021305939,0.11971009,-0.033518825,-0.05267244
1570715547,-1.1348516,9.615114,1.6950948,0.012783563,0.015979454,0.0074570784,0.1340753,-0.02873042,-0.05267244
1570715547,-1.2114661,9.572019,1.7764976,0.014914157,0.01065297,0.009587673,0.090979666,0.019153614,0.07182605
1570715547,-1.1683705,9.490616,1.7046716,0.019175345,-0.0031958907,0.009587673,0.1340753,-0.08619126,-0.0047884034
1570715547,-1.1444284,9.404425,1.6663644,0.014914157,-0.0074570784,0.0063917814,0.06703765,-0.18674773,-0.038307227
1570715547,-1.2689269,9.428367,1.7525556,-0.0010652969,-0.005326485,0.0010652969,0.05746084,-0.1340753,-0.009576807
1570715547,-1.2066777,9.634268,1.70946,0.0010652969,-0.0085223755,-0.0010652969,0.038307227,0.047884032,-0.038307227
1570715547,-1.1923125,9.442732,1.7190368,0.01065297,-0.029828314,0.0010652969,0.090979666,-0.08619126,0.0047884034
1570715547,-1.2210429,9.299079,1.7286136,0.012783563,-0.0063917814,0.0,0.02873042,-0.19632454,-0.033518825
1570715547,-1.2545617,9.485827,1.7525556,0.005326485,-0.018110048,-0.01065297,0.019153614,-0.15322891,-0.0047884034
1570715547,-1.2306197,9.533711,1.8052281,-0.0042611877,-0.018110048,-0.0085223755,0.02873042,-0.038307227,0.095768064
1570715547,-1.2880806,9.481039,1.7812861,-0.01065297,-0.0042611877,-0.0031958907,-0.023942016,-0.090979666,0.06703765
1570715547,-1.2018893,9.442732,1.6472107,0.0,-0.0063917814,-0.0085223755,0.05746084,-0.12928689,-0.06703765
1570715547,-1.2018893,9.5385,1.6663644,-0.0031958907,0.0,-0.0021305939,0.05746084,-0.033518825,-0.047884032
1570715547,-1.1827357,9.509769,1.7046716,-0.0021305939,-0.0021305939,0.005326485,0.076614454,-0.062249243,-0.009576807
1570715547,-1.1252748,9.452309,1.6950948,0.0010652969,0.005326485,0.0042611877,0.12928689,-0.11971009,-0.019153614
1570715547,-1.1444284,9.385271,1.6903064,-0.009587673,-0.0010652969,-0.0063917814,0.110133275,-0.18674773,-0.02873042
1570715547,-1.1204864,9.519346,1.7669208,-0.0031958907,-0.0042611877,-0.0031958907,0.1340753,-0.05267244,0.04309563
1570715547,-1.2354081,9.5385,1.685518,-0.01384886,0.0,0.0,0.019153614,-0.02873042,-0.038307227
1570715547,-1.1204864,9.533711,1.6759412,-0.0074570784,0.0031958907,0.0021305939,0.1340753,-0.033518825,-0.047884032
1570715547,-1.2306197,9.44752,1.7812861,-0.0031958907,0.0031958907,0.005326485,0.023942016,-0.11971009,0.047884032
1570715547,-1.1779473,9.3182335,1.733402,-0.0042611877,0.0,-0.0063917814,0.076614454,-0.24899697,0.0
1570715547,-1.2497733,9.485827,1.8435353,-0.012783563,-0.0074570784,-0.011718267,0.0047884034,-0.08140286,0.110133275
1570715547,-1.283292,9.495404,1.7764976,-0.018110048,0.0074570784,-0.005326485,0.009576807,-0.090979666,0.047884032
1570715547,-1.292869,9.495404,1.757344,-0.02450183,0.019175345,0.0021305939,-0.038307227,-0.047884032,0.023942016
1570715547,-1.1540052,9.514558,1.6903064,-0.009587673,0.017044751,0.0,0.10055647,-0.05267244,-0.05267244
1570715547,-1.1683705,9.504981,1.757344,-0.0031958907,0.015979454,0.0031958907,0.08619126,-0.05746084,0.0047884034
1570715548,-1.1587936,9.500193,1.7381904,-0.0021305939,0.011718267,0.0063917814,0.095768064,-0.06703765,-0.009576807
1570715548,-1.2066777,9.442732,1.7477672,0.0031958907,0.01065297,0.0021305939,0.047884032,-0.12449849,0.0
1570715548,-1.2497733,9.390059,1.7286136,0.0021305939,0.0021305939,0.0,0.062249243,-0.14844051,-0.0047884034
1570715548,-1.2641385,9.528923,1.7860745,-0.005326485,-0.0010652969,-0.005326485,0.019153614,0.0,0.019153614
1570715548,-1.2162545,9.600749,1.7286136,-0.0063917814,0.0010652969,0.0063917814,0.033518825,0.02873042,-0.019153614
1570715548,-1.2018893,9.442732,1.70946,0.0010652969,0.0010652969,0.005326485,0.033518825,-0.047884032,0.023942016
1570715548,-1.2354081,9.380483,1.7286136,0.011718267,0.0063917814,0.0,-0.0047884034,-0.1340753,-0.01436521
1570715548,-1.1827357,9.337387,1.7669208,0.0010652969,0.005326485,0.0010652969,0.090979666,-0.23463176,0.01436521
1570715548,-1.2545617,9.32781,1.7812861,-0.015979454,0.01065297,0.0021305939,0.0047884034,-0.19153613,0.033518825
1570715548,-1.2162545,9.457097,1.7860745,-0.019175345,0.015979454,-0.014914157,0.05267244,-0.1436521,0.038307227
1570715548,-1.13964,9.543288,1.8004397,-0.022371236,0.01384886,-0.011718267,0.12449849,0.0047884034,0.02873042
1570715548,-1.1971009,9.519346,1.6567876,-0.025567126,0.020240642,-0.0074570784,0.05746084,-0.04309563,-0.110133275
1570715548,-1.0869676,9.572019,1.6998832,-0.015979454,0.02450183,0.0042611877,0.16759412,0.009576807,-0.019153614
1570715548,-1.115698,9.490616,1.6519991,-0.005326485,0.0074570784,0.0031958907,0.11971009,-0.06703765,-0.076614454
1570715548,-1.1875241,9.423578,1.8243817,0.0021305939,0.012783563,0.009587673,0.095768064,-0.11971009,-0.038307227
1570715548,-1.3024458,9.461885,1.8483237,-0.009587673,0.0074570784,-0.0010652969,0.009576807,-0.10534488,0.11492168
1570715548,-1.3215994,9.471462,1.7669208,-0.012783563,0.017044751,-0.0010652969,-0.06703765,-0.10534488,0.047884032
1570715548,-1.1875241,9.605537,1.8914193,-0.011718267,0.026632423,0.0085223755,0.01436521,0.033518825,0.02873042
1570715548,-1.3599066,9.3421755,1.8339585,-0.0074570784,0.0085223755,0.012783563,-0.076614454,-0.18195933,0.04309563
1570715548,-1.2354081,9.514558,1.8387469,-0.018110048,0.015979454,-0.0042611877,-0.0047884034,-0.07182605,0.05746084
1570715548,-1.2354081,9.514558,1.8387469,-0.018110048,0.015979454,-0.0042611877,-0.0047884034,-0.07182605,0.05746084
1570715548,-1.3551182,9.495404,1.8962077,-0.020240642,0.02130594,0.0063917814,-0.10055647,-0.019153614,0.14844051
1570715548,-1.2976574,9.461885,1.7812861,-0.014914157,0.01384886,0.0031958907,-0.047884032,-0.095768064,-0.009576807
1570715548,-1.2497733,9.504981,1.7238252,0.0031958907,0.02130594,0.009587673,0.0,-0.05267244,-0.06703765
1570715548,-1.2018893,9.552865,1.8339585,0.0042611877,0.029828314,0.015979454,0.04309563,-0.0047884034,0.038307227
1570715548,-1.0965444,9.41879,1.7860745,0.01065297,0.0031958907,0.0085223755,0.16280572,-0.11492168,-0.019153614
1570715548,-1.0630256,9.399636,1.8866309,0.0042611877,-0.005326485,0.005326485,0.17717093,-0.15801731,0.095768064
1570715548,-1.1827357,9.308656,1.7142484,-0.0031958907,-0.019175345,-0.009587673,0.05746084,-0.24899697,-0.07182605
1570715548,-1.2593501,9.509769,1.7764976,-0.022371236,-0.017044751,-0.014914157,-0.01436521,-0.047884032,-0.01436521
1570715548,-1.1779473,9.744401,1.7286136,-0.014914157,0.0074570784,-0.0042611877,0.06703765,0.18195933,-0.07182605
1570715548,-1.316811,9.461885,1.7477672,0.005326485,0.020240642,0.023436533,-0.07182605,-0.095768064,-0.05267244
1570715548,-1.3072342,9.289502,1.8004397,0.015979454,0.01065297,0.025567126,-0.07182605,-0.2681506,0.0
1570715548,-1.3455414,9.500193,1.7621324,-0.0021305939,0.025567126,0.011718267,-0.110133275,-0.05746084,-0.02873042
1570715549,-1.3024458,9.548077,1.757344,-0.005326485,0.019175345,0.009587673,-0.07182605,-0.009576807,-0.038307227
1570715549,-1.2258313,9.481039,1.7956513,-0.012783563,0.025567126,0.025567126,0.0,-0.076614454,0.0
1570715549,-1.1204864,9.437943,1.7429788,-0.01384886,0.025567126,0.012783563,0.10055647,-0.11971009,-0.05746084
1570715549,-1.0247183,9.528923,1.8435353,-0.011718267,0.014914157,0.0021305939,0.19632454,-0.02873042,0.038307227
1570715549,-1.1348516,9.466674,1.7764976,-0.01065297,0.014914157,0.012783563,0.08140286,-0.090979666,-0.02873042
1570715549,-1.0582372,9.457097,1.7956513,-0.01065297,0.014914157,0.012783563,0.110133275,-0.01436521,0.01436521
1570715549,-1.0199299,9.500193,1.8435353,-0.0021305939,0.009587673,0.011718267,0.11492168,-0.07182605,0.0047884034
1570715549,-1.0773908,9.466674,1.8962077,0.0010652969,-0.0021305939,0.0010652969,0.1340753,-0.090979666,0.08619126
1570715549,-1.1683705,9.548077,1.7860745,-0.0031958907,-0.0010652969,0.0010652969,0.06703765,-0.023942016,0.05267244
1570715549,-1.1540052,9.624691,1.8195933,-0.005326485,0.0085223755,0.01384886,0.06703765,0.06703765,-0.062249243
1570715549,-1.2401965,9.433155,1.7860745,0.005326485,0.0,0.012783563,-0.06703765,-0.12928689,-0.01436521
1570715549,-1.1875241,9.390059,1.7621324,0.01065297,0.01065297,0.0085223755,0.02873042,-0.1436521,-0.0047884034
1570715549,-1.2545617,9.390059,1.7477672,0.0021305939,0.02130594,0.005326485,-0.033518825,-0.14844051,-0.090979666
1570715549,-1.163582,9.461885,1.9153614,-0.0074570784,0.02130594,0.0085223755,-0.0047884034,-0.06703765,0.05746084
1570715549,-1.0869676,9.471462,1.8148049,-0.0063917814,0.02130594,0.012783563,0.08140286,-0.076614454,-0.009576807
1570715549,-1.1252748,9.452309,1.7046716,-0.0063917814,0.03089361,0.0085223755,0.04309563,-0.12928689,-0.047884032
1570715549,-1.0390835,9.548077,1.7621324,-0.009587673,0.02769772,0.019175345,0.12928689,-0.033518825,-0.0047884034
1570715549,-1.1109096,9.476251,1.8148049,-0.0085223755,0.017044751,0.020240642,0.12928689,-0.05746084,-0.01436521
1570715549,-1.115698,9.3661175,1.7956513,0.0021305939,0.020240642,0.015979454,0.062249243,-0.23463176,-0.062249243
1570715549,-1.0630256,9.409213,1.8531121,-0.011718267,0.014914157,0.0063917814,0.12449849,-0.1340753,0.023942016
1570715549,-1.1300632,9.442732,1.8579005,-0.017044751,0.0074570784,-0.0031958907,0.10055647,-0.15322891,0.033518825
1570715549,-1.1587936,9.581595,1.8243817,-0.023436533,0.012783563,0.0010652969,-0.019153614,-0.033518825,0.019153614
1570715549,-1.1444284,9.471462,1.7717092,-0.015979454,0.0074570784,0.005326485,0.062249243,-0.009576807,-0.01436521
1570715549,-1.1204864,9.423578,1.8291701,-0.009587673,0.011718267,0.0031958907,-0.009576807,-0.12928689,0.02873042
1570715549,-1.1061212,9.423578,1.8004397,-0.009587673,0.018110048,0.0031958907,0.07182605,-0.1340753,-0.02873042
1570715549,-1.1683705,9.504981,1.8579005,-0.018110048,0.01384886,0.0063917814,0.023942016,0.0,0.023942016
1570715549,-1.1300632,9.476251,1.8387469,-0.023436533,0.022371236,0.0063917814,0.04309563,-0.08140286,0.0
1570715549,-1.0055647,9.615114,1.9728222,-0.025567126,0.022371236,0.005326485,0.16759412,0.05267244,0.12449849
1570715549,-1.0630256,9.414001,1.8674773,-0.023436533,0.0074570784,-0.0042611877,0.110133275,-0.1388637,0.009576807
1570715549,-1.0295067,9.5385,1.9393034,-0.028763017,0.009587673,-0.005326485,0.1436521,-0.01436521,0.076614454
1570715549,-0.9911995,9.495404,1.8962077,-0.023436533,-0.017044751,-0.0031958907,0.18195933,-0.05746084,0.023942016
1570715549,-1.0486604,9.44752,1.8770541,-0.015979454,-0.018110048,-0.012783563,0.12449849,-0.10534488,0.0
1570715549,-1.1061212,9.442732,1.8483237,-0.020240642,-0.023436533,-0.015979454,0.07182605,-0.10534488,-0.02873042
1570715549,-1.1683705,9.504981,1.8866309,-0.019175345,-0.014914157,-0.01384886,0.009576807,-0.04309563,0.0
1570715550,-1.2785037,9.634268,1.8962077,-0.017044751,-0.0010652969,-0.0031958907,-0.090979666,0.08140286,0.0
1570715550,-1.2689269,9.457097,1.7908629,-0.0010652969,0.009587673,-0.0010652969,-0.08619126,-0.090979666,-0.10055647
1570715550,-1.2162545,9.255983,1.8004397,-0.0010652969,0.06178722,-0.005326485,-0.02873042,-0.29209262,-0.08619126
1570715550,-1.1061212,9.184157,2.006341,-0.033024207,0.064983115,-0.02450183,0.08619126,-0.36391866,0.110133275
1570715550,-0.9528923,9.548077,2.1404164,-0.068179004,0.009587673,-0.03728539,0.24899697,0.0,0.22984336
1570715550,-1.1013328,9.500193,1.8100165,-0.08415846,0.02130594,-0.02450183,0.110133275,-0.033518825,-0.11492168
1570715550,-1.13964,9.528923,1.8962077,-0.070309594,0.054330144,-0.015979454,0.023942016,-0.033518825,-0.07182605
1570715550,-1.13964,9.562442,2.0159178,-0.040481284,0.023436533,-0.019175345,0.08140286,0.02873042,0.05267244
1570715550,-1.1061212,9.495404,1.9249382,-0.025567126,0.017044751,-0.01065297,0.11971009,-0.02873042,-0.038307227
1570715550,-1.067814,9.375694,1.8866309,-0.025567126,0.0074570784,-0.014914157,0.1436521,-0.095768064,-0.01436521
1570715550,-1.1444284,9.361329,1.9919758,-0.031958908,-0.005326485,-0.019175345,0.17238252,-0.1340753,0.033518825
1570715550,-1.2785037,9.524135,1.9488802,-0.033024207,-0.011718267,-0.026632423,-0.08619126,-0.07182605,-0.02873042
1570715550,-1.1971009,9.509769,1.9057846,-0.02130594,-0.0021305939,-0.020240642,0.033518825,-0.04309563,-0.02873042
1570715550,-1.3072342,9.452309,1.9776106,-0.0074570784,0.0074570784,-0.005326485,-0.04309563,-0.04309563,-0.019153614
1570715550,-1.3263878,9.433155,2.0350714,-0.01384886,0.01065297,-0.0010652969,-0.11971009,-0.11492168,0.038307227
1570715550,-1.2737153,9.375694,1.9249382,-0.012783563,0.022371236,-0.009587673,-0.07182605,-0.18674773,-0.07182605
1570715550,-1.3215994,9.457097,1.9680338,-0.020240642,0.05113425,-0.0021305939,-0.15322891,-0.08140286,-0.05267244
1570715550,-1.283292,9.375694,1.9728222,-0.01065297,0.059656627,0.0031958907,-0.06703765,-0.10055647,-0.038307227
1570715550,-1.1971009,9.414001,2.0446482,-0.026632423,0.07244019,0.0,0.06703765,-0.095768064,-0.02873042
1570715550,-1.1731589,9.519346,2.0350714,-0.034089502,0.068179004,0.012783563,0.110133275,-0.038307227,0.07182605
1570715550,-1.1444284,9.471462,2.0590134,-0.029828314,0.04261188,0.0085223755,0.11971009,-0.06703765,0.11492168
1570715550,-1.1204864,9.476251,1.9871874,-0.017044751,0.025567126,-0.0074570784,0.10055647,-0.090979666,-0.0047884034
1570715550,-1.1779473,9.351752,2.0925324,-0.02130594,0.012783563,-0.0031958907,0.062249243,-0.08619126,0.06703765
1570715550,-1.2737153,9.380483,2.135628,-0.026632423,0.0010652969,-0.0063917814,0.0047884034,-0.15801731,0.110133275
1570715550,-1.3503298,9.495404,2.1164744,-0.020240642,0.0021305939,-0.012783563,-0.08140286,-0.0047884034,0.08619126
1570715550,-1.3359646,9.557653,2.0829554,-0.0085223755,0.022371236,0.0085223755,-0.07182605,0.047884032,0.038307227
1570715550,-1.4460979,9.26556,2.1068976,0.0063917814,-0.0010652969,0.01384886,-0.14844051,-0.22026655,0.08619126
1570715550,-1.3551182,9.332599,2.0446482,-0.0021305939,0.012783563,-0.0021305939,-0.14844051,-0.21547815,0.0
1570715550,-1.2689269,9.399636,2.0254946,-0.0074570784,0.018110048,0.0,-0.009576807,-0.10534488,-0.01436521
1570715550,-1.4269443,9.356541,2.1164744,-0.018110048,0.029828314,0.005326485,-0.16759412,-0.1340753,0.062249243
1570715550,-1.3024458,9.466674,2.030283,-0.011718267,0.02769772,0.01065297,-0.04309563,-0.038307227,-0.01436521
1570715550,-1.1923125,9.504981,2.0446482,-0.0021305939,0.033024207,0.017044751,0.062249243,0.0,0.0
1570715550,-1.1492168,9.442732,2.0829554,0.0010652969,0.025567126,0.0063917814,0.10055647,-0.062249243,0.033518825
1570715551,-1.1061212,9.394848,2.0494366,-0.0010652969,0.0,-0.0010652969,0.1436521,-0.110133275,0.0
1570715551,-1.1827357,9.308656,2.0446482,-0.011718267,0.0063917814,-0.0021305939,0.07182605,-0.19632454,0.0
1570715551,-1.1492168,9.3182335,2.0685902,-0.012783563,-0.012783563,-0.01065297,0.10534488,-0.18674773,0.01436521
1570715551,-1.2210429,9.509769,2.1260512,-0.018110048,-0.01065297,-0.01384886,0.038307227,0.0,0.06703765
1570715551,-1.2976574,9.572019,2.0733786,-0.017044751,-0.01065297,-0.0074570784,-0.033518825,0.06703765,0.009576807
1570715551,-1.2641385,9.428367,1.982399,0.0010652969,-0.0021305939,0.0,0.0,-0.07182605,-0.08140286
1570715551,-1.2545617,9.332599,2.1452048,-0.0010652969,0.0063917814,-0.0063917814,0.0047884034,-0.16759412,0.076614454
1570715551,-1.2258313,9.380483,2.1021092,-0.005326485,-0.01384886,-0.015979454,0.038307227,-0.11971009,0.033518825
1570715551,-1.2593501,9.399636,2.1212628,-0.011718267,-0.0010652969,-0.011718267,0.0047884034,-0.10055647,0.047884032
1570715551,-1.3455414,9.337387,2.1068976,-0.01384886,0.0,-0.012783563,-0.07182605,-0.15801731,0.02873042
1570715551,-1.163582,9.404425,2.1499932,-0.0074570784,-0.0021305939,-0.009587673,0.110133275,-0.090979666,0.06703765
1570715551,-1.1540052,9.452309,2.0638018,-0.01065297,0.0085223755,0.0031958907,0.11971009,-0.04309563,-0.01436521
1570715551,-1.2880806,9.437943,2.0925324,-0.011718267,0.0,0.0010652969,0.01436521,-0.08140286,0.07182605
1570715551,-1.292869,9.394848,2.0446482,-0.005326485,0.0021305939,-0.0074570784,-0.01436521,-0.10055647,-0.038307227
1570715551,-1.3263878,9.404425,2.0973208,-0.01065297,-0.0031958907,-0.011718267,0.019153614,-0.095768064,-0.033518825
1570715551,-1.1587936,9.32781,2.1021092,-0.011718267,-0.01384886,-0.017044751,0.1340753,-0.17717093,-0.090979666
1570715551,-1.2880806,9.423578,1.982399,-0.022371236,-0.022371236,-0.01384886,-0.01436521,-0.095768064,-0.08619126
1570715551,-1.3215994,9.457097,1.982399,-0.02769772,0.0021305939,-0.0074570784,-0.10055647,-0.02873042,-0.1388637
1570715551,-1.2641385,9.504981,2.078167,-0.02130594,-0.020240642,0.0021305939,-0.05267244,0.076614454,-0.08140286
1570715551,-1.340753,9.576807,2.0494366,0.0042611877,-0.01065297,0.01065297,-0.05267244,0.10534488,-0.095768064
1570715551,-1.2449849,9.557653,1.9201498,0.023436533,-0.020240642,0.028763017,-0.04309563,0.12449849,-0.21547815
1570715551,-1.292869,9.533711,2.0829554,0.018110048,0.0063917814,0.0692443,-0.023942016,0.08140286,-0.10534488
1570715551,-1.2689269,9.169792,1.9728222,0.018110048,-0.031958908,0.10120321,0.019153614,0.50278234,-0.01436521
1570715551,-1.2593501,9.188946,2.0254946,0.02450183,-0.017044751,0.08522376,0.047884032,-0.06703765,0.11492168
1570715551,-1.1587936,9.279925,2.0398598,0.012783563,-0.011718267,0.05219955,0.0,-0.24420857,-0.038307227
1570715551,-1.316811,9.188946,2.1021092,-0.011718267,0.01384886,0.044742472,-0.038307227,-0.29209262,0.038307227
1570715551,-1.115698,9.165004,1.9440918,-0.02769772,-0.0074570784,0.04900366,0.06703765,0.0047884034,0.10534488
1570715551,-1.115698,9.390059,2.15957,-0.046873067,0.015979454,0.029828314,0.1340753,-0.1340753,0.10534488
1570715551,-1.1300632,9.346964,2.078167,-0.035154797,0.014914157,0.017044751,0.02873042,-0.15801731,-0.02873042
1570715551,-1.2545617,9.639056,2.2122424,-0.03835069,0.04900366,0.02130594,-0.04309563,0.023942016,-0.038307227
1570715551,-1.1013328,9.648633,2.2361844,-0.012783563,0.045807768,0.050068956,0.0,0.16759412,0.047884032
1570715551,-1.1587936,9.375694,2.1499932,-0.0085223755,0.057526033,0.068179004,-0.009576807,-0.12449849,0.019153614
1570715551,-1.0582372,9.351752,2.0638018,-0.0063917814,0.04900366,0.06178722,-0.009576807,-0.21068975,-0.062249243
1570715552,-1.1252748,9.370906,2.078167,-0.0063917814,0.053264845,0.057526033,-0.0047884034,-0.1340753,-0.047884032
1570715552,-1.0965444,9.452309,2.0925324,-0.0074570784,0.05219955,0.06178722,0.0047884034,-0.05267244,-0.033518825
1570715552,-1.0582372,9.509769,2.1164744,-0.0010652969,0.05113425,0.063917816,0.033518825,0.0,-0.009576807
1570715552,-1.043872,9.399636,2.1404164,0.0063917814,0.040481284,0.060721926,0.033518825,-0.110133275,0.01436521
1570715552,-1.1061212,9.32781,2.0638018,0.0042611877,0.023436533,0.07137489,-0.038307227,-0.18674773,-0.05267244
1570715552,-0.9528923,9.504981,2.0973208,0.009587673,0.031958908,0.06285252,0.095768064,-0.009576807,-0.01436521
1570715552,-1.0821792,9.380483,2.2457612,0.0042611877,0.029828314,0.07457078,-0.04309563,-0.1388637,0.12928689
1570715552,-1.0247183,9.289502,2.1404164,0.011718267,0.022371236,0.064983115,-0.0047884034,-0.22984336,0.02873042
1570715552,-0.91937345,9.457097,2.135628,0.0063917814,0.034089502,0.04900366,0.08619126,-0.06703765,0.023942016
1570715552,-0.90979666,9.433155,2.2409728,0.0031958907,0.057526033,0.053264845,0.08140286,-0.090979666,0.1340753
1570715552,-0.90021986,9.232041,2.1021092,0.005326485,0.036220096,0.05219955,0.08140286,-0.29209262,0.0
1570715552,-0.93373865,9.332599,2.2218192,-0.01065297,0.04793836,0.044742472,0.038307227,-0.19153613,0.11492168
1570715552,-0.89064306,9.437943,2.111686,-0.01384886,0.036220096,0.036220096,0.076614454,-0.08619126,0.0
1570715552,-1.043872,9.452309,2.1499932,-0.020240642,0.05646074,0.028763017,-0.076614454,-0.07182605,0.033518825
1570715552,-0.93373865,9.466674,2.1499932,-0.019175345,0.060721926,0.02769772,0.023942016,-0.05746084,0.033518825
1570715552,-0.8475474,9.495404,2.2601264,-0.022371236,0.060721926,0.03728539,0.095768064,-0.04309563,0.17717093
1570715552,-0.8619126,9.442732,2.15957,0.0,0.040481284,0.053264845,0.08140286,-0.08140286,0.033518825
1570715552,-0.8714894,9.504981,2.1260512,-0.0010652969,0.040481284,0.04261188,0.062249243,-0.019153614,0.0
1570715552,-0.8762778,9.433155,2.1691468,0.0074570784,0.02769772,0.04900366,0.033518825,-0.019153614,0.019153614
1570715552,-0.78050977,9.92636,2.360683,-0.0010652969,0.036220096,0.054330144,0.05267244,-0.12928689,-0.009576807
1570715552,-0.8571242,9.323022,2.135628,-0.009587673,0.026632423,0.053264845,-0.019153614,-0.22026655,-0.019153614
1570715552,-0.89543146,9.56723,2.078167,-0.0010652969,0.025567126,0.044742472,-0.01436521,0.01436521,-0.0047884034
1570715552,-0.80924016,9.5385,2.1404164,0.005326485,0.017044751,0.05646074,0.05267244,0.047884032,0.019153614
1570715552,-0.8762778,9.3661175,1.9632454,0.005326485,-0.0021305939,0.08415846,0.21068975,0.5746084,0.25378537
1570715552,-0.8283938,9.591172,1.9871874,0.026632423,0.01384886,0.07350549,0.02873042,0.019153614,-0.038307227
1570715552,-0.7422025,9.495404,2.1308396,0.034089502,0.01065297,0.091615535,0.02873042,-0.12928689,-0.10534488
1570715552,-0.79487497,9.56723,2.1212628,0.022371236,0.01384886,0.089484945,0.023942016,-0.05267244,0.0
1570715552,-0.7182605,9.32781,1.9967642,0.022371236,0.0063917814,0.07137489,0.047884032,-0.24899697,0.0
1570715552,-0.58897364,9.332599,2.0398598,-0.0085223755,0.019175345,0.0692443,0.10055647,-0.19153613,-0.06703765
1570715552,-0.58897364,9.303867,2.0685902,-0.039415985,0.009587673,0.067113705,-0.07182605,-0.23942018,-0.44532153
1570715552,-0.63206923,9.533711,2.0159178,-0.017044751,0.034089502,0.058591332,0.05746084,-0.095768064,-0.12928689
1570715552,-0.7230489,9.375694,1.7860745,-0.015979454,0.022371236,0.1043991,0.20111294,0.47405192,0.19153613
1570715552,-0.5746084,9.653421,1.9776106,-0.019175345,0.07457078,0.09587672,0.08619126,0.095768064,-0.095768064
1570715552,-0.5554548,9.437943,2.0350714,0.0021305939,0.07137489,0.09694202,0.11492168,-0.076614454,-0.076614454
1570715553,-0.45010993,9.461885,2.006341,-0.012783563,0.07883197,0.10013791,0.18195933,-0.12449849,-0.110133275
1570715553,-0.35434186,9.562442,2.030283,0.0010652969,0.05539544,0.10652969,0.16759412,-0.009576807,0.009576807
1570715553,-0.50278234,9.074024,2.384625,-0.0031958907,0.012783563,0.1384886,0.34955344,0.34476504,0.46447513
1570715553,-0.37828386,9.452309,2.0159178,0.02769772,0.053264845,0.089484945,0.15801731,-0.06703765,-0.090979666
1570715553,-0.38307226,9.399636,2.054225,0.04900366,0.039415985,0.068179004,0.15801731,-0.16280572,-0.04309563
1570715553,-0.25857377,9.471462,1.9728222,0.036220096,0.018110048,0.044742472,0.272939,-0.095768064,-0.110133275
1570715553,-0.25857377,9.370906,2.2170308,0.02130594,0.01065297,0.05539544,0.25857377,-0.19632454,0.1388637
1570715553,-0.320823,9.251195,2.2936451,-0.025567126,-0.022371236,0.03728539,0.18674773,-0.31603462,0.21547815
1570715553,-0.40222588,9.361329,2.207454,-0.057526033,-0.034089502,0.0021305939,0.10055647,-0.20590134,0.11492168
1570715553,-0.45968673,9.572019,2.1308396,-0.05539544,-0.01065297,0.011718267,0.038307227,0.0047884034,0.019153614
1570715553,-0.39264908,9.576807,1.9440918,-0.03728539,0.009587673,0.02130594,0.090979666,0.047884032,-0.16280572
1570715553,-0.2681506,9.543288,2.0398598,-0.025567126,0.029828314,0.04154658,0.21547815,-0.01436521,-0.08619126
1570715553,-0.2633622,9.476251,2.078167,-0.029828314,0.045807768,0.050068956,0.18674773,-0.06703765,-0.076614454
1570715553,-0.15801731,9.313444,1.8195933,-0.053264845,0.050068956,0.07457078,0.30645782,-0.23942018,-0.32561144
1570715553,0.009576807,9.481039,2.0973208,-0.02769772,0.06178722,0.03728539,0.46926352,-0.07182605,-0.05267244
1570715553,-0.16280572,9.423578,2.303222,-0.02450183,0.05646074,0.050068956,0.2873042,-0.12928689,0.1436521
1570715553,-0.25378537,9.294291,2.2744915,0.023436533,0.012783563,0.034089502,0.18195933,-0.25857377,0.11492168
1570715553,-0.16759412,9.41879,2.3319526,0.02450183,-0.0021305939,0.0010652969,0.2633622,-0.1388637,0.18195933
1570715553,-0.033518825,9.394848,2.3989902,0.017044751,0.0021305939,-0.02130594,0.35434186,-0.22026655,0.16759412
1570715553,-0.12449849,9.394848,2.15957,-0.0042611877,-0.039415985,-0.005326485,0.2633622,-0.19153613,0.05267244
1570715553,-0.15322891,9.3661175,2.15957,-0.0063917814,-0.046873067,-0.0021305939,0.2777274,-0.19153613,0.009576807
1570715553,-0.090979666,9.457097,2.2409728,-0.01384886,-0.03728539,-0.01384886,0.30166942,-0.12449849,0.10534488
1570715553,-0.06703765,9.557653,2.231396,0.02130594,-0.050068956,-0.04154658,0.36870706,0.0,0.08140286
1570715553,-0.11492168,9.471462,2.231396,0.019175345,-0.07137489,-0.035154797,0.320823,-0.08619126,0.08619126
1570715553,-0.076614454,9.442732,2.1212628,0.02130594,-0.058591332,-0.03835069,0.35434186,-0.15801731,-0.05746084
1570715553,-0.1340753,9.452309,2.2266076,0.018110048,-0.05113425,-0.06285252,0.2777274,-0.11971009,0.07182605
1570715553,-0.17717093,9.519346,2.2649148,0.011718267,-0.045807768,-0.053264845,0.31124622,-0.02873042,0.0047884034
1570715553,-0.38307226,9.514558,2.1787236,0.009587673,-0.063917816,-0.033024207,0.12928689,-0.04309563,0.04309563
1570715553,-0.44532153,9.356541,2.2361844,0.0010652969,-0.040481284,-0.050068956,0.04309563,-0.16759412,0.05267244
1570715553,-0.4357447,9.346964,2.15957,0.0042611877,-0.02130594,-0.05113425,-0.019153614,-0.21068975,0.009576807
1570715553,-0.50278234,9.543288,2.255338,-0.0031958907,-0.01384886,-0.054330144,-0.02873042,-0.04309563,0.08140286
1570715553,-0.40222588,9.639056,2.1021092,0.0031958907,-0.014914157,-0.053264845,0.047884032,0.062249243,-0.023942016
1570715553,-0.37828386,9.399636,2.1260512,0.0021305939,-0.0010652969,-0.03835069,0.17238252,-0.15322891,0.02873042
1570715554,-0.35434186,9.308656,2.2361844,0.0031958907,-0.0063917814,-0.05219955,0.15322891,-0.25378537,0.05267244
1570715554,-0.33997664,9.356541,2.3511062,-0.014914157,-0.015979454,-0.0692443,0.20590134,-0.20590134,0.19632454
1570715554,-0.48362875,9.433155,2.3415294,-0.012783563,-0.033024207,-0.07137489,0.08619126,-0.076614454,0.18674773
1570715554,-0.51235914,9.385271,2.231396,-0.009587673,-0.039415985,-0.07137489,0.04309563,-0.16280572,0.07182605
1570715554,-0.45489833,9.495404,2.15957,-0.018110048,-0.02769772,-0.07883197,0.1388637,-0.110133275,0.02873042
1570715554,-0.5363012,9.414001,2.2266076,-0.025567126,-0.025567126,-0.08415846,0.05267244,-0.12928689,0.05267244
1570715554,-0.5363012,9.404425,2.360683,-0.03089361,-0.0085223755,-0.08309316,0.07182605,-0.1340753,0.17717093
1570715554,-0.7278373,9.41879,2.2697031,-0.025567126,-0.045807768,-0.08628905,-0.095768064,-0.11492168,0.076614454
1570715554,-0.59855044,9.370906,2.2457612,-0.012783563,-0.031958908,-0.07989727,0.04309563,-0.16280572,0.047884032
1570715554,-0.59855044,9.3182335,2.2361844,-0.0074570784,-0.034089502,-0.08522376,0.062249243,-0.21068975,0.033518825
1570715554,-0.5793968,9.437943,2.1404164,-0.0063917814,-0.023436533,-0.09374613,0.10055647,-0.090979666,-0.062249243
1570715554,-0.6512229,9.562442,2.1452048,-0.01065297,-0.0031958907,-0.08735435,0.047884032,0.02873042,-0.05746084
1570715554,-0.6847417,9.629479,2.1404164,-0.012783563,0.005326485,-0.0692443,0.033518825,0.10055647,-0.06703765
1570715554,-0.6703765,9.481039,2.1260512,0.0074570784,-0.005326485,-0.05113425,0.062249243,-0.04309563,-0.08140286
1570715554,-0.5793968,9.313444,2.255338,0.02130594,-0.015979454,-0.045807768,0.16280572,-0.21068975,0.047884032
1570715554,-0.6464345,9.3182335,2.2888567,0.0021305939,-0.023436533,-0.064983115,0.10534488,-0.20590134,0.08140286
1570715554,-0.7757214,9.514558,2.2936451,-0.023436533,-0.028763017,-0.08522376,-0.0047884034,-0.0047884034,0.08140286
1570715554,-0.6703765,9.524135,2.0590134,-0.03728539,-0.045807768,-0.08415846,0.11492168,0.0,-0.15801731
1570715554,-0.80924016,9.485827,2.0829554,-0.040481284,-0.019175345,-0.07137489,-0.0047884034,-0.02873042,-0.1436521
1570715554,-0.8523358,9.370906,2.1308396,-0.031958908,-0.01065297,-0.05113425,-0.033518825,-0.1388637,-0.10534488
1570715554,-0.8571242,9.3421755,2.0973208,-0.034089502,-0.035154797,-0.06285252,-0.02873042,-0.16280572,-0.14844051
1570715554,-0.92416185,9.5385,2.1499932,-0.028763017,-0.034089502,-0.07350549,-0.08140286,0.02873042,-0.10534488
1570715554,-1.0103531,9.471462,2.0829554,-0.036220096,-0.029828314,-0.07244019,-0.14844051,-0.02873042,-0.17717093
1570715554,-1.1109096,9.543288,2.1068976,-0.04154658,-0.018110048,-0.06178722,-0.20590134,-0.0047884034,-0.17238252
1570715554,-1.0630256,9.600749,2.087744,-0.039415985,-0.020240642,-0.06178722,-0.19632454,0.06703765,-0.24420857
1570715554,-0.9528923,9.423578,2.1260512,-0.033024207,-0.020240642,-0.064983115,-0.05267244,-0.01436521,-0.11492168
1570715554,-0.9864111,9.188946,2.3654714,-0.046873067,-0.044742472,-0.07244019,-0.05267244,-0.30166942,-0.047884032
1570715554,-1.2114661,9.11712,2.384625,-0.067113705,-0.057526033,-0.070309594,-0.21547815,-0.36391866,0.009576807
1570715554,-1.115698,9.552865,2.2361844,-0.0692443,-0.058591332,-0.068179004,-0.30645782,-0.05267244,-0.07182605
1570715554,-1.2066777,9.696517,2.456451,-0.092680834,-0.022371236,-0.02450183,-0.24420857,0.17238252,0.047884032
1570715554,-1.283292,9.591172,2.3798366,-0.046873067,-0.05113425,0.020240642,-0.29209262,0.15322891,0.0047884034
1570715554,-0.9864111,9.730036,2.2122424,-0.0010652969,-0.064983115,0.02130594,-0.20590134,0.22026655,-0.06703765
1570715554,-0.7422025,9.586384,2.2697031,0.026632423,-0.046873067,0.053264845,0.15322891,0.16759412,-0.11971009
1570715555,-0.7134721,9.217676,2.255338,0.026632423,-0.07457078,0.057526033,0.25378537,-0.21068975,-0.023942016
1570715555,-0.7326257,9.093178,2.3702598,0.023436533,-0.1043991,0.009587673,0.110133275,-0.36391866,-0.01436521
1570715555,-0.90500826,9.289502,2.3463178,0.0,-0.11185618,-0.035154797,-0.0047884034,-0.25378537,-0.05267244
1570715555,-1.0486604,9.399636,2.2840683,-0.03089361,-0.08096257,-0.028763017,-0.1436521,-0.1340753,-0.07182605
1570715555,-1.0247183,9.533711,2.327164,-0.020240642,-0.04793836,0.0021305939,-0.05267244,0.110133275,-0.08140286
1570715555,-1.0007763,9.581595,2.27928,0.014914157,-0.02450183,0.017044751,-0.15322891,0.10055647,-0.090979666
1570715555,-0.7134721,9.634268,2.4181437,0.044742472,-0.02450183,0.04261188,0.08140286,0.19632454,0.019153614
1570715555,-0.7661445,9.414001,2.3942018,0.063917816,-0.06604841,0.044742472,0.08619126,-0.06703765,0.04309563
1570715555,-0.7469909,9.23683,2.2840683,0.070309594,-0.09587672,0.02769772,0.12449849,-0.24899697,-0.04309563
1570715555,-0.8571242,9.222465,2.2744915,0.050068956,-0.091615535,0.0031958907,-0.023942016,-0.2681506,-0.033518825
1570715555,-1.1540052,9.41879,2.3989902,0.03728539,-0.1043991,-0.0021305939,-0.29209262,-0.07182605,0.1388637
1570715555,-1.115698,9.514558,2.3415294,0.03728539,-0.09800732,0.012783563,-0.29688102,0.01436521,0.047884032
1570715555,-1.0486604,9.533711,2.5187001,0.028763017,-0.046873067,0.03835069,-0.23942018,0.02873042,0.22984336
1570715555,-1.3359646,9.275137,2.4708161,0.068179004,-0.054330144,0.045807768,-0.5410896,-0.22984336,0.19632454
1570715555,-1.2114661,9.323022,2.3702598,0.07670138,-0.034089502,0.04154658,-0.4261679,-0.18674773,0.11492168
1570715555,-1.13964,9.155427,2.456451,0.040481284,0.023436533,0.070309594,-0.36870706,-0.35913026,0.21547815
1570715555,-1.0965444,9.078813,2.4133554,-0.0042611877,0.06285252,0.064983115,-0.33518824,-0.4357447,0.17717093
1570715555,-0.8762778,9.217676,2.3989902,-0.04900366,0.1043991,0.029828314,-0.11971009,-0.29688102,0.15322891
1570715555,-0.6847417,9.404425,2.4229321,-0.064983115,0.1395539,0.05219955,0.07182605,-0.10534488,0.15801731
1570715555,-0.48841715,9.41879,2.432509,-0.09907261,0.15872924,0.058591332,0.2633622,-0.08619126,0.1436521
1570715555,-0.320823,9.390059,2.4708161,-0.11185618,0.15446806,0.07137489,0.4261679,-0.110133275,0.15322891
1570715555,-0.16759412,9.519346,2.4372973,-0.036220096,0.11185618,0.05539544,0.5746084,0.019153614,0.10055647
1570715555,-0.25857377,9.284714,2.432509,-0.019175345,0.067113705,0.060721926,0.47405192,-0.21068975,0.095768064
1570715555,-0.46926352,9.23683,2.4037786,-0.04900366,0.04261188,0.044742472,0.25378537,-0.25378537,0.05267244
1570715555,-0.49799395,9.41879,2.2026656,-0.04261188,0.005326485,0.020240642,0.21547815,-0.07182605,-0.15801731
1570715555,-0.63206923,9.370906,2.3223755,-0.029828314,-0.005326485,0.015979454,0.076614454,-0.11492168,-0.047884032
1570715555,-0.7326257,9.308656,2.2744915,-0.02130594,-0.009587673,0.0085223755,-0.090979666,-0.16759412,-0.05267244
1570715555,-0.58897364,9.428367,2.3989902,-0.018110048,-0.009587673,-0.015979454,0.14844051,-0.095768064,0.047884032
1570715555,-0.60812724,9.41879,2.6144683,-0.02130594,-0.036220096,-0.019175345,0.076614454,-0.033518825,0.21547815
1570715555,-0.56982,9.3661175,2.3654714,-0.036220096,-0.05539544,-0.026632423,0.08140286,-0.12449849,0.009576807
1570715555,-0.6512229,9.313444,2.4516625,-0.039415985,-0.03089361,-0.019175345,0.10055647,-0.1436521,0.090979666
1570715555,-0.6751649,9.5385,2.5234885,-0.043677174,-0.012783563,-0.0063917814,-0.019153614,0.06703765,0.05746084
1570715555,-0.6464345,9.543288,2.4420857,-0.015979454,0.0042611877,0.009587673,0.04309563,0.023942016,0.033518825
1570715555,-0.6368576,9.399636,2.4899697,0.0042611877,0.02130594,0.02130594,0.076614454,-0.047884032,0.06703765
1570715556,-0.5650316,9.323022,2.5187001,-0.0042611877,0.02769772,0.017044751,0.11492168,-0.15801731,0.07182605
1570715556,-0.6464345,9.23683,2.5139117,-0.017044751,0.009587673,0.01384886,0.10055647,-0.19632454,0.095768064
1570715556,-0.5746084,9.294291,2.4899697,-0.029828314,0.0010652969,-0.0063917814,0.08619126,-0.20590134,0.07182605
1570715556,-0.5746084,9.399636,2.4708161,-0.02130594,-0.01384886,-0.0085223755,0.19153613,-0.10534488,0.11971009
1570715556,-0.7182605,9.356541,2.5570073,-0.02450183,-0.046873067,-0.0063917814,0.0,-0.10534488,0.23463176
1570715556,-0.7565677,9.399636,2.5187001,-0.015979454,-0.04793836,-0.017044751,-0.033518825,-0.095768064,0.04309563
1570715556,-0.6847417,9.361329,2.360683,-0.011718267,-0.040481284,-0.025567126,-0.02873042,-0.076614454,-0.047884032
1570715556,-0.56982,9.380483,2.5091233,-0.058591332,-0.0010652969,-0.014914157,0.05746084,-0.06703765,-0.038307227
1570715556,-0.6991069,9.437943,2.542642,-0.054330144,-0.0010652969,-0.011718267,0.0,-0.047884032,0.07182605
1570715556,-0.5506664,9.390059,2.480393,-0.031958908,-0.0085223755,-0.011718267,0.047884032,-0.01436521,-0.02873042
1570715556,-0.6368576,9.3421755,2.528277,-0.028763017,0.0,-0.0021305939,0.076614454,-0.10534488,0.009576807
1570715556,-0.5602432,9.404425,2.585738,-0.014914157,-0.012783563,-0.0074570784,0.15322891,-0.04309563,0.062249243
1570715556,-0.47405192,9.375694,2.4851813,-0.02769772,-0.020240642,-0.0010652969,0.23942018,-0.07182605,-0.038307227
1570715556,-0.6655881,9.423578,2.4420857,-0.015979454,-0.01065297,-0.01065297,0.047884032,-0.019153614,-0.08619126
1570715556,-0.61291564,9.3421755,2.4468741,-0.019175345,0.0010652969,0.0031958907,0.095768064,-0.10055647,-0.08619126
1570715556,-0.6751649,9.375694,2.5234885,-0.022371236,0.01065297,0.0,0.033518825,-0.06703765,-0.01436521
1570715556,-0.545878,9.414001,2.456451,-0.0021305939,0.02130594,0.0010652969,0.16280572,-0.02873042,-0.08619126
1570715556,-0.62249243,9.323022,2.5139117,-0.0085223755,0.0031958907,0.011718267,0.08619126,-0.11971009,-0.02873042
1570715556,-0.6799533,9.260772,2.6623523,-0.02450183,0.009587673,-0.0010652969,0.023942016,-0.18195933,0.110133275
1570715556,-0.6512229,9.241618,2.5953147,-0.014914157,-0.0063917814,-0.014914157,0.05267244,-0.19632454,0.038307227
1570715556,-0.6560113,9.433155,2.657564,-0.03089361,0.01384886,-0.018110048,0.05267244,-0.0047884034,0.095768064
1570715556,-0.7278373,9.289502,2.5905263,-0.033024207,0.012783563,-0.0021305939,-0.009576807,-0.1436521,0.019153614
1570715556,-0.7613561,9.361329,2.5809495,-0.02450183,0.020240642,-0.011718267,-0.04309563,-0.10534488,0.062249243
1570715556,-0.641646,9.294291,2.72939,-0.025567126,0.014914157,-0.012783563,0.076614454,-0.1388637,0.14844051
1570715556,-0.5363012,9.380483,2.7485435,-0.040481284,-0.0010652969,-0.014914157,0.18674773,-0.047884032,0.15801731
1570715556,-0.6799533,9.394848,2.6001031,-0.03835069,-0.009587673,-0.005326485,0.04309563,-0.02873042,0.0
1570715556,-0.80924016,9.375694,2.6001031,-0.025567126,0.005326485,-0.0021305939,-0.08140286,-0.047884032,-0.009576807
1570715556,-0.6464345,9.270349,2.6144683,-0.012783563,0.01384886,-0.019175345,0.076614454,-0.15322891,0.0
1570715556,-0.6895301,9.284714,2.681506,-0.025567126,0.02450183,-0.019175345,0.08619126,-0.1340753,0.10055647
1570715556,-0.5363012,9.452309,2.719813,-0.02130594,0.015979454,-0.017044751,0.20111294,-0.01436521,0.08140286
1570715556,-0.6895301,9.246407,2.6719291,-0.011718267,-0.025567126,0.0042611877,0.04309563,-0.16759412,0.038307227
1570715556,-0.7469909,9.169792,2.753332,0.0,-0.02130594,-0.015979454,0.0,-0.23463176,0.12449849
1570715556,-0.62249243,9.32781,2.719813,-0.0085223755,-0.03728539,-0.029828314,0.110133275,-0.10055647,0.090979666
1570715557,-0.7757214,9.299079,2.7820623,-0.033024207,-0.017044751,-0.014914157,-0.02873042,-0.11492168,0.1388637
1570715557,-0.78050977,9.32781,2.6527755,-0.02450183,-0.0085223755,-0.018110048,-0.04309563,-0.090979666,-0.01436521
1570715557,-0.8523358,9.433155,2.7150247,-0.01384886,0.012783563,-0.0063917814,-0.033518825,-0.023942016,0.05746084
1570715557,-0.7230489,9.346964,2.6910827,-0.011718267,0.01065297,-0.0010652969,0.01436521,-0.07182605,0.04309563
1570715557,-0.6655881,9.26556,2.7724855,-0.01384886,0.023436533,-0.0063917814,0.0,-0.14844051,0.110133275
1570715557,-0.7757214,9.246407,2.7485435,-0.011718267,0.0085223755,-0.01065297,0.009576807,-0.1340753,0.04309563
1570715557,-0.6512229,9.284714,2.7150247,-0.02450183,0.0042611877,-0.015979454,0.009576807,-0.1388637,0.019153614
1570715557,-0.7661445,9.294291,2.7964275,-0.020240642,0.011718267,-0.015979454,0.090979666,-0.05267244,0.095768064
1570715557,-0.81402856,9.370906,2.767697,-0.005326485,-0.009587673,-0.014914157,-0.08619126,-0.01436521,0.08619126
1570715557,-0.6368576,9.332599,2.8299465,0.01384886,0.0031958907,-0.0085223755,0.10534488,-0.019153614,0.12449849
1570715557,-0.7038953,9.14585,2.777274,0.014914157,-0.02450183,-0.0063917814,0.023942016,-0.25857377,0.11971009
1570715557,-0.81881696,9.270349,2.695871,0.0021305939,-0.025567126,-0.019175345,-0.01436521,-0.18195933,0.090979666
1570715557,-0.7757214,9.337387,2.72939,0.005326485,-0.0085223755,-0.017044751,-0.01436521,-0.10055647,0.05267244
1570715557,-0.9576807,9.361329,2.815581,0.0031958907,0.0010652969,-0.005326485,-0.1388637,-0.05267244,0.10055647
1570715557,-0.8475474,9.289502,2.681506,0.0063917814,0.0074570784,-0.005326485,-0.076614454,-0.110133275,0.0
1570715557,-0.79487497,9.3182335,2.7724855,0.018110048,0.025567126,0.0,0.06703765,-0.076614454,0.062249243
1570715557,-0.8379706,9.275137,2.777274,0.0042611877,0.01065297,0.005326485,-0.062249243,-0.12449849,0.10055647
1570715557,-0.80924016,9.260772,2.7150247,0.0042611877,0.015979454,0.005326485,-0.033518825,-0.1388637,0.038307227
1570715557,-0.78529817,9.361329,2.801216,0.014914157,0.012783563,-0.0021305939,-0.009576807,-0.038307227,0.12928689
1570715557,-0.7517793,9.289502,2.705448,0.01065297,0.0021305939,-0.0021305939,0.019153614,-0.11492168,0.033518825
1570715557,-0.7422025,9.308656,2.8060043,0.015979454,0.005326485,0.0021305939,0.02873042,-0.095768064,0.1388637
1570715557,-0.7422025,9.471462,2.6910827,0.017044751,-0.015979454,-0.0042611877,0.02873042,0.062249243,0.023942016
1570715557,-0.81402856,9.346964,2.825158,0.026632423,-0.01065297,0.0021305939,-0.038307227,-0.05746084,0.16280572
1570715557,-0.8331822,9.208099,2.7150247,0.02130594,-0.026632423,-0.0031958907,-0.05746084,-0.19632454,0.05746084
1570715557,-0.78529817,9.246407,2.719813,0.0074570784,-0.01384886,-0.009587673,-0.009576807,-0.16280572,0.06703765
1570715557,-0.89064306,9.308656,2.6384103,0.0063917814,-0.009587673,-0.009587673,-0.11492168,-0.10055647,-0.01436521
1570715557,-0.93852705,9.275137,2.6910827,-0.0074570784,0.0010652969,-0.01384886,-0.15801731,-0.12928689,0.033518825
1570715557,-0.8379706,9.32781,2.719813,-0.0042611877,0.0085223755,-0.009587673,-0.05267244,-0.076614454,0.05746084
1570715557,-0.80924016,9.423578,2.7341783,0.0,0.01065297,-0.0031958907,-0.023942016,0.01436521,0.07182605
1570715557,-0.8379706,9.313444,2.7150247,0.005326485,0.005326485,0.0010652969,-0.05267244,-0.090979666,0.05267244
1570715557,-0.79008657,9.375694,2.633622,0.015979454,0.0,-0.0010652969,-0.023942016,-0.02873042,0.062249243
1570715557,-0.6464345,9.3182335,2.5713725,0.025567126,-0.0074570784,0.0042611877,0.1340753,-0.08619126,-0.08140286
1570715557,-0.7086837,9.346964,2.7150247,0.02130594,-0.0021305939,0.0063917814,0.07182605,-0.062249243,0.062249243
1570715558,-0.641646,9.289502,2.5809495,0.022371236,-0.018110048,-0.0085223755,0.1388637,-0.11971009,-0.062249243
1570715558,-0.81402856,9.404425,2.6001031,0.020240642,-0.02769772,-0.01384886,0.038307227,-0.0047884034,-0.023942016
1570715558,-0.60333884,9.44752,2.585738,0.03835069,-0.018110048,0.005326485,0.16280572,0.12449849,-0.110133275
1570715558,-0.7469909,9.241618,2.6240451,0.039415985,-0.026632423,0.0063917814,0.05267244,-0.18674773,-0.01436521
1570715558,-0.7757214,9.251195,2.6240451,0.034089502,-0.02450183,-0.011718267,-0.01436521,-0.21547815,0.009576807
1570715558,-0.8379706,9.241618,2.4947581,0.018110048,-0.02450183,-0.01384886,-0.047884032,-0.18195933,-0.04309563
1570715558,-0.8331822,9.26556,2.6048915,-0.005326485,0.005326485,-0.01065297,-0.06703765,-0.12449849,-0.038307227
1570715558,-0.81881696,9.375694,2.6144683,0.0010652969,0.012783563,-0.0085223755,-0.047884032,-0.06703765,0.0047884034
1570715558,-0.79966336,9.41879,2.6719291,0.0085223755,0.0031958907,-0.0074570784,0.01436521,-0.01436521,0.038307227
1570715558,-0.7278373,9.404425,2.5187001,0.0042611877,-0.0010652969,-0.0042611877,0.047884032,-0.009576807,-0.05267244
1570715558,-0.7565677,9.284714,2.5378537,0.01065297,0.0,0.0,0.047884032,-0.12449849,0.0047884034
1570715558,-0.770933,9.303867,2.6001031,0.015979454,-0.0042611877,-0.0042611877,0.033518825,-0.07182605,-0.08619126
1570715558,-0.6464345,9.3661175,2.5761611,0.009587673,-0.01065297,-0.014914157,0.08140286,-0.023942016,0.02873042
1570715558,-0.6799533,9.375694,2.542642,0.0031958907,-0.01384886,-0.018110048,0.15801731,0.0,0.023942016
1570715558,-0.770933,9.485827,2.5570073,0.01065297,-0.039415985,-0.01384886,0.04309563,-0.023942016,-0.10534488
1570715558,-0.79487497,9.394848,2.7246015,0.019175345,-0.025567126,-0.005326485,0.0,-0.023942016,0.12449849
1570715558,-0.7613561,9.260772,2.6431987,0.02769772,-0.036220096,-0.0074570784,-0.02873042,-0.14844051,-0.0047884034
1570715558,-0.8714894,9.251195,2.5474305,0.029828314,-0.03835069,-0.017044751,-0.01436521,-0.16280572,0.076614454
1570715558,-0.78529817,9.212888,2.5905263,0.0085223755,-0.014914157,-0.014914157,0.0,-0.2633622,-0.02873042
1570715558,-0.8283938,9.3421755,2.6527755,-0.011718267,-0.018110048,-0.025567126,-0.047884032,-0.11971009,0.033518825
1570715558,-0.7517793,9.390059,2.528277,-0.0031958907,-0.019175345,-0.009587673,0.023942016,-0.047884032,0.019153614
1570715558,-0.7517793,9.375694,2.566584,-0.0021305939,-0.014914157,-0.009587673,0.033518825,-0.095768064,-0.08619126
1570715558,-0.7565677,9.414001,2.552219,-0.0031958907,-0.01065297,-0.012783563,0.047884032,0.019153614,-0.07182605
1570715558,-0.6847417,9.390059,2.4899697,0.0074570784,-0.012783563,-0.0085223755,0.12449849,-0.02873042,-0.10055647
1570715558,-0.6799533,9.337387,2.504335,0.019175345,-0.01065297,-0.009587673,0.12928689,-0.08140286,-0.08619126
1570715558,-0.6895301,9.289502,2.5378537,0.011718267,-0.0074570784,-0.023436533,0.11971009,-0.1340753,-0.047884032
1570715558,-0.7422025,9.346964,2.6384103,0.0085223755,-0.0021305939,-0.019175345,0.07182605,-0.076614454,0.05267244
1570715558,-0.7613561,9.433155,2.5809495,0.014914157,-0.015979454,-0.02130594,0.05746084,0.0047884034,0.0
1570715558,-0.7517793,9.32781,2.6479871,0.029828314,-0.022371236,-0.015979454,0.07182605,-0.095768064,0.06703765
1570715558,-0.8475474,9.141062,2.633622,0.026632423,-0.025567126,-0.018110048,-0.019153614,-0.2825158,0.062249243
1570715558,-0.82360536,9.208099,2.60968,0.012783563,-0.025567126,-0.04154658,0.0047884034,-0.22026655,0.04309563
1570715558,-0.8283938,9.217676,2.5809495,-0.009587673,-0.022371236,-0.04154658,0.009576807,-0.20590134,0.009576807
1570715558,-0.842759,9.337387,2.5761611,-0.019175345,-0.0010652969,-0.044742472,0.009576807,-0.08619126,0.0
1570715558,-0.79487497,9.370906,2.6001031,0.0031958907,0.0010652969,-0.039415985,0.06703765,-0.047884032,0.023942016
1570715559,-0.7613561,9.533711,2.6048915,0.02450183,-0.018110048,-0.033024207,0.17238252,0.14844051,0.0
1570715559,-0.7182605,9.495404,2.3750482,0.03835069,-0.02450183,-0.022371236,0.15322891,0.06703765,-0.18674773
1570715559,-0.79008657,9.495404,2.4516625,0.03835069,0.0010652969,-0.019175345,0.08619126,0.06703765,-0.095768064
1570715559,-0.866701,9.600749,2.5713725,0.06178722,-0.0042611877,-0.009587673,0.047884032,0.17238252,-0.038307227
1570715559,-0.89543146,9.260772,2.456451,0.08309316,-0.03089361,-0.0063917814,-0.01436521,-0.17717093,-0.05746084
1570715559,-0.7517793,9.303867,2.4229321,0.07137489,-0.025567126,-0.028763017,0.090979666,-0.1340753,-0.05746084
1570715559,-0.6512229,9.433155,2.4995465,0.05646074,-0.0021305939,-0.039415985,0.22984336,-0.01436521,0.019153614
1570715559,-0.8331822,9.414001,2.7485435,0.068179004,-0.0074570784,-0.009587673,0.1388637,0.090979666,0.34476504
1570715559,-0.90979666,9.308656,2.5617957,0.092680834,-0.05539544,-0.01384886,-0.07182605,-0.11492168,0.095768064
1570715559,-1.0007763,9.112331,2.5330653,0.094811425,-0.05539544,-0.02769772,-0.076614454,-0.33997664,0.08140286
1570715559,-1.1444284,9.260772,2.4181437,0.0692443,-0.02130594,-0.022371236,-0.17717093,-0.24420857,0.06703765
1570715559,-1.091756,9.552865,2.4181437,0.067113705,-0.0063917814,-0.0074570784,-0.21547815,0.0047884034,0.0
1570715559,-1.1540052,9.773131,2.4660277,0.07137489,-0.020240642,0.017044751,-0.20590134,0.22984336,0.095768064
1570715559,-1.1683705,9.524135,2.303222,0.117182665,-0.060721926,0.028763017,-0.29688102,0.05746084,0.009576807
1570715559,-1.0295067,9.217676,2.2218192,0.15127216,-0.08522376,-0.011718267,-0.21547815,-0.2777274,-0.090979666
1570715559,-0.842759,9.232041,2.2266076,0.14594568,-0.07457078,-0.03089361,0.047884032,-0.320823,-0.10055647
1570715559,-0.9624691,9.208099,2.3127987,0.1022685,-0.1033338,-0.009587673,-0.08140286,-0.18195933,0.076614454
1570715559,-1.2306197,9.136273,2.1021092,0.067113705,-0.11185618,-0.0042611877,-0.30645782,-0.40701428,-0.10534488
1570715559,-1.3072342,9.476251,2.1883004,0.070309594,-0.088419646,-0.018110048,-0.45968673,-0.10534488,0.038307227
1570715559,-1.2593501,9.524135,2.0685902,0.088419646,-0.07137489,-0.015979454,-0.41180268,0.0,-0.08140286
1570715559,-1.0965444,9.452309,2.1260512,0.064983115,-0.033024207,0.018110048,-0.21547815,-0.08619126,-0.10055647
1570715559,-1.2497733,9.227253,2.2361844,0.05646074,-0.05113425,0.017044751,-0.37828386,-0.21547815,0.08619126
1570715559,-1.1109096,9.32781,2.0254946,0.06178722,-0.034089502,0.0085223755,-0.30166942,-0.22505496,-0.15801731
1570715559,-1.1779473,9.509769,1.9967642,0.03728539,-0.0042611877,0.019175345,-0.31124622,-0.019153614,-0.14844051
1570715559,-1.1348516,9.509769,1.958457,0.026632423,0.026632423,0.045807768,-0.33039984,-0.04309563,-0.25378537
1570715559,-0.8810662,9.490616,1.982399,0.035154797,0.031958908,0.050068956,-0.02873042,-0.038307227,-0.15322891
1570715559,-0.8619126,9.528923,2.0015526,0.026632423,0.034089502,0.059656627,-0.019153614,-0.0047884034,-0.12449849
1570715559,-0.8379706,9.490616,1.7860745,0.043677174,0.04261188,0.07244019,-0.0047884034,-0.047884032,-0.33039984
1570715559,-0.79008657,9.375694,1.9297266,0.031958908,0.063917816,0.063917816,0.023942016,-0.16280572,-0.17717093
1570715559,-0.7278373,9.380483,2.0590134,0.0063917814,0.039415985,0.06285252,0.076614454,-0.16280572,-0.04309563
1570715559,-0.866701,9.375694,1.8914193,0.0021305939,0.018110048,0.059656627,-0.07182605,-0.16759412,-0.21068975
1570715559,-0.79008657,9.749189,1.8435353,0.015979454,0.035154797,0.050068956,-0.0047884034,0.20111294,-0.25378537
1570715559,-0.7757214,9.624691,1.9632454,0.023436533,0.03728539,0.068179004,0.0,0.07182605,-0.12928689
1570715560,-0.7230489,9.41879,1.9393034,0.019175345,0.025567126,0.07883197,0.02873042,-0.12928689,-0.14844051
1570715560,-0.6512229,9.500193,1.9009962,0.0074570784,0.03728539,0.067113705,0.062249243,-0.05746084,-0.14844051
1570715560,-0.6847417,9.524135,1.9728222,0.014914157,0.046873067,0.07244019,0.038307227,-0.02873042,-0.10534488
1570715560,-0.6751649,9.528923,1.958457,-0.0074570784,0.045807768,0.07776668,0.033518825,-0.02873042,-0.11492168
1570715560,-0.6464345,9.581595,1.9153614,-0.012783563,0.043677174,0.08096257,0.04309563,0.019153614,-0.16280572
1570715560,-0.5650316,9.500193,1.910573,-0.0042611877,0.029828314,0.08735435,0.10534488,-0.05746084,-0.16759412
1570715560,-0.5554548,9.514558,1.9919758,-0.009587673,0.039415985,0.08202787,0.095768064,-0.04309563,-0.08619126
1570715560,-0.545878,9.504981,1.8962077,-0.0010652969,0.04793836,0.08096257,0.10055647,-0.06703765,-0.19632454
1570715560,-0.5410896,9.528923,1.8674773,0.012783563,0.04793836,0.08522376,0.01436521,-0.090979666,-0.14844051
1570715560,-0.5267244,9.394848,1.9632454,0.02769772,0.04154658,0.08309316,0.090979666,-0.1388637,-0.11492168
1570715560,-0.46926352,9.495404,1.9153614,0.025567126,0.05219955,0.067113705,0.08619126,-0.12449849,-0.18195933
1570715560,-0.37828386,9.595961,1.9249382,0.022371236,0.07457078,0.0692443,0.17238252,0.0047884034,-0.12928689
1570715560,-0.32561144,9.552865,2.0015526,0.020240642,0.057526033,0.07457078,0.22505496,-0.01436521,-0.033518825
1570715560,-0.32561144,9.466674,1.934515,0.009587673,0.029828314,0.07457078,0.20590134,-0.095768064,-0.04309563
1570715560,-0.35434186,9.404425,1.8914193,0.005326485,0.025567126,0.045807768,0.11971009,-0.20111294,-0.11492168
1570715560,-0.2873042,9.533711,1.8339585,0.0031958907,0.026632423,0.03089361,0.19632454,-0.04309563,-0.12449849
1570715560,-0.2825158,9.528923,1.8914193,-0.014914157,0.02769772,0.034089502,0.2873042,-0.08140286,-0.12928689
1570715560,-0.21068975,9.572019,1.8626889,-0.020240642,0.026632423,0.039415985,0.31603462,0.0047884034,-0.15801731
1570715560,-0.24899697,9.457097,1.910573,-0.0063917814,0.029828314,0.04154658,0.25857377,-0.1340753,-0.10534488
1570715560,-0.2873042,9.528923,1.8770541,0.014914157,0.01384886,0.029828314,0.20111294,-0.038307227,-0.110133275
1570715560,-0.15322891,9.44752,1.8770541,0.033024207,0.011718267,0.029828314,0.29688102,-0.12928689,-0.17717093
1570715560,-0.18195933,9.466674,1.9201498,0.02769772,0.019175345,0.04154658,0.33997664,-0.11492168,-0.090979666
1570715560,-0.32561144,9.552865,1.8674773,0.012783563,0.0021305939,0.033024207,0.21068975,-0.11971009,-0.12449849
1570715560,-0.37349546,9.639056,1.8339585,0.0085223755,0.020240642,0.026632423,0.076614454,0.047884032,-0.16759412
1570715560,-0.18674773,9.639056,1.757344,0.025567126,0.045807768,0.03089361,0.21547815,0.062249243,-0.22505496
1570715560,-0.12449849,9.404425,1.9919758,0.028763017,0.04154658,0.05219955,0.30645782,-0.18674773,0.0
1570715560,-0.2825158,9.217676,1.8483237,0.014914157,0.014914157,0.04793836,0.12449849,-0.33997664,-0.095768064
1570715560,-0.35434186,9.351752,1.8962077,-0.009587673,0.05219955,0.03728539,0.05267244,-0.24420857,-0.076614454
1570715560,-0.5554548,9.768343,2.0350714,-0.02130594,0.05219955,0.03089361,-0.10534488,0.1436521,-0.019153614
1570715560,-0.50757074,9.725247,1.8243817,-0.011718267,0.04900366,0.044742472,-0.110133275,0.12928689,-0.15801731
1570715560,-0.39264908,9.528923,1.8148049,0.0031958907,0.07563608,0.057526033,-0.009576807,-0.06703765,-0.16759412
1570715560,-0.41180268,9.44752,1.9057846,0.009587673,0.07883197,0.05539544,-0.038307227,-0.14844051,-0.07182605
1570715560,-0.23463176,9.634268,1.8818425,0.0,0.058591332,0.04154658,0.12449849,0.033518825,-0.090979666
1570715561,-0.2633622,9.562442,1.9153614,0.0085223755,0.045807768,0.045807768,0.08619126,-0.033518825,-0.05267244
1570715561,-0.25857377,9.624691,1.8148049,0.0063917814,0.04261188,0.04793836,0.08140286,0.019153614,-0.15322891
1570715561,-0.22984336,9.394848,1.7429788,0.01384886,0.036220096,0.054330144,0.095768064,-0.20590134,-0.22026655
1570715561,-0.18195933,9.543288,1.8531121,0.022371236,0.02769772,0.040481284,0.1340753,-0.05746084,-0.10055647
1570715561,-0.23463176,9.619903,1.7908629,0.015979454,0.014914157,0.029828314,0.07182605,0.009576807,-0.15801731
1570715561,-0.19632454,9.524135,1.9632454,0.02450183,0.012783563,0.04793836,0.10055647,-0.08140286,0.019153614
1570715561,-0.25378537,9.414001,1.8579005,0.02450183,0.0085223755,0.05219955,0.02873042,-0.19153613,-0.07182605
1570715561,-0.19153613,9.605537,1.9297266,0.019175345,0.018110048,0.043677174,0.076614454,-0.0047884034,0.0
1570715561,-0.25378537,9.634268,1.8291701,0.02769772,0.0,0.04900366,0.0047884034,0.019153614,-0.08619126
1570715561,-0.11971009,9.414001,1.8626889,0.02130594,0.0085223755,0.046873067,0.06703765,-0.11492168,-0.07182605
1570715561,-0.12449849,9.332599,1.8770541,0.0010652969,0.017044751,0.02769772,0.110133275,-0.2825158,-0.02873042
1570715561,-0.19153613,9.385271,2.006341,-0.0074570784,0.0063917814,0.011718267,0.08140286,-0.22505496,0.07182605
1570715561,-0.18674773,9.380483,1.910573,-0.015979454,-0.0031958907,0.0085223755,0.0,-0.20590134,-0.009576807
1570715561,-0.22505496,9.514558,2.0350714,-0.009587673,-0.005326485,0.0021305939,-0.009576807,-0.06703765,0.095768064
1570715561,-0.16759412,9.481039,1.9680338,-0.0010652969,-0.0031958907,0.005326485,0.023942016,-0.08619126,-0.019153614
1570715561,-0.16280572,9.481039,1.9057846,0.0042611877,-0.005326485,0.0,0.009576807,-0.12928689,0.0047884034
1570715561,-0.10534488,9.643845,1.982399,-0.0021305939,-0.0063917814,-0.0085223755,0.15801731,-0.023942016,0.04309563
1570715561,-0.1340753,9.653421,1.8531121,0.0010652969,-0.012783563,0.0021305939,0.090979666,0.05746084,-0.110133275
1570715561,-0.11492168,9.572019,1.9153614,0.0085223755,-0.017044751,0.01065297,0.110133275,-0.009576807,-0.0047884034
1570715561,-0.11492168,9.485827,1.8722657,0.01384886,-0.029828314,0.0074570784,0.10534488,-0.10055647,-0.095768064
1570715561,-0.11492168,9.514558,1.8674773,0.017044751,-0.023436533,0.0042611877,0.08140286,-0.11971009,-0.08619126
1570715561,-0.06703765,9.615114,1.8626889,0.005326485,-0.012783563,0.0021305939,0.14844051,-0.090979666,-0.095768064
1570715561,-0.16280572,9.543288,1.8291701,0.0074570784,-0.015979454,0.005326485,0.04309563,-0.023942016,-0.033518825
1570715561,-0.08619126,9.600749,1.7812861,0.01065297,-0.005326485,0.012783563,0.110133275,-0.04309563,-0.076614454
1570715561,-0.1340753,9.481039,1.8148049,0.011718267,-0.012783563,0.01384886,0.11492168,-0.11492168,-0.023942016
1570715561,-0.110133275,9.595961,1.8866309,0.009587673,-0.01065297,0.009587673,0.08140286,-0.062249243,-0.06703765
1570715561,-0.17238252,9.519346,1.7717092,0.014914157,-0.0074570784,0.0085223755,0.05267244,-0.076614454,-0.06703765
1570715561,-0.07182605,9.519346,1.8387469,0.0063917814,0.0021305939,0.0074570784,0.11971009,-0.10055647,-0.047884032
1570715561,-0.08619126,9.543288,1.8100165,0.0021305939,-0.005326485,0.005326485,0.110133275,-0.038307227,-0.02873042
1570715561,-0.033518825,9.543288,1.8435353,0.0074570784,-0.0021305939,0.0074570784,0.15322891,-0.076614454,-0.038307227
1570715561,-0.11492168,9.509769,1.7764976,0.0021305939,-0.0031958907,0.011718267,0.06703765,-0.110133275,-0.10534488
1570715561,-0.01436521,9.509769,1.8962077,0.0,-0.015979454,0.0063917814,0.16280572,-0.110133275,0.009576807
1570715561,-0.095768064,9.504981,1.8195933,0.0010652969,-0.022371236,-0.0063917814,0.08140286,-0.11492168,-0.062249243
1570715561,-0.090979666,9.404425,1.7908629,0.0063917814,-0.014914157,-0.012783563,0.08619126,-0.21547815,-0.090979666
1570715562,-0.10055647,9.524135,1.8579005,-0.012783563,0.0,-0.01065297,0.08140286,-0.095768064,-0.023942016
1570715562,-0.15801731,9.643845,1.7764976,-0.018110048,-0.0021305939,-0.0042611877,0.023942016,0.019153614,-0.110133275
1570715562,-0.12928689,9.504981,1.8195933,-0.009587673,0.0042611877,-0.009587673,0.05267244,-0.11492168,-0.07182605
1570715562,-0.05746084,9.5385,1.7764976,-0.0063917814,0.011718267,-0.017044751,0.12928689,-0.08140286,-0.11492168
1570715562,-0.14844051,9.619903,1.7621324,-0.012783563,0.0085223755,-0.011718267,0.04309563,0.0,-0.12928689
1570715562,-0.090979666,9.548077,1.7238252,-0.0085223755,0.018110048,-0.0063917814,0.10055647,-0.06703765,-0.17238252
1570715562,-0.12449849,9.562442,1.7812861,0.0042611877,0.01384886,-0.009587673,0.06703765,-0.05267244,-0.110133275
1570715562,-0.11492168,9.572019,1.7908629,-0.0031958907,0.0074570784,-0.011718267,0.08140286,-0.04309563,-0.10055647
1570715562,-0.023942016,9.576807,1.7860745,-0.009587673,0.0085223755,-0.015979454,0.17238252,-0.038307227,-0.10534488
1570715562,-0.07182605,9.56723,1.8243817,-0.011718267,0.0031958907,-0.012783563,0.12928689,-0.047884032,-0.07182605
1570715562,-0.04309563,9.548077,1.7860745,-0.01065297,-0.018110048,-0.01384886,0.15801731,-0.06703765,-0.110133275
1570715562,-0.12449849,9.485827,1.7286136,-0.011718267,-0.014914157,-0.014914157,0.076614454,-0.12928689,-0.17238252
1570715562,-0.1388637,9.433155,1.7908629,-0.011718267,-0.012783563,-0.02450183,0.05746084,-0.17238252,-0.12928689
1570715562,-0.15322891,9.519346,1.70946,-0.02130594,-0.0021305939,-0.031958908,0.05267244,-0.095768064,-0.16759412
1570715562,-0.20590134,9.600749,1.7764976,-0.025567126,0.03728539,-0.02450183,0.076614454,0.0047884034,-0.15322891
1570715562,-0.19632454,9.552865,1.8195933,-0.034089502,0.04793836,-0.017044751,0.02873042,-0.05746084,-0.095768064
1570715562,-0.1436521,9.56723,1.8052281,-0.028763017,0.046873067,-0.014914157,0.090979666,-0.047884032,-0.08140286
1570715562,-0.1388637,9.662998,1.7525556,-0.02769772,0.054330144,-0.0042611877,0.12928689,-0.038307227,-0.17717093
1570715562,-0.1388637,9.562442,1.7477672,-0.018110048,0.054330144,0.0,0.062249243,-0.033518825,-0.17717093
1570715562,-0.18674773,9.543288,1.8962077,-0.015979454,0.05113425,0.0,0.047884032,-0.08140286,-0.08619126
1570715562,-0.20111294,9.514558,1.8435353,-0.019175345,0.03835069,0.0042611877,0.05746084,-0.05267244,-0.019153614
1570715562,-0.19153613,9.533711,1.9297266,-0.020240642,0.03089361,-0.005326485,0.05746084,-0.08619126,-0.05746084
1570715562,-0.25857377,9.648633,1.9057846,-0.015979454,0.04154658,-0.012783563,-0.019153614,0.038307227,-0.047884032
1570715562,-0.19632454,9.452309,2.0207062,-0.01065297,0.017044751,0.0074570784,0.05267244,-0.05267244,0.11971009
1570715562,-0.23942018,9.323022,1.934515,-0.023436533,0.01384886,0.0074570784,0.0,-0.2825158,-0.01436521
1570715562,-0.23942018,9.433155,1.9009962,-0.02130594,0.023436533,-0.017044751,-0.062249243,-0.22026655,-0.090979666
1570715562,-0.2873042,9.5385,1.958457,-0.034089502,0.028763017,-0.014914157,0.019153614,-0.07182605,0.023942016
1570715562,-0.30645782,9.605537,1.8914193,-0.039415985,0.046873067,-0.012783563,-0.062249243,0.019153614,-0.11971009
1570715562,-0.23463176,9.595961,1.9440918,-0.026632423,0.053264845,0.0010652969,0.0,-0.01436521,0.033518825
1570715562,-0.17238252,9.452309,1.9536686,-0.022371236,0.03728539,0.0010652969,-0.01436521,-0.1436521,-0.01436521
1570715562,-0.23942018,9.500193,1.9776106,-0.018110048,0.031958908,-0.0063917814,0.0,-0.14844051,-0.023942016
1570715562,-0.22984336,9.5385,2.0111294,-0.009587673,0.022371236,-0.005326485,0.0,-0.07182605,-0.009576807
1570715562,-0.29688102,9.5385,2.0350714,-0.01384886,0.025567126,0.0031958907,-0.033518825,-0.05746084,0.04309563
1570715563,-0.33997664,9.485827,2.0638018,0.0021305939,0.009587673,0.005326485,-0.076614454,-0.110133275,0.07182605
1570715563,-0.22505496,9.485827,2.0590134,-0.0031958907,0.011718267,-0.0074570784,0.033518825,-0.110133275,0.06703765
1570715563,-0.25857377,9.524135,2.0159178,-0.012783563,0.0063917814,-0.01384886,0.0047884034,-0.07182605,0.019153614
1570715563,-0.19632454,9.514558,2.1164744,-0.011718267,-0.0031958907,-0.0042611877,0.06703765,-0.08140286,0.11492168
1570715563,-0.2633622,9.461885,1.9871874,-0.014914157,-0.014914157,-0.0042611877,0.0,-0.1340753,-0.009576807
1570715563,-0.2681506,9.457097,2.0015526,-0.0074570784,-0.019175345,-0.01065297,0.0,-0.1388637,0.0
1570715563,-0.23942018,9.490616,1.9871874,-0.01065297,-0.020240642,-0.0085223755,0.023942016,-0.10055647,-0.01436521
1570715563,-0.2681506,9.524135,1.9871874,-0.0010652969,-0.017044751,-0.01065297,0.0,-0.06703765,-0.019153614
1570715563,-0.19632454,9.533711,2.006341,0.0,-0.02130594,-0.020240642,0.07182605,-0.05746084,0.0
1570715563,-0.17717093,9.576807,1.9871874,0.0,-0.028763017,-0.015979454,0.095768064,-0.01436521,-0.01436521
1570715563,-0.20590134,9.504981,1.9536686,0.0031958907,-0.035154797,-0.011718267,0.06703765,-0.08619126,-0.047884032
1570715563,-0.19632454,9.457097,2.0111294,0.0021305939,-0.04793836,-0.011718267,0.076614454,-0.1340753,0.0047884034
1570715563,-0.25857377,9.519346,2.054225,0.0021305939,-0.05219955,-0.017044751,0.01436521,-0.07182605,0.047884032
1570715563,-0.35913026,9.457097,1.9871874,0.0063917814,-0.063917816,-0.023436533,0.0,-0.1340753,-0.01436521
1570715563,-0.23942018,9.504981,1.9967642,0.009587673,-0.045807768,-0.025567126,0.038307227,-0.090979666,0.0
1570715563,-0.24420857,9.56723,2.0398598,-0.0031958907,-0.04261188,-0.02450183,0.019153614,-0.11971009,0.047884032
1570715563,-0.19632454,9.500193,2.0638018,-0.0010652969,-0.034089502,-0.015979454,0.04309563,-0.095768064,0.05267244
1570715563,-0.22984336,9.44752,1.982399,-0.0085223755,-0.04154658,-0.014914157,0.090979666,-0.14844051,0.023942016
1570715563,-0.2873042,9.437943,2.0159178,-0.0074570784,-0.033024207,-0.019175345,0.05267244,-0.12928689,0.009576807
1570715563,-0.24899697,9.519346,1.9153614,-0.011718267,-0.02450183,-0.018110048,0.01436521,-0.095768064,-0.08140286
1570715563,-0.25378537,9.514558,1.9871874,-0.01065297,0.0021305939,-0.0074570784,0.023942016,-0.02873042,-0.04309563
1570715563,-0.25378537,9.557653,1.9776106,-0.011718267,0.0031958907,-0.0063917814,0.04309563,-0.033518825,-0.033518825
1570715563,-0.23463176,9.495404,2.030283,-0.01065297,0.0074570784,-0.005326485,0.095768064,-0.12928689,0.0047884034
1570715563,-0.22984336,9.524135,1.9871874,-0.0074570784,0.0042611877,-0.01384886,0.05746084,-0.090979666,-0.033518825
1570715563,-0.23942018,9.524135,1.982399,-0.0010652969,0.0021305939,-0.009587673,0.08140286,-0.095768064,0.01436521
1570715563,-0.16759412,9.476251,2.030283,-0.0085223755,0.0074570784,-0.0021305939,0.11971009,-0.023942016,-0.023942016
1570715563,-0.2777274,9.3661175,2.0398598,-0.0042611877,-0.0074570784,0.0010652969,0.009576807,-0.1340753,-0.009576807
1570715563,-0.24420857,9.509769,2.0685902,-0.0021305939,-0.0063917814,-0.012783563,0.0047884034,-0.08140286,-0.04309563
1570715563,-0.23942018,9.524135,2.0207062,-0.0031958907,0.0,-0.01065297,0.062249243,-0.08140286,-0.01436521
1570715563,-0.25378537,9.476251,2.1308396,-0.005326485,0.0063917814,0.0031958907,0.05746084,-0.076614454,0.02873042
1570715563,-0.33997664,9.423578,2.0159178,-0.009587673,-0.0031958907,0.0010652969,0.05267244,-0.16759412,-0.047884032
1570715563,-0.320823,9.476251,2.0207062,0.0031958907,0.0063917814,-0.01065297,-0.02873042,-0.11492168,0.047884032
1570715563,-0.24899697,9.519346,1.9919758,0.0021305939,0.0042611877,-0.0031958907,0.05267244,-0.06703765,-0.038307227
1570715564,-0.25378537,9.471462,2.030283,-0.014914157,0.026632423,0.005326485,0.019153614,-0.1436521,0.023942016
1570715564,-0.22984336,9.548077,2.030283,-0.005326485,0.017044751,0.0031958907,0.076614454,-0.0047884034,0.0
1570715564,-0.24420857,9.605537,1.9776106,-0.0074570784,0.012783563,0.005326485,0.05746084,0.01436521,-0.05746084
1570715564,-0.29209262,9.557653,1.9776106,0.0074570784,0.012783563,0.019175345,0.0047884034,-0.02873042,-0.05746084
1570715564,-0.23463176,9.399636,1.9776106,0.0074570784,0.009587673,0.005326485,0.05746084,-0.18674773,-0.05746084
1570715564,-0.22505496,9.423578,2.006341,0.0042611877,0.0,-0.01065297,0.07182605,-0.16280572,-0.023942016
1570715564,-0.24899697,9.514558,1.9871874,-0.015979454,-0.005326485,-0.012783563,0.02873042,-0.05267244,-0.019153614
1570715564,-0.25378537,9.466674,2.0111294,-0.022371236,-0.0042611877,-0.01384886,0.047884032,-0.11971009,-0.02873042
1570715564,-0.38307226,9.44752,2.0254946,-0.011718267,-0.0031958907,-0.020240642,-0.07182605,-0.1340753,-0.019153614
1570715564,-0.25378537,9.581595,2.0925324,-0.009587673,0.022371236,-0.018110048,0.05746084,0.0,0.04309563
1570715564,-0.2633622,9.433155,2.0685902,-0.0031958907,0.012783563,-0.0063917814,0.05267244,-0.14844051,0.01436521
1570715564,-0.30645782,9.428367,2.1212628,-0.011718267,0.01065297,-0.01384886,0.009576807,-0.15322891,0.06703765
1570715564,-0.18674773,9.481039,2.1021092,-0.009587673,0.0021305939,-0.02130594,0.1340753,-0.10055647,0.04309563
1570715564,-0.31124622,9.490616,2.1308396,-0.018110048,0.0031958907,-0.033024207,0.01436521,-0.090979666,0.06703765
1570715564,-0.2681506,9.471462,2.0207062,-0.02130594,-0.0074570784,-0.029828314,0.06703765,-0.10534488,-0.04309563
1570715564,-0.22505496,9.466674,2.0733786,-0.011718267,-0.026632423,-0.035154797,0.11971009,-0.110133275,0.0
1570715564,-0.19153613,9.514558,2.135628,-0.0085223755,-0.045807768,-0.036220096,0.15801731,-0.062249243,0.062249243
1570715564,-0.21547815,9.533711,2.0254946,-0.011718267,-0.05646074,-0.034089502,0.1388637,-0.04309563,-0.047884032
1570715564,-0.31603462,9.490616,2.0398598,0.0042611877,-0.06604841,-0.03089361,0.019153614,-0.08619126,-0.033518825
1570715564,-0.35913026,9.490616,2.0829554,0.0031958907,-0.06604841,-0.036220096,0.01436521,-0.10534488,-0.04309563
1570715564,-0.36391866,9.457097,1.982399,0.0,-0.07457078,-0.03728539,-0.01436521,-0.033518825,-0.033518825
1570715564,-0.3878607,9.509769,2.0638018,-0.005326485,-0.05539544,-0.031958908,0.023942016,-0.062249243,-0.062249243
1570715564,-0.35913026,9.586384,2.0111294,-0.0085223755,-0.05539544,-0.026632423,0.0,0.01436521,-0.038307227
1570715564,-0.4165911,9.476251,2.1452048,0.01065297,-0.040481284,-0.0074570784,-0.02873042,-0.05746084,0.16759412
1570715564,-0.40222588,9.370906,2.0207062,0.0063917814,-0.04154658,-0.01065297,-0.05746084,-0.22026655,-0.033518825
1570715564,-0.4309563,9.490616,2.1212628,0.009587673,-0.028763017,-0.018110048,-0.047884032,-0.11971009,0.023942016
1570715564,-0.4309563,9.552865,2.0446482,-0.0010652969,0.0021305939,-0.017044751,-0.05267244,-0.009576807,-0.076614454
1570715564,-0.44532153,9.524135,2.0685902,0.0,0.017044751,-0.017044751,-0.05746084,-0.10055647,-0.04309563
1570715564,-0.4309563,9.457097,2.0925324,0.0031958907,0.02130594,0.0,-0.01436521,-0.08140286,0.062249243
1570715564,-0.4213795,9.44752,2.111686,0.019175345,0.011718267,-0.0063917814,-0.05267244,-0.1340753,0.05746084
1570715564,-0.4165911,9.500193,2.15957,0.01065297,0.0085223755,-0.011718267,0.023942016,-0.08619126,0.08619126
1570715564,-0.45489833,9.442732,2.0733786,0.009587673,0.009587673,-0.0021305939,-0.10055647,-0.08619126,0.01436521
1570715564,-0.4165911,9.466674,2.0638018,0.0063917814,0.019175345,-0.0063917814,-0.033518825,-0.15322891,0.0047884034
1570715564,-0.45968673,9.514558,2.1260512,0.0063917814,0.014914157,0.0010652969,-0.023942016,-0.08140286,-0.009576807
1570715565,-0.4309563,9.437943,2.0973208,0.0021305939,0.022371236,-0.0042611877,-0.02873042,-0.1388637,0.038307227
1570715565,-0.33518824,9.605537,2.0207062,0.005326485,0.017044751,-0.0085223755,0.062249243,-0.05746084,-0.023942016
1570715565,-0.35434186,9.495404,2.1691468,0.012783563,0.03089361,0.014914157,0.08619126,-0.038307227,0.07182605
1570715565,-0.46447513,9.390059,2.0446482,0.0085223755,0.020240642,0.019175345,-0.0047884034,-0.1436521,-0.038307227
1570715565,-0.45968673,9.399636,2.0398598,0.022371236,0.011718267,0.0021305939,-0.062249243,-0.23942018,0.033518825
1570715565,-0.41180268,9.495404,2.030283,0.014914157,0.020240642,0.0,-0.01436521,-0.08619126,-0.009576807
1570715565,-0.4309563,9.552865,2.0973208,0.0085223755,0.02450183,0.0042611877,-0.033518825,-0.02873042,0.05267244
1570715565,-0.4213795,9.485827,2.0111294,0.0085223755,0.020240642,0.011718267,-0.023942016,-0.095768064,-0.02873042
1570715565,-0.39264908,9.375694,2.0350714,0.0074570784,0.0074570784,0.0042611877,0.0047884034,-0.20111294,-0.009576807
1570715565,-0.4213795,9.476251,1.9488802,-0.0042611877,-0.0021305939,-0.0085223755,-0.023942016,-0.10534488,-0.08619126
1570715565,-0.2681506,9.548077,1.9632454,0.005326485,0.0,-0.015979454,0.12928689,-0.033518825,-0.07182605
1570715565,-0.38307226,9.533711,1.9919758,-0.012783563,0.0074570784,-0.009587673,0.019153614,-0.047884032,-0.047884032
1570715565,-0.38307226,9.428367,1.9488802,-0.01065297,0.009587673,-0.01065297,0.019153614,-0.15322891,-0.090979666
1570715565,-0.38307226,9.442732,1.982399,-0.005326485,0.0021305939,-0.022371236,0.023942016,-0.1388637,-0.062249243
1570715565,-0.2873042,9.504981,1.934515,-0.0074570784,0.012783563,-0.020240642,0.12928689,-0.07182605,-0.110133275
1570715565,-0.2873042,9.572019,2.0111294,-0.0085223755,0.029828314,-0.0063917814,0.1340753,-0.0047884034,-0.038307227
1570715565,-0.36870706,9.495404,1.9776106,-0.0042611877,0.02130594,-0.005326485,0.05267244,-0.08140286,-0.07182605
1570715565,-0.34955344,9.504981,2.0446482,0.0021305939,0.019175345,-0.01384886,0.076614454,-0.07182605,-0.0047884034
1570715565,-0.36870706,9.409213,2.0350714,-0.0010652969,0.019175345,-0.0074570784,0.05746084,-0.16759412,-0.01436521
1570715565,-0.36391866,9.41879,1.9967642,-0.012783563,0.026632423,-0.018110048,0.06703765,-0.15801731,-0.05267244
1570715565,-0.320823,9.437943,1.982399,-0.02769772,0.0074570784,-0.036220096,0.11971009,-0.1388637,-0.07182605
1570715565,-0.2873042,9.437943,1.9249382,-0.04261188,0.0021305939,-0.043677174,0.16759412,-0.19632454,-0.15801731
1570715565,-0.2873042,9.552865,2.1212628,-0.050068956,-0.0031958907,-0.064983115,0.22984336,-0.038307227,-0.04309563
1570715565,-0.320823,9.591172,2.1691468,-0.03835069,-0.028763017,-0.046873067,0.18195933,0.023942016,0.06703765
1570715565,-0.5315128,9.452309,2.1739352,-0.01384886,-0.04261188,-0.033024207,0.01436521,-0.10055647,0.095768064
1570715565,-0.6560113,9.437943,2.1883004,0.005326485,-0.046873067,-0.03089361,-0.18674773,-0.1340753,0.05746084
1570715565,-0.6751649,9.509769,2.0925324,0.011718267,-0.040481284,-0.025567126,-0.19153613,-0.038307227,0.06703765
1570715565,-0.8619126,9.394848,2.1404164,0.015979454,0.012783563,-0.0085223755,-0.33039984,-0.05267244,0.009576807
1570715565,-0.9624691,9.466674,2.0590134,0.014914157,0.046873067,-0.005326485,-0.44532153,-0.10534488,-0.02873042
1570715565,-0.79008657,9.437943,2.360683,0.005326485,0.11079088,0.01384886,-0.33518824,-0.10534488,0.272939
1570715565,-0.4405331,9.275137,2.2026656,0.0085223755,0.116117366,0.0085223755,-0.009576807,-0.2633622,0.18195933
1570715565,-0.17238252,9.299079,2.3702598,-0.01384886,0.12677033,0.0042611877,0.31603462,-0.2825158,0.22505496
1570715565,-0.49799395,9.3421755,2.3463178,-0.039415985,0.11185618,0.02130594,0.08140286,-0.22026655,0.33039984
1570715566,-0.80924016,9.41879,2.0973208,-0.025567126,0.10866029,0.026632423,-0.2825158,-0.11971009,0.10055647
1570715566,-0.7469909,9.533711,2.1404164,-0.009587673,0.15446806,0.022371236,-0.22505496,-0.095768064,-0.05267244
1570715566,-0.6560113,9.514558,2.1452048,-0.009587673,0.16725162,0.043677174,-0.090979666,-0.01436521,0.06703765
1570715566,-0.33997664,9.495404,1.9919758,-0.023436533,0.14381509,0.044742472,0.08140286,-0.12449849,-0.05746084
1570715566,-0.21068975,9.433155,2.0829554,-0.029828314,0.12996623,0.022371236,0.33518824,-0.090979666,-0.033518825
1570715566,-0.30166942,9.3182335,1.9776106,-0.031958908,0.08735435,-0.0010652969,0.2825158,-0.19632454,-0.15801731
1570715566,-0.33518824,9.586384,2.0015526,-0.043677174,0.04900366,-0.02769772,0.24420857,-0.02873042,-0.11971009
1570715566,-0.2825158,9.634268,1.9393034,-0.05646074,-0.012783563,-0.04900366,0.30166942,-0.023942016,-0.23463176
1570715566,-0.33997664,9.773131,1.8914193,-0.044742472,-0.023436533,-0.05646074,0.21068975,0.22026655,-0.2633622
1570715566,-0.36391866,9.667787,1.9536686,0.019175345,-0.036220096,-0.025567126,0.16280572,0.023942016,-0.19632454
1570715566,0.10534488,9.232041,1.5035586,0.017044751,-0.057526033,-0.035154797,0.4213795,-0.10055647,-0.090979666
1570715566,-1.6089035,11.736377,4.1946416,0.14381509,0.24821419,-0.37498453,-1.0055647,2.1787236,2.0590134
1570715566,-1.8770541,11.176133,2.6144683,0.55075854,0.067113705,-0.35687447,-1.2258313,1.6136919,0.5363012
1570715566,-1.3359646,8.42759,1.9536686,-0.1054644,-0.15340276,-0.015979454,-0.6368576,-1.1300632,-0.10534488
1570715566,-0.35913026,10.127473,3.074155,0.033024207,-0.10866029,-0.040481284,0.31124622,0.56982,0.9624691
1570715566,0.23942018,9.514558,1.8483237,-0.09907261,-0.068179004,-0.08735435,0.91937345,-0.038307227,-0.25857377
1570715566,-0.82360536,9.586384,2.5761611,0.0692443,-0.19921052,-0.09374613,-0.12449849,0.033518825,0.45489833
1570715566,-0.6464345,9.437943,2.1547816,0.0063917814,-0.18216577,-0.089484945,0.05746084,-0.110133275,0.038307227
1570715566,-1.2210429,8.983045,2.2505496,-0.0010652969,-0.18642697,-0.10120321,-0.50757074,-0.5650316,0.1340753
1570715566,-1.4700398,9.423578,2.2601264,0.039415985,-0.15872924,-0.11079088,-0.7326257,-0.12449849,0.14844051
1570715566,-1.3838485,9.198523,2.0685902,0.0085223755,-0.10866029,-0.07350549,-0.6368576,-0.34955344,-0.038307227
1570715566,-1.3455414,9.260772,2.030283,-0.0042611877,-0.057526033,-0.063917816,-0.5793968,-0.2825158,-0.076614454
1570715566,-1.2689269,9.490616,2.1212628,-0.04261188,0.0074570784,-0.070309594,-0.48362875,-0.047884032,0.0
1570715566,-1.0773908,9.504981,2.384625,-0.0063917814,0.031958908,-0.060721926,-0.272939,-0.033518825,0.24899697
1570715566,-0.8714894,9.452309,2.3463178,0.033024207,-0.07670138,-0.05113425,-0.05267244,-0.08619126,0.22026655
1570715566,-0.44532153,8.858546,1.3024458,-0.17683929,-0.175774,-0.029828314,0.34955344,-0.6655881,-0.8762778
1570715566,-1.2545617,9.797073,2.753332,0.023436533,-0.044742472,-0.18429637,-0.4165911,0.272939,0.5554548
1570715566,-0.7661445,9.744401,2.3223755,0.020240642,-0.27165073,-0.19814523,0.10534488,0.22026655,0.1388637
1570715566,-0.6512229,10.084377,2.1260512,-0.18642697,-0.2737813,-0.18110047,0.25857377,0.5746084,-0.090979666
1570715566,-1.3503298,9.840169,2.3654714,-0.14274979,-0.16405573,-0.0031958907,-0.30166942,0.37828386,0.0047884034
1570715566,-1.0151415,9.605537,2.078167,0.026632423,-0.09907261,0.07137489,-0.1436521,0.24899697,0.0
1570715566,-0.9576807,9.212888,2.1787236,0.017044751,-0.01065297,0.01065297,0.16759412,-0.45968673,0.10534488
1570715566,-1.3120226,9.198523,1.6136919,-0.02450183,-0.07457078,0.06178722,-0.4405331,-0.20590134,-0.2681506
1570715567,-2.0925324,9.457097,3.8163576,0.25780186,0.47831833,-0.05539544,-0.59855044,1.1013328,1.6519991
1570715567,-0.9672575,8.863335,2.2505496,0.02130594,-0.04900366,0.035154797,0.0,-0.30166942,-0.33039984
1570715567,-0.6607997,9.428367,1.9919758,0.01384886,-0.064983115,-0.044742472,0.1388637,-0.110133275,0.5506664
1570715567,-0.5650316,9.524135,2.1978772,-0.067113705,0.03835069,-0.06285252,0.37828386,-0.11971009,-0.29209262
1570715567,-1.0726024,9.682152,2.542642,-0.12890093,-0.044742472,0.005326485,-0.1436521,0.17717093,0.29688102
1570715567,-1.0390835,9.399636,2.1164744,-0.04261188,-0.11505207,-0.08309316,0.1436521,-0.4357447,-0.033518825
1570715567,-0.93373865,9.667787,1.8962077,0.034089502,-0.12996623,-0.16618632,0.110133275,-0.11492168,-0.2633622
1570715567,-1.3503298,9.749189,2.4468741,-0.044742472,-0.09694202,-0.092680834,-0.35913026,0.47405192,-0.16280572
1570715567,-0.94331545,9.313444,2.1499932,-0.06285252,-0.08735435,-0.10120321,0.04309563,-0.16759412,-0.1388637
1570715567,-1.5514427,9.993398,2.2649148,-0.05646074,-0.0031958907,-0.13422741,-0.19153613,0.39743748,-0.17238252
1570715567,-1.0295067,8.614338,2.3989902,-0.12570503,-0.040481284,-0.08628905,0.023942016,-0.8523358,0.06703765
1570715567,-1.6280571,9.600749,2.2457612,-0.120378554,-0.070309594,-0.1384886,-0.48362875,-0.272939,0.16759412
1570715567,-0.92416185,9.548077,2.384625,-0.11185618,-0.015979454,-0.028763017,0.0047884034,0.1340753,-0.033518825
1570715567,-1.0486604,9.691729,2.5713725,-0.12890093,0.060721926,0.0,-0.009576807,0.23942018,0.0
1570715567,-1.7621324,9.476251,2.6719291,0.05219955,0.24927948,0.068179004,-0.60812724,0.19632454,0.15801731
1570715567,-0.9720459,9.639056,1.982399,-0.028763017,0.12783563,0.046873067,0.1388637,0.20111294,-0.4405331
1570715567,-1.2114661,9.706094,2.4756045,-0.0010652969,0.08096257,0.036220096,-0.08619126,0.2681506,0.05267244
1570715567,-0.94331545,9.284714,2.3080103,0.011718267,0.043677174,0.04793836,0.20590134,-0.090979666,0.0047884034
1570715567,-0.8475474,9.332599,2.3511062,-0.043677174,-0.022371236,0.015979454,0.24899697,-0.10534488,-0.062249243
1570715567,-1.2785037,9.528923,2.5570073,0.039415985,-0.031958908,0.05113425,-0.18674773,0.08619126,0.1388637
1570715567,-1.2258313,10.180145,2.1739352,0.028763017,-0.07137489,0.08415846,-0.15801731,0.7278373,-0.22505496
1570715567,-1.2641385,10.19451,2.4612393,0.06604841,-0.120378554,0.18323107,-0.24420857,0.7374141,0.06703765
1570715567,-0.79008657,9.873688,1.8914193,0.09374613,-0.01384886,0.09055024,0.18195933,0.40222588,-0.46926352
1570715567,-0.8619126,9.648633,2.0733786,-0.046873067,0.1054644,-0.08202787,0.11971009,0.17717093,-0.2825158
1570715567,-1.1875241,9.423578,2.5953147,0.011718267,0.17151281,-0.017044751,-0.17238252,-0.038307227,0.22984336
1570715567,-0.90979666,9.006987,3.040636,0.14381509,0.16512102,0.018110048,0.110133275,-0.45968673,0.7086837
1570715567,-0.9576807,9.519346,2.1452048,0.10759499,0.11079088,0.012783563,0.06703765,0.038307227,-0.1436521
1570715567,-0.9720459,9.9550905,2.6910827,0.039415985,0.057526033,0.045807768,0.05267244,0.46926352,0.4165911
1570715567,-1.13964,9.710882,2.2697031,0.068179004,0.09587672,0.03089361,-0.11971009,0.22026655,0.0047884034
1570715567,-0.7038953,9.030929,2.3175871,0.07244019,0.06178722,0.011718267,0.31124622,-0.45968673,0.07182605
1570715567,-0.63206923,8.561666,2.528277,-0.03835069,-0.09374613,0.0021305939,0.37828386,-0.92895025,0.2825158
1570715567,-1.043872,8.8777,2.0829554,-0.07137489,-0.119313255,-0.0021305939,-0.033518825,-0.60812724,-0.18195933
1570715567,-0.80445176,8.24563,2.1691468,-0.057526033,-0.08628905,-0.094811425,0.21068975,-1.2306197,-0.12449849
1570715567,-0.8475474,7.359776,1.9440918,-0.2066676,-0.014914157,-0.092680834,0.19153613,-2.1068976,-0.38307226
1570715568,-1.532289,7.651869,2.8299465,-0.3494174,-0.01065297,-0.08309316,-0.46447513,-1.7860745,0.39743748
1570715568,-2.3511062,8.135497,3.3806129,-0.13209683,-0.31745848,-0.020240642,-1.2354081,-1.1731589,0.6703765
1570715568,-0.78529817,9.289502,1.5658079,0.07883197,-0.46873066,0.116117366,0.20590134,-0.1388637,-0.92895025
1570715568,-1.3838485,9.758766,3.4715924,0.16405573,-0.16192514,-0.3856375,-0.34476504,0.49799395,0.9959879
1570715568,-0.7565677,13.484144,2.0207062,0.068179004,-0.23969181,-0.68605125,0.44532153,3.0310593,0.22026655
1570715568,-1.0199299,8.087613,1.3694834,-0.27058542,0.063917816,-0.29295665,0.062249243,-0.44532153,-1.7286136
1570715568,-2.0015526,9.14585,3.4955344,-0.12677033,0.23649593,-0.47725302,-0.5410896,-0.31124622,0.5554548
1570715568,-1.3263878,11.923124,1.8387469,-0.091615535,-0.07244019,-0.10759499,0.17238252,1.2210429,-0.5602432
1570715568,-1.6950948,11.161768,2.7246015,0.029828314,0.22690825,0.02450183,-0.090979666,1.9632454,0.2633622
1570715568,-1.8100165,10.778696,2.7868507,0.122509144,0.53371376,0.21732058,-0.18674773,1.5131354,0.33518824
1570715568,-1.2593501,11.314998,2.8060043,-0.034089502,0.31745848,0.33343795,-0.076614454,1.757344,0.32561144
1570715568,-1.9201498,9.873688,3.0885203,0.32491556,0.52945256,0.24927948,-0.30166942,0.9624691,0.81402856
1570715568,-1.4556746,8.954314,2.360683,0.26738954,0.409074,0.14061919,-0.48362875,-0.12449849,0.11492168
1570715568,-0.9528923,8.341399,2.657564,0.21518998,0.38670278,-0.04261188,0.320823,-1.2114661,0.6655881
1570715568,-1.3742718,9.375694,2.8921957,0.29721785,0.06604841,0.10652969,0.10055647,-0.15801731,0.6512229
1570715568,-1.5658079,9.677363,2.4468741,0.43037996,-0.12357444,0.25247538,-0.30166942,0.1436521,0.46447513
1570715568,-0.91937345,8.848969,1.9393034,0.26419365,0.19814523,0.22584295,0.40222588,-0.6751649,-0.45489833
1570715568,-1.1204864,9.701305,1.4748282,0.067113705,0.23862651,0.23116943,0.06703765,0.15801731,-0.45968673
1570715568,-2.4851813,11.089942,1.7956513,0.31106672,0.0031958907,0.1022685,-1.3311762,1.532289,-0.090979666
1570715568,-1.3934253,9.519346,1.3599066,0.53371376,0.28763017,-0.3504827,-0.18674773,-0.047884032,-0.40222588
1570715568,-0.39264908,7.7907324,2.0925324,-0.05646074,0.9012412,-0.27058542,0.4405331,-0.047884032,-1.4891934
1570715568,-1.0534488,13.230358,3.667917,-0.2066676,0.45807767,0.175774,0.34955344,3.667917,1.9919758
1570715568,-1.8435353,11.204864,1.0869676,0.32598087,0.3100014,0.40587813,-0.5315128,1.6280571,-0.5650316
1570715568,-2.6719291,9.251195,2.6192567,0.7840586,1.0077709,0.3451562,-1.4269443,-0.36870706,1.1779473
1570715568,-1.2401965,9.064447,0.7565677,0.25673655,0.4431635,0.3100014,-0.05267244,-0.58418524,-0.51714754
1570715568,-0.45489833,10.113108,1.8148049,-0.15659864,0.3877681,0.5496932,0.61770403,0.4405331,0.5746084
1570715568,-2.3942018,9.935937,1.2306197,-0.23330003,0.1725781,0.73612016,-1.5227122,0.25857377,-0.10055647
1570715568,-0.9576807,9.983821,0.91458505,0.02769772,0.5241261,0.51240784,-0.25857377,0.2873042,-0.40222588
1570715568,0.7374141,10.160992,0.9672575,0.033024207,0.92148185,0.67539823,1.3024458,0.45489833,-0.32561144
1570715568,-1.1875241,12.243947,1.3072342,-0.22371235,0.9992485,1.1260189,-0.8571242,2.528277,0.01436521
1570715568,-2.930503,10.515334,-0.79008657,-0.42718408,0.35474387,0.8810006,-2.896984,0.80924016,-2.2026656
1570715568,-1.6184803,9.121908,0.61291564,-0.15127216,1.2442669,0.33450323,-1.70946,-0.56982,-0.866701
1570715568,1.2354081,11.180922,0.521936,0.3185238,0.96089786,0.029828314,1.1731589,1.484405,-0.9576807
1570715569,0.46926352,10.486604,2.0494366,0.5305179,-0.31319728,0.92254716,0.23942018,0.770933,0.7230489
1570715569,-1.7908629,9.193734,-0.9864111,0.35474387,0.12890093,0.71055305,-2.2840683,-0.521936,-2.183512
1570715569,-1.6711528,8.695741,0.93373865,0.7467731,0.9332001,-0.0021305939,-2.2266076,-1.0390835,-0.10055647
1570715569,0.48841715,10.141838,1.2545617,0.68605125,0.9395919,0.04154658,-0.019153614,0.38307226,0.4165911
1570715569,-0.6895301,9.476251,2.825158,0.37178862,0.13635801,0.5113425,-1.2976574,-0.2825158,2.135628
1570715569,-1.3742718,8.7771435,0.7422025,0.23330003,-0.6615494,0.26845482,-2.1021092,-0.9816227,0.12449849
1570715569,-0.9720459,8.020576,0.90979666,0.80323386,-0.15659864,0.0010652969,-1.7477672,-1.7429788,0.46926352
1570715569,-0.18195933,8.887277,1.6328455,0.8703476,0.4506206,-0.13529271,-1.0295067,-0.94810385,0.93852705
1570715569,-1.0151415,8.863335,2.4995465,0.29828313,0.21732058,-0.17896989,-1.7046716,-0.91458505,2.4516625
1570715569,-0.08140286,9.404425,0.89064306,-0.011718267,0.01384886,-0.57526034,-0.9624691,-0.6847417,1.1923125
1570715569,1.1540052,10.5680065,1.8339585,0.017044751,0.78299326,-0.56673795,0.6512229,0.6368576,1.292869
1570715569,0.7422025,10.108319,1.5705963,-0.4133352,0.5592809,-0.24821419,0.7230489,0.37828386,1.6280571
1570715569,-0.8714894,9.246407,1.6711528,-0.8085604,0.4559471,-0.43037996,-1.0773908,-0.60812724,1.4652514
1570715569,0.40222588,9.504981,2.0015526,-0.99711794,0.7957768,-0.7723403,0.05267244,0.06703765,1.3503298
1570715569,1.2497733,10.524911,1.3694834,-1.0567746,0.78725445,-0.7254672,1.5035586,0.8331822,0.45968673
1570715569,0.5554548,9.849746,2.6192567,-1.0407951,0.9449184,-0.57739097,1.1540052,0.35913026,1.0055647
1570715569,0.7182605,11.080365,1.5658079,-1.09406,0.49429777,-0.46660006,1.3215994,1.340753,0.33997664
1570715569,0.34955344,9.873688,1.6184803,-1.1760879,0.868217,-0.19281875,1.2114661,0.4309563,-0.02873042
1570715569,-0.2777274,10.395624,3.8067808,-1.3646454,1.0663623,-0.023436533,0.7517793,0.62249243,0.9672575
1570715569,-1.5562311,9.006987,2.944868,-1.366776,-0.66900647,-0.09374613,-0.6799533,0.038307227,1.3120226
1570715569,0.9911995,7.431602,-0.22505496,-1.3252294,-0.07137489,0.16725162,2.7102363,-1.1683705,-2.954445
1570715569,2.1260512,8.0924015,3.4859576,-1.1878061,0.78618914,0.5944357,3.86903,-0.6368576,-0.48362875
1570715569,-1.3742718,7.1347213,3.3854012,-1.8791838,0.16299044,0.6871165,0.6368576,-1.7190368,0.20111294
1570715569,-1.7238252,7.1586633,-0.8331822,-1.485024,-0.2418224,0.036220096,-1.13964,-1.9728222,-4.7884035
1570715569,1.6950948,10.290278,2.2361844,-0.9108289,0.7595567,-0.08096257,2.336741,1.541866,-2.1452048
1570715569,1.2593501,8.896853,3.8067808,-0.8042992,0.20347172,0.92254716,1.8243817,0.6512229,-0.50757074
1570715569,-0.21547815,8.073248,4.19943,-0.89591473,0.2759119,0.89165354,0.1436521,-0.36870706,-0.81402856
1570715569,-0.37349546,7.752425,4.19943,-1.1057782,0.2098635,0.78299326,-0.19153613,-0.63206923,-0.8762778
1570715569,-0.7613561,7.4603324,3.9456444,-1.0248157,0.26099774,0.70203066,-0.7278373,-0.7613561,-1.3982137
1570715569,-0.15801731,7.4124484,3.7349546,-0.7169448,0.7382508,0.4570124,-0.17717093,-0.6655881,-1.8195933
1570715569,0.35913026,7.192182,5.837064,-0.5869786,0.6551576,0.18749227,0.40222588,-0.78050977,0.12928689
1570715569,0.6368576,7.5082164,5.5641246,-0.39948636,0.3163932,0.18323107,0.7086837,-0.38307226,-0.25378537
1570715569,-0.2633622,7.6949644,5.626374,-0.15979454,0.31745848,0.2087982,-0.18674773,-0.17717093,-0.22026655
1570715570,0.038307227,7.216124,5.631162,-0.2087982,0.031958908,0.025567126,0.110133275,-0.6512229,-0.22026655
1570715570,0.40701428,7.3549876,4.9176903,-0.2418224,0.043677174,0.017044751,0.46926352,-0.49320555,-0.9576807
1570715570,0.44532153,7.627927,1.8722657,-0.045807768,0.3100014,0.07350549,0.51235914,-0.21068975,-4.012682
1570715570,0.3878607,7.905654,7.5225816,-0.1043991,0.6551576,0.19388404,0.5506664,0.05267244,1.6472107
1570715570,0.38307226,8.494628,7.40766,-0.6200028,-0.01384886,0.30147904,0.5267244,0.7086837,1.4413095
1570715570,0.0047884034,8.212111,5.770026,-0.70203066,-0.36646214,0.36752746,0.019153614,0.5554548,-0.35913026
1570715570,0.2825158,7.5848308,3.9025488,-0.39309457,0.26738954,0.44635943,0.18674773,0.033518825,-2.3558946
1570715570,-0.7517793,7.9966335,6.9767036,-0.26738954,0.4911019,0.6956389,-0.8619126,0.50278234,0.6464345
1570715570,0.062249243,7.8386164,6.143522,-0.40268224,0.5102772,0.595501,-0.12449849,0.4165911,-0.2633622
1570715570,0.08619126,7.1826053,6.5122285,-0.36007038,0.57632565,0.57632565,-0.11492168,-0.15801731,0.01436521
1570715570,-0.34955344,7.1826053,6.205771,-0.18003519,0.70735717,0.5891092,-0.5506664,-0.10055647,-0.34955344
1570715570,-0.17238252,6.9862804,6.8043213,0.11824796,0.703096,0.4559471,-0.35434186,-0.29209262,0.23463176
1570715570,0.12449849,7.062895,6.871359,0.14701098,0.56354207,0.03835069,0.019153614,-0.24899697,0.33997664
1570715570,0.79487497,7.201759,5.813122,0.046873067,0.53371376,-0.11824796,0.6943185,-0.23463176,-0.5554548
1570715570,0.110133275,7.2113357,6.172252,0.05646074,0.789385,-0.022371236,0.45968673,-0.04309563,-0.4165911
1570715570,-0.60333884,7.4986396,6.8043213,0.09587672,0.79045033,0.0042611877,-0.35913026,0.02873042,0.19632454
1570715570,-0.4165911,7.9391727,6.9767036,0.12677033,0.61041516,0.15766394,-0.11492168,0.50757074,0.4165911
1570715570,0.11971009,7.177817,6.397307,0.018110048,0.29721785,0.19601464,0.545878,-0.14844051,0.19153613
1570715570,-0.22505496,7.4507556,6.167464,-0.117182665,0.17044751,0.16192514,0.23463176,-0.12449849,-0.11492168
1570715570,-0.45010993,7.560889,6.373365,-0.20347172,0.14488038,0.3206544,-0.009576807,0.2633622,-0.07182605
1570715570,-0.22026655,7.3406224,6.4308257,-0.053264845,0.14701098,0.37391922,0.1436521,-0.12449849,-0.1340753
1570715570,-0.2825158,7.2448545,7.225701,-0.07350549,-0.07137489,0.37072334,0.08619126,-0.06703765,0.6560113
1570715570,0.10534488,6.943185,6.4882865,-0.11824796,-0.43037996,0.30680552,0.12449849,-0.45010993,0.22984336
1570715570,0.25857377,7.2352777,5.9998693,0.14701098,-0.08628905,0.21518998,0.44532153,-0.20590134,-0.6368576
1570715570,-0.1436521,6.981492,6.4739213,0.24075711,-0.13529271,0.2428877,-0.15322891,-0.2633622,0.2825158
1570715570,0.1388637,7.240066,5.7125654,0.3206544,0.050068956,0.15340276,0.076614454,-0.2825158,-0.6799533
1570715570,-0.14844051,7.4986396,6.4643445,0.21625528,0.1022685,0.09055024,-0.16280572,-0.019153614,0.0
1570715570,0.095768064,7.560889,6.5361705,0.2056023,-0.091615535,0.091615535,-0.0047884034,0.009576807,0.272939
1570715570,0.18195933,7.28795,6.2392898,0.18749227,-0.089484945,0.050068956,0.04309563,-0.29209262,0.019153614
1570715570,-0.095768064,7.5082164,6.6175733,0.09374613,-0.10120321,-0.0031958907,-0.24420857,-0.10055647,0.4309563
1570715570,-0.22984336,6.9958572,6.6079965,-0.10866029,-0.31958908,-0.12463974,-0.40222588,-0.60812724,0.4165911
1570715570,0.6512229,8.992621,1.9967642,0.13209683,0.1747087,-0.2791078,0.48362875,1.4030021,-4.213795
1570715570,0.23463176,6.919243,8.283937,-0.026632423,0.4953631,0.18003519,0.19153613,-0.6943185,2.1021092
1570715570,0.110133275,7.690176,7.0006456,-0.13316211,-0.28763017,-0.031958908,0.05267244,0.095768064,0.79008657
1570715571,0.1340753,7.302315,4.879383,0.0063917814,-0.14701098,0.039415985,0.019153614,-0.272939,-1.340753
1570715571,0.062249243,7.541735,5.837064,0.16512102,0.29934844,0.064983115,-0.02873042,-0.05746084,-0.35434186
1570715571,0.1340753,7.393295,6.3781533,0.03089361,0.33237264,0.07350549,0.08619126,-0.22505496,0.20111294
1570715571,-0.04309563,7.608773,6.349423,-0.092680834,0.14594568,0.045807768,-0.05746084,0.0,0.16280572
1570715571,-0.1388637,7.690176,6.0285997,-0.11824796,0.07670138,0.01065297,-0.1436521,0.10055647,-0.18195933
1570715571,-0.19632454,7.666234,6.0525417,-0.02130594,0.18962285,-0.025567126,-0.18195933,0.11971009,-0.15801731
1570715571,-0.17238252,7.6135616,6.1387334,0.16085984,0.30041373,-0.045807768,-0.090979666,0.019153614,-0.06703765
1570715571,-0.08619126,7.6949644,6.703765,0.13529271,0.18429637,-0.04793836,0.047884032,0.07182605,0.5315128
1570715571,-0.10055647,7.6853876,6.1626754,0.022371236,0.07776668,-0.017044751,0.05746084,0.05267244,0.0047884034
1570715571,-0.23463176,7.6853876,5.865794,0.050068956,0.1033338,0.005326485,-0.062249243,0.047884032,-0.2825158
1570715571,-0.36391866,7.642292,5.93762,0.17683929,0.22264706,0.014914157,-0.16280572,-0.01436521,-0.18195933
1570715571,-0.29688102,7.541735,5.932832,0.25780186,0.25886714,0.03089361,-0.05746084,-0.15322891,-0.1340753
1570715571,-0.34955344,7.40766,6.0046577,0.22477765,0.1043991,-0.02450183,-0.076614454,-0.33518824,-0.0047884034
1570715571,-0.36870706,7.824251,5.7269306,0.14061919,0.0085223755,-0.08415846,-0.08140286,0.05267244,-0.24420857
1570715571,-0.35434186,8.197746,5.7604494,0.08309316,0.15340276,0.0042611877,-0.04309563,0.40701428,-0.18674773
1570715571,-0.22505496,7.7572136,5.770026,0.07563608,0.32917675,0.07670138,0.110133275,-0.038307227,-0.16280572
1570715571,-0.521936,7.4986396,6.3925185,0.19281875,0.29082605,0.05113425,-0.1436521,-0.320823,0.48841715
1570715571,-0.37349546,7.9343843,6.191406,0.22371235,0.07457078,0.05646074,-0.076614454,-0.11492168,0.39743748
1570715571,-0.31603462,7.896077,5.7604494,0.07137489,-0.09374613,0.08522376,0.0,0.110133275,0.20590134
1570715571,-0.45489833,7.881712,5.48751,0.04900366,0.054330144,0.04154658,-0.023942016,-0.019153614,-0.37349546
1570715571,-0.50278234,7.8769236,5.90889,0.14807628,0.13103153,0.057526033,-0.22505496,0.0047884034,0.11492168
1570715571,-0.39264908,7.714118,5.961562,0.15553336,-0.089484945,0.08415846,-0.033518825,-0.19153613,0.31124622
1570715571,-0.2873042,7.7907324,5.410896,0.113986775,-0.16618632,0.05219955,0.019153614,-0.1388637,-0.2825158
1570715571,-0.39743748,7.656657,5.731719,0.13316211,-0.059656627,-0.020240642,-0.095768064,-0.22505496,-0.12449849
1570715571,-0.2633622,7.651869,5.947197,0.19921052,-0.19707993,-0.10652969,-0.033518825,-0.33997664,0.25378537
1570715571,-0.5506664,7.809886,5.66947,0.15659864,-0.25247538,-0.13103153,-0.20590134,-0.11492168,0.033518825
1570715571,0.59376204,9.404425,3.9600096,0.37498453,0.25460598,-0.057526033,0.46926352,1.0965444,-2.2218192
1570715571,-0.095768064,8.001422,7.2304893,0.01384886,0.41440052,0.28123838,0.320823,0.19632454,1.5658079
1570715571,-0.21547815,8.221688,5.9184666,-0.16192514,-0.23649593,0.14701098,0.08140286,-0.10534488,0.6943185
1570715571,-0.04309563,8.293514,4.43885,-0.036220096,-0.21625528,0.2844343,0.110133275,0.2825158,-1.0582372
1570715571,-0.21547815,7.8769236,5.3103395,-0.08309316,0.09907261,0.30893612,-0.1436521,-0.20590134,-0.36391866
1570715571,-0.32561144,7.953538,5.8322754,-0.23969181,0.05646074,0.18642697,-0.272939,-0.07182605,0.19632454
1570715571,-0.19153613,7.8769236,5.793968,-0.21305938,-0.054330144,0.044742472,-0.20111294,-0.033518825,0.17238252
1570715572,-0.17238252,7.872135,5.4922986,-0.026632423,-0.0021305939,-0.02769772,-0.16280572,-0.110133275,-0.14844051
1570715572,-0.095768064,7.953538,5.5880666,0.14701098,0.11292148,-0.031958908,-0.05746084,0.0,-0.22984336
1570715572,0.23942018,7.6949644,5.9663506,0.22264706,-0.023436533,-0.04900366,0.22026655,-0.2681506,0.23463176
1570715572,0.1340753,8.154651,5.7029886,0.17683929,-0.26099774,-0.03835069,0.18674773,0.11492168,0.08140286
1570715572,0.04309563,8.101978,5.209783,0.11185618,-0.14807628,0.043677174,0.11492168,0.12928689,-0.4357447
1570715572,-0.12449849,8.087613,5.6215854,0.060721926,-0.10013791,0.044742472,-0.1388637,0.01436521,0.047884032
1570715572,0.047884032,8.2169,5.4204726,0.028763017,-0.13209683,0.043677174,0.0,0.1388637,-0.1436521
1570715572,-0.062249243,7.97748,5.3486466,0.09907261,-0.116117366,0.05539544,-0.1340753,-0.10534488,-0.20111294
1570715572,-0.11492168,7.608773,5.1475334,0.18536167,-0.009587673,-0.034089502,-0.20111294,-0.49799395,-0.36870706
1570715572,-0.110133275,8.111555,5.7604494,0.2066676,0.04261188,-0.08628905,-0.16280572,-0.023942016,0.2873042
1570715572,0.047884032,8.130709,4.912902,0.36646214,-0.11824796,-0.025567126,0.0,-0.05267244,-0.48841715
1570715572,-0.009576807,8.494628,4.912902,0.5241261,-0.0063917814,0.005326485,-0.06703765,0.22984336,-0.36870706
1570715572,-0.110133275,8.571242,4.6591167,0.54330146,-0.012783563,0.11824796,-0.18195933,0.22505496,-0.49320555
1570715572,0.51714754,8.00621,4.3766007,0.70735717,0.13422741,0.19281875,0.40222588,-0.4309563,-0.61291564
1570715572,0.20590134,8.327033,5.386954,0.6796594,0.18110047,0.14807628,0.08619126,-0.21547815,0.56982
1570715572,0.32561144,8.614338,4.55856,0.85436815,-0.22690825,0.13316211,0.15322891,-0.033518825,-0.05746084
1570715572,0.37349546,8.719683,4.4244847,0.8650211,-0.23010413,0.17044751,0.12928689,-0.047884032,0.04309563
1570715572,0.23942018,8.820239,4.333505,0.47938362,-0.36113566,0.175774,-0.08140286,-0.02873042,0.12449849
1570715572,0.272939,8.839393,3.2513258,0.3483521,-0.3792457,0.1395539,-0.1436521,-0.05746084,-0.8475474
1570715572,0.61770403,9.260772,3.7110126,0.30893612,-0.14701098,0.091615535,0.14844051,0.33039984,-0.31124622
1570715572,0.6751649,9.045294,4.6160207,0.18429637,-0.092680834,0.13316211,0.16280572,0.16759412,0.272939
1570715572,0.49320555,9.222465,4.0797195,0.05646074,-0.3771151,0.09587672,-0.090979666,0.009576807,0.39264908
1570715572,0.56982,9.174581,3.6487634,0.119313255,-0.32491556,0.122509144,-0.04309563,0.32561144,-0.2825158
1570715572,0.59855044,8.925584,3.9600096,0.09694202,-0.17151281,0.11824796,-0.038307227,0.02873042,-0.04309563
1570715572,0.58897364,9.02614,3.7014358,-0.0010652969,-0.26525894,0.03728539,-0.12449849,0.07182605,-0.15801731
1570715572,0.6751649,8.973468,4.2664676,-0.02130594,-0.23116943,0.0063917814,-0.10055647,0.038307227,0.1340753
1570715572,0.7182605,8.983045,4.1611223,-0.07244019,-0.40374753,0.005326485,-0.033518825,0.062249243,0.4405331
1570715572,0.9911995,9.557653,3.145981,0.046873067,-0.018110048,0.08628905,0.2633622,0.6464345,-1.3263878
1570715572,1.1875241,8.978256,4.0557775,0.01384886,-0.03728539,0.117182665,0.08619126,0.04309563,0.35913026
1570715572,1.0103531,9.409213,3.5913026,-0.02450183,0.060721926,0.116117366,0.16759412,0.47405192,-0.36391866
