time,ax,ay,az,gx,gy,gz,la_x,la_y,la_z,fox,foy,foz
1570715681,6.369171,2.6282349,6.7181244,0.57681274,-0.052597046,0.25308228,-1.335937,-0.5495231,0.553679
1570715681,6.369171,2.6282349,6.7181244,0.57681274,-0.052597046,0.25308228,-1.335937,-0.5495231,0.553679
1570715681,6.369171,2.6282349,6.7181244,0.57681274,-0.052597046,0.25308228,-1.335937,-0.5495231,0.553679
1570715681,6.369171,2.6282349,6.7181244,0.57681274,-0.052597046,0.25308228,-1.335937,-0.5495231,0.553679
1570715681,6.2674255,2.8173828,4.9069214,-2.0085754,1.1607361,-0.047332764,-2.8410072,0.4740739,0.25795317
1570715681,4.0066986,1.8866272,7.0341644,-1.6389313,1.8872528,-0.5352173,-3.2497845,-0.14004993,2.3754048
1570715681,4.5250397,0.80384827,4.8201294,-1.0413208,1.7114716,-0.27955627,-3.7009277,-1.3217764,-0.5980859
1570715681,4.9242706,0.7290344,3.7008362,-1.0498352,1.6741943,-0.3605194,-3.0933232,-1.2518685,-2.1528783
1570715681,4.9242706,0.7290344,3.7008362,-1.0498352,1.6741943,-0.3605194,-3.0933232,-1.2518685,-2.1528783
1570715681,4.9242706,0.7290344,3.7008362,-1.0498352,1.6741943,-0.3605194,-3.0933232,-1.2518685,-2.1528783
1570715681,4.9242706,0.7290344,3.7008362,-1.0498352,1.6741943,-0.3605194,-3.0933232,-1.2518685,-2.1528783
1570715681,3.965393,-9.220673,5.4216766,-6.3431396,1.2044067,1.1436462,-1.9315844,-7.8011813,-2.7021856
1570715681,1.8572998,-10.325592,11.487976,-6.5189056,-0.06645203,1.9500427,-3.3591528,-7.1714706,2.6687942
1570715681,0.065841675,-9.519943,17.623123,-4.7441864,1.4739227,3.97937,-6.7211003,-6.2927523,7.3651066
1570715681,0.065841675,-9.519943,17.623123,-4.7441864,1.4739227,3.97937,-6.606477,-5.558367,10.1016
1570715681,0.065841675,-9.519943,17.623123,-4.7441864,1.4739227,3.97937,-6.606477,-5.558367,10.1016
1570715682,0.065841675,-9.519943,17.623123,-4.7441864,1.4739227,3.97937,-6.606477,-5.558367,10.1016
1570715682,0.065841675,-9.519943,17.623123,-4.7441864,1.4739227,3.97937,-6.606477,-5.558367,10.1016
1570715682,9.755173,-11.827362,11.559799,-3.2773132,-4.6470795,1.2874451,6.9152527,-2.791624,7.621949
1570715682,10.679337,-9.144653,14.004883,-1.6357422,-5.2787933,0.8411102,6.7662153,-0.35250378,11.646831
1570715682,9.293091,-8.704712,11.438904,-0.19230652,-6.2226105,0.22857666,6.1149044,1.102232,9.463582
1570715682,8.195953,-8.859741,8.570648,-0.2381134,-5.561081,0.2584076,4.460582,0.5851698,7.4707184
1570715682,8.00322,-6.6911926,7.428009,-0.883667,-3.5029907,-0.39033508,3.79492,2.2467947,6.8453026
1570715682,4.154541,-6.870163,7.9709015,-0.14968872,-1.4704742,-1.5983582,0.11986065,2.5754862,7.5801578
1570715682,1.5466614,-10.465652,3.16214,0.4116974,-1.0784454,-1.4801025,-1.6840825,0.4790964,1.7323877
1570715682,2.5827484,-10.011948,2.1164703,-0.4618225,0.24993896,0.17851257,-2.6790013,-2.4527826,1.7675784
1570715682,5.1457367,-7.8134766,2.90596,-0.9390564,0.2605896,0.27757263,-0.33594275,1.6835575,2.390018
1570715682,3.996521,-8.97406,0.3938446,-1.1222839,-0.122909546,-0.516037,-0.7861333,0.19660664,0.613864
1570715682,5.7107697,-6.6911926,-0.37768555,-1.0892639,-1.675003,-1.167984,0.5314555,2.2669163,0.073538184
1570715682,5.9082947,-6.387726,-1.3976135,-1.2309418,-2.2204132,-1.6580048,0.6195483,2.6161642,-0.6912342
1570715682,10.678146,-6.3655853,-0.5117645,-2.5294952,-3.4816895,-2.5283203,4.4232574,1.7388563,1.9166663
1570715682,7.7506256,-6.4332275,3.9276886,-0.84425354,2.1088257,-2.8138123,0.7118468,0.371068,11.628949
1570715682,7.545929,-7.7266846,-1.1210785,0.1816101,2.3357239,-1.9999542,0.27399778,-0.4828558,1.8342056
1570715682,12.94545,-7.9194183,-1.098938,-0.62693787,0.37882996,-1.8156586,6.084914,-0.9255419,2.2271323
1570715682,9.660599,-4.438843,-1.2503662,-0.14329529,0.9988098,-0.5416107,0.81929874,1.0189848,0.4872594
1570715682,9.660599,-4.438843,-1.2503662,-0.14329529,0.9988098,-0.5416107,0.81929874,1.0189848,0.4872594
1570715682,10.350128,-2.810791,-0.42077637,-0.14649963,1.2012177,-1.7208557,3.4691439,3.487862,2.610287
1570715682,2.0249023,-8.827423,-0.9858093,-0.006942749,1.5484924,-1.4758453,-5.5473204,-2.9343033,0.5479208
1570715682,6.487091,-7.5686646,-0.8954315,0.9176941,2.625473,1.6741333,-5.5982027,-2.8653212,-0.5279941
1570715682,6.487091,-7.5686646,-0.8954315,0.9176941,2.625473,1.6741333,-5.5982027,-2.8653212,-0.5279941
1570715682,10.085571,-10.181335,2.2331848,1.5707092,2.8917847,2.4208984,1.9377012,-4.3272557,2.0719228
1570715682,10.085571,-10.181335,2.2331848,1.5707092,2.8917847,2.4208984,1.9377012,-4.3272557,2.0719228
1570715682,6.9713135,-6.8731537,3.2357635,-0.6642151,-0.6086731,1.7092896,-0.3134203,0.2376213,1.1714702
1570715682,5.182846,-7.047928,2.0021515,-1.0881958,0.2967987,2.431549,-1.6391759,0.70295,0.8844131
1570715682,5.182846,-7.047928,2.0021515,-1.0881958,0.2967987,2.431549,-1.6391759,0.70295,0.8844131
1570715682,5.1445465,-6.167465,0.40821838,-1.0722198,-0.4968109,1.9063721,-0.3269081,2.6838589,-0.08409697
1570715682,5.1445465,-6.167465,0.40821838,-1.0722198,-0.4968109,1.9063721,-0.3269081,2.6838589,-0.08409697
1570715682,1.3491364,-8.87291,0.9510956,-0.51934814,-0.40733337,2.034195,-2.0006723,1.1234913,1.6440945
1570715682,1.3491364,-8.87291,0.9510956,-0.51934814,-0.40733337,2.034195,-2.0006723,1.1234913,1.6440945
1570715683,0.1592102,-5.0858765,0.06524658,-0.97953796,-1.6686096,5.3056335,-2.227496,4.6827717,0.7104093
1570715683,0.14065552,-4.957794,0.25437927,-0.96461487,-1.706955,5.364212,-1.962287,4.904216,0.8207448
1570715683,1.0486603,-3.454239,1.2946625,-0.70150757,-1.6132202,5.6092224,0.38065726,6.7007656,2.105644
1570715683,5.9585724,-19.612701,-3.6541443,2.1480865,13.181183,1.1042175,8.116059,-9.577009,-2.019375
1570715683,5.9585724,-19.612701,-3.6541443,2.1480865,13.181183,1.1042175,8.116059,-9.577009,-2.019375
1570715683,0.17297363,-6.5050507,-8.680176,0.5469818,11.173157,1.3215332,3.444244,3.3064852,-5.1866703
1570715683,-1.3808594,-4.404129,-14.485519,-0.07192993,4.028427,-1.646286,2.7244825,5.9365835,-10.801954
1570715683,-6.553528,-9.893433,-10.965439,-0.53744507,-4.2806396,-2.1949005,-6.073325,-0.041280746,-10.652293
1570715683,-3.3494873,-12.427109,-1.4490967,-1.9659729,-6.9704285,-0.55545044,-3.3742359,-1.4109211,-0.6122477
1570715683,0.97743225,-11.6358185,13.424881,-0.9528961,-4.190094,0.360672,1.7153505,-2.468995,14.676918
1570715683,1.6771393,-9.76416,9.020157,0.49691772,-0.35406494,0.026184082,3.3727071,-0.056777954,12.820531
1570715683,-1.874054,-11.54364,0.55545044,1.6506042,1.5037537,0.30421448,-0.3741206,-1.705514,3.2248492
1570715683,-0.46148682,-10.55484,-0.9427185,1.2734985,2.2089539,0.47784424,0.9141469,-0.58549786,0.5921509
1570715683,-0.6314697,-10.794861,-1.8716736,0.7611084,2.4092255,0.32337952,0.8547361,-0.6314497,-0.41642785
1570715683,-0.20889282,-10.367493,-3.0286713,0.06442261,1.3833771,0.1646576,0.9986454,-0.39248276,-1.6854669
1570715683,-0.082595825,-10.177155,-2.9753876,-0.0058898926,0.29893494,-0.018569946,1.2646594,-0.20242023,-1.8262326
1570715683,-0.5087738,-10.230423,-1.3874359,0.11555481,-0.94636536,-0.086746216,0.8870442,-0.18044376,-0.27356791
1570715683,-1.0109558,-10.384857,-1.1246796,-0.02293396,-1.0550079,-0.1687622,0.5430187,-0.24950695,0.01796949
1570715683,-1.6998901,-10.506958,-0.2962799,-0.311615,-0.5660553,-0.17089844,-0.31344807,-0.44436836,0.91861594
1570715683,-1.8201904,-10.469849,-0.058654785,-0.2935028,-0.3583374,-0.14320374,-0.47965682,-0.38934326,1.1580001
1570715683,-1.6280518,-10.517731,-0.0023956299,-0.25941467,-0.036621094,-0.06863403,-0.35461366,-0.52842236,1.4268222
1570715683,-1.5119324,-10.409393,0.1490326,-0.2935028,0.14979553,-0.028152466,-0.26301348,-0.42833328,1.5862362
1570715683,-1.5119324,-10.505753,0.30226135,-0.27859497,0.28189087,6.1035156E-4,-0.30243123,-0.47458172,1.7333777
1570715683,-1.4802094,-10.505157,0.42497253,-0.23065186,0.38735962,0.01979065,-0.19775522,-0.453866,1.9294221
1570715683,-1.3383636,-10.466248,0.070632935,-0.0016174316,0.618515,0.10713196,-0.06839585,-0.376441,1.7780503
1570715683,-1.2958679,-10.521317,-0.06404114,0.042053223,0.5684509,0.12844849,-0.041652918,-0.5245323,1.6097851
1570715683,-1.170166,-10.3980255,-0.4698639,0.116622925,0.1710968,0.1103363,0.07585418,-0.42506886,1.1482024
1570715683,-1.1127014,-10.488998,-0.549469,0.15922546,-0.4041443,0.0634613,0.22216356,-0.48678875,0.9150648
1570715683,-1.0959473,-10.49379,-0.5668335,0.16029358,-0.43395996,0.0634613,0.22216356,-0.48678875,0.9150648
1570715683,-0.97683716,-10.531494,-0.4842224,0.16349792,-0.67045593,0.025115967,0.3920622,-0.43191814,0.9842242
1570715683,-1.0019684,-10.716446,-0.31903076,0.15922546,-0.8408966,-0.051589966,0.42155516,-0.56930923,1.065364
1570715683,-1.0127411,-10.421967,-0.14065552,0.16668701,-0.82492065,-0.072891235,0.41450965,-0.43598557,1.1019883
1570715683,-1.0295105,-10.3315735,-0.0796051,0.14752197,-0.66192627,-0.0814209,0.39563572,-0.22045326,1.102549
1570715684,-1.4472961,-10.526703,-0.23703003,-0.01121521,-0.068573,-0.030288696,0.006822467,-0.3847437,0.88722837
1570715684,-1.6130981,-10.553635,-0.32740784,-0.054885864,0.097595215,-0.012176514,-0.22400308,-0.43951797,0.77978575
1570715684,-1.5592194,-10.515335,-0.3250122,-0.054885864,0.113586426,-0.010040283,-0.2314434,-0.42335987,0.8393173
1570715684,-1.4999695,-10.381256,-0.22026062,-0.04423523,0.15939331,0.009140015,-0.16778922,-0.32307148,0.89836264
1570715684,-1.6346436,-10.419571,-0.375885,-0.12838745,0.18281555,0.028305054,-0.24770308,-0.36539745,0.79418087
1570715684,-1.8848419,-10.761932,0.03352356,-0.19230652,0.039016724,0.08050537,-0.48824847,-0.6568146,1.2616191
1570715684,-1.861496,-10.760742,0.055664062,-0.17633057,0.034744263,0.08369446,-0.48824847,-0.6568146,1.2616191
1570715684,-1.493988,-10.460861,0.21427917,0.079330444,0.03262329,0.13696289,-0.11586785,-0.37246895,1.573575
1570715684,-1.2006989,-10.468643,-0.08558655,0.12408447,0.14553833,0.124176025,0.23435056,-0.37817,1.259192
1570715684,-1.1893158,-10.534485,-0.25198364,0.08892822,0.15405273,0.10180664,0.2748456,-0.44170094,1.0467327
1570715684,-1.3700867,-10.463257,-0.63386536,0.004776001,-0.034484863,-0.0015258789,0.21037066,-0.39640427,0.62159574
1570715684,-1.553833,-10.342957,-0.76135254,-0.027191162,-0.3934784,-0.0388031,-0.0466156,-0.32748127,0.44113338
1570715684,-1.5245056,-10.536285,-0.1490326,-0.025054932,-0.75567627,-0.037734985,-0.03382981,-0.44303703,0.88914
1570715684,-1.3341675,-10.4105835,0.08679199,-0.021865845,-0.61079407,-0.023895264,0.13194859,-0.31051254,1.2138656
1570715684,-1.3706818,-10.387238,0.14065552,-0.047424316,-0.47125244,-0.030288696,0.21516442,-0.27014732,1.2794787
1570715684,-1.5233154,-10.664368,0.0023956299,-0.12199402,-0.22091675,-0.02708435,0.06229949,-0.5607853,1.1845363
1570715684,-1.5364838,-10.492584,0.043701172,-0.1209259,-0.14527893,-0.0388031,0.043004036,-0.44712067,1.1923815
1570715684,-1.5873566,-10.481812,-0.1083374,-0.0847168,-0.23582458,-0.045196533,-0.043857217,-0.39224434,1.0998322
1570715684,-1.5005646,-10.39563,-0.048477173,-0.09643555,-0.30081177,-0.033477783,0.017031908,-0.2911682,1.1489613
1570715684,-1.5544281,-10.471634,0.004196167,-0.11454773,-0.4094696,-0.026016235,2.5558472E-4,-0.32387733,1.2036178
1570715684,-1.5849609,-10.405197,0.089782715,-0.006942749,-0.4840393,-0.026016235,-0.027326822,-0.2285738,1.2132791
1570715684,-1.4724274,-10.486008,0.126297,0.021820068,-0.3807068,0.018722534,0.04123068,-0.37932777,1.1596951
1570715684,-1.1073151,-10.466248,0.08798218,0.0068969727,-0.007858276,0.022979736,0.43062449,-0.28734303,1.0806401
1570715684,-1.256958,-10.536285,-0.34477234,-0.025054932,0.18069458,-0.018569946,0.31030297,-0.3476038,0.644672
1570715684,-1.3090363,-10.562027,-0.509964,-0.031448364,0.11784363,-0.05052185,0.19290078,-0.3456459,0.42188013
1570715684,-1.4000092,-10.602722,-0.683548,-0.028259277,-0.021713257,-0.0814209,0.1001544,-0.36573124,0.30531704
1570715684,-1.3617096,-10.382462,-0.57341003,-0.0974884,-0.2922821,-0.12615967,0.06350064,-0.10525322,0.29365402
1570715684,-1.1426392,-10.369293,0.050872803,-0.2146759,-0.3348999,-0.12615967,0.23892462,-0.2689886,0.9056345
1570715684,-1.1420288,-10.527298,0.123306274,-0.1720581,-0.2368927,-0.15704346,0.31915402,-0.1769085,1.1527668
1570715684,-1.2258301,-10.470444,-0.070632935,-0.18058777,-0.16018677,-0.17089844,0.14653182,-0.20770645,0.98300004
1570715684,-1.2862854,-10.525513,0.013168335,-0.22213745,-0.09414673,-0.14639282,0.029796124,-0.29528427,1.0523758
1570715684,-1.3682861,-10.177155,0.049087524,-0.123062134,0.08161926,-0.11444092,-0.09995508,0.085333824,1.2235111
1570715685,-1.5011597,-10.499771,-0.57580566,-0.0847168,0.28614807,-0.0345459,-0.3268118,-0.2748642,0.7125113
1570715685,-1.5508423,-10.484207,-0.588974,-0.08258057,0.29042053,-0.032409668,-0.3268118,-0.2748642,0.7125113
1570715685,-1.2868805,-10.465057,-0.64404297,-0.14756775,0.18920898,0.044281006,-0.16279566,-0.22606659,0.633407
1570715685,-0.6721649,-10.638031,-0.25138855,-0.10708618,0.49067688,0.138031,0.5007616,-0.33001423,1.0731279
1570715685,-0.6721649,-10.638031,-0.25138855,-0.10708618,0.49067688,0.138031,0.5007616,-0.33001423,1.0731279
1570715685,-0.043701172,-10.798447,-0.47465515,0.07081604,0.87950134,0.112457275,1.1267364,-0.5191746,0.9373865
1570715685,0.092178345,-10.818207,-0.6787567,0.08999634,0.85180664,0.08583069,1.2861575,-0.6393814,0.75575626
1570715685,-0.40641785,-10.51593,-1.0779877,0.093185425,0.113586426,-0.15811157,0.80175316,-0.18596268,0.28590405
1570715685,-0.40641785,-10.51593,-1.0779877,0.093185425,0.113586426,-0.15811157,0.80175316,-0.18596268,0.28590405
1570715685,-0.9211731,-10.53508,-1.3365631,0.046310425,0.0113220215,-0.11444092,0.17783892,-0.30590057,-0.046833396
1570715685,-0.8672943,-10.430344,-1.1869202,0.011154175,0.036880493,-0.09526062,0.12194824,-0.27934742,0.06213355
1570715685,-0.9104004,-10.486603,-1.0157471,0.015426636,0.15618896,-0.0345459,0.055860877,-0.27466202,0.25869083
1570715685,-0.588974,-10.5763855,-0.9044037,0.025009155,0.23182678,0.008071899,0.3823341,-0.31978607,0.41487765
1570715685,-0.588974,-10.5763855,-0.9044037,0.025009155,0.23182678,0.008071899,0.3823341,-0.31978607,0.41487765
1570715685,-0.5793915,-10.6631775,-0.6979065,0.042053223,0.13381958,-0.0079193115,0.37043405,-0.4220686,0.5481862
1570715685,-0.60513306,-10.633255,-0.68414307,0.046310425,0.11784363,-0.008972168,0.37675464,-0.39669514,0.5949148
1570715685,-0.6099243,-10.631454,-0.49620056,0.10916138,0.18814087,0.029373169,0.36411637,-0.37374783,0.75499594
1570715685,-0.5991516,-10.617081,-0.5009918,0.11129761,0.19667053,0.029373169,0.34783828,-0.36048317,0.74450517
1570715685,-0.58299255,-10.537476,-0.854126,0.14112854,0.2680359,0.010192871,0.37313467,-0.26294994,0.34107292
1570715685,-0.5985565,-10.523712,-0.8708954,0.13899231,0.2648468,0.011260986,0.33967936,-0.25111198,0.29641378
1570715685,-0.707489,-10.59314,-0.9313507,0.10597229,0.15299988,0.009140015,0.24153256,-0.28343582,0.21055496
1570715685,-0.76016235,-10.563812,-0.89723206,0.09425354,0.09654236,0.008071899,0.17256767,-0.24337578,0.1871661
1570715685,-0.74938965,-10.554245,-0.6781616,0.091049194,0.041137695,0.011260986,0.14221442,-0.23537254,0.33858955
1570715685,-0.8242035,-10.447098,-0.5913696,0.12408447,0.041137695,0.0155181885,0.07473719,-0.11624241,0.36987686
1570715685,-0.8451538,-10.463852,-0.63027954,0.12301636,0.03794861,0.021911621,0.08569813,-0.11623192,0.3185479
1570715685,-0.9828186,-10.507553,-0.73501587,0.102767944,0.0027923584,0.05067444,-0.055297315,-0.102072716,0.16670495
1570715685,-1.0115509,-10.476425,-0.78289795,0.09211731,-0.013183594,0.0592041,-0.085167825,-0.1238327,0.15832067
1570715685,-0.99539185,-10.546463,-0.581192,0.07081604,-0.025970459,0.065597534,-0.014892936,-0.16469002,0.21134728
1570715685,-0.89004517,-10.579376,-0.344162,0.08999634,0.03048706,0.07092285,0.072824955,-0.19407177,0.37635154
1570715685,-0.9534912,-10.490799,-0.46507263,0.07081604,0.015579224,0.044281006,0.10979998,-0.11022377,0.19187003
1570715685,-0.9534912,-10.490799,-0.46507263,0.07081604,0.015579224,0.044281006,0.10979998,-0.11022377,0.19187003
1570715685,-1.028305,-10.363907,-0.45729065,0.028198242,-0.06324768,0.026184082,0.02426207,0.03534603,0.18124038
1570715685,-1.2617493,-10.53389,-0.29748535,0.011154175,-0.28163147,0.011260986,-0.23579133,-0.14238167,0.30198872
1570715685,-1.391037,-10.576981,-0.23164368,0.016494751,-0.27204895,0.012329102,-0.29564226,-0.18906975,0.36467606
1570715686,-1.319809,-10.469849,-0.0023956299,0.009033203,-0.11225891,0.010192871,-0.25120747,-0.059952736,0.5225429
1570715686,-1.2946625,-10.487198,0.06225586,0.016494751,-0.06324768,0.011260986,-0.23725009,-0.055067062,0.5800445
1570715686,-1.3467407,-10.536285,-0.12390137,0.007965088,0.1434021,0.025115967,-0.25239182,-0.14352798,0.4397452
1570715686,-1.3467407,-10.536285,-0.12390137,0.007965088,0.1434021,0.025115967,-0.25239182,-0.14352798,0.4397452
1570715686,-1.3371582,-10.545258,-0.049087524,-0.015472412,0.15299988,0.01979065,-0.2529534,-0.110014915,0.4210183
1570715686,-1.3024445,-10.486603,-0.06225586,0.032470703,0.07522583,0.017654419,-0.17821097,-0.07410908,0.45337486
1570715686,-1.3024445,-10.486603,-0.06225586,0.032470703,0.07522583,0.017654419,-0.17821097,-0.07410908,0.45337486
1570715686,-1.2366028,-10.509949,-0.025741577,0.034591675,0.04006958,0.013397217,-0.08184457,-0.086369514,0.46060765
1570715686,-1.2060852,-10.4423065,-0.015563965,0.069747925,-0.036621094,0.005935669,-0.089990735,-0.031321526,0.42025524
1570715686,-1.2527618,-10.490189,-0.14245605,0.11236572,-0.16764832,0.016586304,-0.07671869,-0.024477005,0.20565781
1570715686,-1.2300262,-10.486603,-0.3321991,0.12088013,-0.26139832,0.011260986,-0.060596704,-0.00729084,0.07986209
1570715686,-1.2156525,-10.447098,-0.26815796,0.09638977,-0.3625946,0.0037994385,-0.055948973,-0.024525642,0.021901876
1570715686,-1.2671356,-10.458466,-0.25976562,0.07400513,-0.371109,-0.008972168,-0.09956372,-0.016911507,0.057390273
1570715686,-1.3126221,-10.45369,-0.15982056,0.039916992,-0.31359863,6.1035156E-4,-0.12694168,0.0030841827,0.033556506
1570715686,-1.3856506,-10.524918,-0.089782715,0.0143585205,-0.19322205,0.018722534,-0.16859508,-0.13925552,0.14160405
1570715686,-1.296463,-10.547058,0.08859253,-0.0048217773,0.074157715,0.037887573,-0.079140544,-0.10516453,0.22426274
1570715686,-1.3132172,-10.520721,-0.061050415,-0.025054932,0.21157837,0.042160034,-0.07955289,-0.08543301,0.18867077
1570715686,-1.3269806,-10.488998,-0.104141235,-0.038909912,0.2179718,0.042160034,-0.06356132,-0.08531666,0.13305216
1570715686,-1.4347229,-10.348343,-0.18675232,-0.08578491,0.14234924,0.034698486,-0.12687802,0.081765175,0.07348877
1570715686,-1.6202698,-10.447693,-0.080200195,-0.10708618,-0.034484863,0.05281067,-0.31761408,-0.087433815,0.18535842
1570715686,-1.6268616,-10.498581,0.22445679,-0.054885864,-0.17190552,0.08157349,-0.28703094,-0.0553751,0.39853334
1570715686,-1.42276,-10.439911,0.19812012,0.091049194,-0.20599365,0.13056946,-0.12718463,-0.032159805,0.3965947
1570715686,-1.3443451,-10.463257,0.099365234,0.102767944,-0.17723083,0.138031,0.024454832,-0.007771492,0.29859865
1570715686,-1.1647797,-10.55304,0.0059814453,0.104904175,-0.12184143,0.12844849,0.23201323,-0.054210663,0.123530604
1570715686,-0.9684601,-10.460266,-0.22865295,0.016494751,0.088012695,0.03895569,0.5236293,-0.061457634,-0.14672455
1570715686,-1.2665253,-10.547058,-0.030532837,-0.050628662,0.029418945,0.011260986,0.22194934,-0.07734203,-0.05772692
1570715686,-1.2665253,-10.547058,-0.030532837,-0.050628662,0.029418945,0.011260986,0.22194934,-0.07734203,-0.05772692
1570715686,-1.1390381,-10.703278,0.40701294,-0.06021118,0.11891174,0.009140015,0.2810707,-0.21279049,0.42945313
1570715686,-1.1031342,-10.640427,0.39505005,-0.03251648,0.2840271,-0.045196533,0.35178423,-0.25951195,0.54086375
1570715686,-1.7501678,-10.453079,0.34655762,-0.10708618,-0.04940796,-0.061172485,-0.3398137,-0.009268761,0.388529
1570715686,-1.7501678,-10.453079,0.34655762,-0.10708618,-0.04940796,-0.061172485,-0.3398137,-0.009268761,0.388529
1570715686,-1.3694763,-10.599136,0.70150757,0.17094421,0.07949829,0.061325073,-0.0578717,-0.20041084,1.0157642
1570715686,-1.3694763,-10.599136,0.70150757,0.17094421,0.07949829,0.061325073,-0.0578717,-0.20041084,1.0157642
1570715687,-0.9463043,-10.329788,-0.7475891,0.27215576,-0.07710266,0.020843506,0.4732648,0.08722401,-0.5882757
1570715687,-0.97024536,-10.341751,-0.87867737,0.25083923,-0.13356018,0.013397217,0.45632672,0.11391735,-0.68887347
1570715687,-1.1282654,-10.450684,-0.5530548,0.007965088,-0.4595337,-0.063308716,0.29723597,0.020775795,-0.8010338
1570715687,-1.4137726,-10.491394,0.1765747,-0.0655365,-0.24008179,-0.07821655,-0.005483389,-0.08713627,0.1168586
1570715687,-1.624466,-10.580582,0.2166748,-0.16033936,0.25952148,-0.012176514,-0.26482713,-0.11664772,0.20838322
1570715687,-1.6232758,-10.560226,0.23881531,-0.16461182,0.27975464,-0.0079193115,-0.26482713,-0.11664772,0.20838322
1570715687,-1.4634552,-10.666763,0.34895325,-0.16567993,0.49067688,0.03363037,-0.15891194,-0.2063713,0.40921754
1570715687,-1.1354523,-10.525513,0.31304932,-0.115600586,0.6451416,0.053878784,0.19602776,-0.15349865,0.47535914
1570715687,-1.059433,-10.469849,-0.2669525,-0.016540527,0.19560242,0.008071899,0.3648156,-0.013854027,-0.06022033
1570715687,-1.0390778,-10.526108,-0.27893066,5.0354004E-4,0.027297974,-0.010040283,0.34183538,-0.012265205,-0.051085934
1570715687,-1.1976929,-10.590744,-0.038909912,0.020751953,-0.30825806,-0.054779053,0.19252801,-0.10677147,0.11380224
1570715687,-1.490387,-10.523117,0.039505005,0.06655884,-0.32211304,-0.053710938,-0.08836579,-0.10203457,0.22094241
1570715687,-1.5592194,-10.552444,-0.0023956299,0.039916992,-0.099472046,0.014465332,-0.22865283,-0.09400368,0.05873236
1570715687,-1.5592194,-10.552444,-0.0023956299,0.039916992,-0.099472046,0.014465332,-0.22865283,-0.09400368,0.05873236
1570715687,-1.1863251,-10.445908,-0.08679199,-0.0016174316,0.15299988,0.029373169,0.10844159,-0.02229309,-0.01698701
1570715687,-1.2024841,-10.451294,-0.14305115,-0.0016174316,0.15512085,0.028305054,0.10844159,-0.02229309,-0.01698701
1570715687,-1.2036896,-10.459671,-0.3154297,-0.018661499,0.101867676,0.013397217,0.17526472,-0.020212173,-0.16274473
1570715687,-1.2737122,-10.479416,-0.29927063,-0.043167114,-0.014251709,-0.0079193115,0.08835471,-0.015945435,-0.20526972
1570715687,-1.3341675,-10.51413,0.004196167,-0.057022095,-0.09628296,-0.019622803,-0.012135267,-0.048391342,0.09195888
1570715687,-1.324585,-10.476425,0.018554688,-0.018661499,-0.03982544,0.005935669,-0.022259831,-0.023688316,0.16068152
1570715687,-1.324585,-10.476425,0.018554688,-0.018661499,-0.03982544,0.005935669,-0.022259831,-0.023688316,0.16068152
1570715687,-1.2198486,-10.57399,-0.017364502,-0.021865845,-0.031295776,0.005935669,0.12719393,-0.08992767,0.13082656
1570715687,-1.2198486,-10.57399,-0.017364502,-0.021865845,-0.031295776,0.005935669,0.12719393,-0.08992767,0.13082656
1570715687,-1.2485809,-10.458466,-0.07481384,-0.026123047,-0.054733276,-0.004714966,0.09590685,-0.029724121,0.07385673
1570715687,-1.3090363,-10.49379,0.0077819824,0.0037078857,-0.11972046,0.0016784668,0.049652576,-0.06107521,0.12315193
1570715687,-1.3090363,-10.49379,0.0077819824,0.0037078857,-0.11972046,0.0016784668,0.049652576,-0.06107521,0.12315193
1570715687,-1.2671356,-10.589554,-0.03831482,0.03353882,-0.07923889,-4.5776367E-4,0.033623576,-0.08531475,0.102189206
1570715687,-1.2749176,-10.559021,-0.108932495,0.036727905,-0.05580139,-0.0015258789,0.031808972,-0.057219505,0.014413632
1570715687,-1.2695312,-10.440521,-0.1490326,0.036727905,-0.050476074,-0.005783081,0.068214774,-0.016553879,-0.015904933
1570715687,-1.2790985,-10.480621,-0.1885376,0.018615723,-0.10267639,-0.014297485,-0.01642096,0.00244236,-0.09929993
1570715687,-1.2892761,-10.524307,-0.065841675,0.0143585205,-0.11651611,-0.010040283,0.033188462,-0.015254974,-0.047709636
1570715687,-1.2545624,-10.517136,-0.061050415,0.017547607,-0.03236389,-0.0068511963,0.06286073,0.0194273,-0.001554139
1570715687,-1.2527618,-10.521317,-0.12869263,-0.015472412,-0.0121154785,-0.011108398,0.043179274,-0.027523994,-0.081084244
1570715687,-1.320404,-10.485413,-0.1550293,-0.019729614,-0.013183594,-0.013244629,0.048475623,-0.031690598,-0.04679177
1570715687,-1.3293762,-10.532684,-0.0796051,-0.028259277,-0.022781372,-0.015365601,-0.0544734,-0.05440235,-0.018998623
1570715688,-1.2862854,-10.525513,5.950928E-4,0.018615723,0.029418945,-4.5776367E-4,0.02134037,-0.051032066,0.16469213
1570715688,-1.2862854,-10.525513,5.950928E-4,0.018615723,0.029418945,-4.5776367E-4,0.02134037,-0.051032066,0.16469213
1570715688,-1.2527618,-10.512939,-0.05986023,0.027145386,0.027297974,-0.0015258789,0.07968271,-0.022649765,0.027405836
1570715688,-1.2102661,-10.448303,-0.11013794,0.019683838,-0.03555298,-0.014297485,0.08380067,0.03920746,-0.06424974
1570715688,-1.3587036,-10.51474,-0.10354614,5.0354004E-4,-0.11332703,-0.017501831,-0.06478894,0.023849487,-0.08687119
1570715688,-1.3222046,-10.530304,-0.053268433,0.0026397705,-0.115448,-0.010040283,-0.08077443,0.0083293915,-0.020342007
1570715688,-1.3539276,-10.520721,-0.0023956299,-0.012268066,0.0038604736,-0.0015258789,-0.039233923,-0.042595863,0.044689614
1570715688,-1.3868408,-10.505753,-0.004196167,-0.015472412,0.0070495605,-4.5776367E-4,-0.039233923,-0.042595863,0.044689614
1570715688,-1.3617096,-10.547058,0.03591919,-0.019729614,0.07736206,0.0048675537,-0.08619797,-0.028989792,0.0825876
1570715688,-1.319809,-10.527298,0.07601929,-0.016540527,0.090148926,0.0048675537,-0.07863581,-0.03791237,0.09300111
1570715688,-1.3305817,-10.463257,0.02394104,0.0037078857,0.08694458,0.010192871,-0.034671307,-0.005337715,0.08456779
1570715688,-1.2868805,-10.469849,-0.0909729,0.004776001,0.036880493,0.007003784,-0.016257048,0.053874016,0.0040597916
1570715688,-1.2904816,-10.53389,-0.032318115,0.0015716553,-0.036621094,-0.0079193115,0.02248311,-0.025759697,-0.018921189
1570715688,-1.3186035,-10.537476,0.08319092,0.016494751,-0.06324768,-0.0068511963,-0.032093406,-0.0104904175,0.100826845
1570715688,-1.3186035,-10.537476,0.08319092,0.016494751,-0.06324768,-0.0068511963,-0.032093406,-0.0104904175,0.100826845
1570715688,-1.3239899,-10.47702,0.023345947,0.032470703,-0.048339844,-4.5776367E-4,-0.034968615,-6.1893463E-4,0.052720927
1570715688,-1.3353729,-10.505753,-0.017364502,0.022872925,-0.03555298,0.0016784668,-0.016071439,-0.015751839,-0.019378936
1570715688,-1.3239899,-10.506958,-0.011367798,0.021820068,-0.038757324,0.005935669,-0.037844658,0.0063648224,0.002255797
1570715688,-1.2838898,-10.503967,0.056869507,0.020751953,-0.03236389,0.018722534,-0.027209878,-0.019210815,-0.0041129203
1570715688,-1.1815338,-10.516525,0.09037781,0.019683838,0.009185791,0.021911621,0.11655557,8.8596344E-4,0.09765559
1570715688,-1.1845245,-10.452484,-0.16220093,-0.023986816,0.06777954,-0.0015258789,0.12572849,0.021857262,-0.07645134
1570715688,-1.3449402,-10.470444,-0.060455322,-0.076187134,0.0070495605,-0.004714966,-0.022439122,0.019399643,-0.07079937
1570715688,-1.312027,-10.47464,0.013763428,-0.07725525,-0.006790161,-0.0015258789,-0.0540334,0.018658638,-0.011235513
1570715688,-1.114502,-10.559021,0.25857544,0.040985107,0.12530518,0.013397217,0.21149158,-0.09956074,0.31362593
1570715688,-1.114502,-10.559021,0.25857544,0.040985107,0.12530518,0.013397217,0.21149158,-0.09956074,0.31362593
1570715688,-1.1965027,-10.465057,-0.061050415,-0.028259277,0.0017242432,-0.010040283,0.11432946,0.035653114,-0.10337228
1570715688,-1.2240295,-10.45668,-0.0861969,-0.031448364,-0.014251709,-0.010040283,0.11432946,0.035653114,-0.10337228
1570715688,-1.3102264,-10.5841675,0.14485168,-0.0090789795,-0.10479736,-0.015365601,0.035036564,-0.07039642,0.12531513
1570715688,-1.3617096,-10.393829,0.010772705,0.039916992,-0.085617065,0.0155181885,-0.12412417,0.054585457,0.0063772723
1570715688,-1.3617096,-10.393829,0.010772705,0.039916992,-0.085617065,0.0155181885,-0.12412417,0.054585457,0.0063772723
1570715688,-1.2216339,-10.527298,-0.07841492,0.038864136,-0.06964111,0.028305054,0.0323745,-0.022221565,-0.056254134
1570715688,-1.1234741,-10.523712,-0.046081543,-0.008010864,0.024093628,0.010192871,0.19028425,-0.050992966,-0.059635118
1570715688,-1.1803436,-10.500366,-0.09277344,-0.057022095,0.060317993,-0.0036468506,0.12444663,-0.015001297,-0.114044055
1570715689,-1.2958679,-10.584763,0.12748718,-0.07406616,0.05606079,-0.015365601,-0.008814931,-0.056756973,0.124267645
1570715689,-1.3395538,-10.542267,0.23643494,-0.051696777,0.0922699,-0.014297485,-0.05447793,-0.039035797,0.25970256
1570715689,-1.4048004,-10.558426,0.07421875,-0.0016174316,0.07949829,-0.0025787354,-0.09717476,0.007660866,0.13421783
1570715689,-1.3605042,-10.51413,-0.016159058,0.016494751,0.029418945,6.1035156E-4,-0.11280453,-0.0030937195,0.04361004
1570715689,-1.388031,-10.509949,-0.08081055,0.031402588,-0.068573,-4.5776367E-4,-0.09819746,0.017436981,-0.09197334
1570715689,-1.2922668,-10.503357,-0.044891357,0.051635742,-0.17936707,-0.0025787354,-0.013000131,-5.6648254E-4,-0.043308567
1570715689,-1.2940674,-10.478821,-0.15322876,0.040985107,-0.18469238,-0.0068511963,-0.02855444,-0.019076347,-0.16120446
1570715689,-1.2940674,-10.478821,-0.15322876,0.040985107,-0.18469238,-0.0068511963,-0.02855444,-0.019076347,-0.16120446
1570715689,-1.2587585,-10.527908,0.0077819824,-0.006942749,-0.046203613,-0.0068511963,0.038797736,-0.018262863,-0.014864575
1570715689,-1.2749176,-10.498581,0.061050415,-0.02079773,0.060317993,-0.005783081,0.012222409,-0.028710365,0.033839528
1570715689,-1.3305817,-10.522522,-0.01914978,-0.028259277,0.088012695,0.007003784,-0.06672585,0.008144379,0.02324555
1570715689,-1.3305817,-10.522522,-0.01914978,-0.028259277,0.088012695,0.007003784,-0.06672585,0.008144379,0.02324555
1570715689,-1.319809,-10.386047,-0.21247864,-0.0026855469,-0.056869507,-4.5776367E-4,-0.0013560057,0.10573673,-0.1634407
1570715689,-1.319809,-10.386047,-0.21247864,-0.0026855469,-0.056869507,-4.5776367E-4,-0.0013560057,0.10573673,-0.1634407
1570715689,-1.3048401,-10.565018,0.22984314,-0.0090789795,-0.06645203,0.007003784,-0.020915866,-0.06847763,0.1674316
1570715689,-1.3048401,-10.565018,0.22984314,-0.0090789795,-0.06645203,0.007003784,-0.020915866,-0.06847763,0.1674316
1570715689,-1.2593536,-10.516525,-0.13348389,-0.02079773,0.09654236,0.0016784668,0.042122364,-0.013877869,-0.08548156
1570715689,-1.2593536,-10.516525,-0.13348389,-0.02079773,0.09654236,0.0016784668,0.042122364,-0.013877869,-0.08548156
1570715689,-1.3784637,-10.515335,-0.084991455,-0.052749634,0.029418945,-0.010040283,-0.027797222,-0.02504921,-0.10091536
1570715689,-1.3335724,-10.465652,0.06703186,-0.033584595,0.0027923584,-0.011108398,-0.06902361,-0.012958527,0.12515315
1570715689,-1.4191589,-10.549454,-0.09516907,0.0058288574,-0.023834229,0.005935669,-0.092452526,-0.051467896,-0.03156648
1570715689,-1.2904816,-10.552444,0.026931763,0.0143585205,-0.03768921,0.009140015,0.01319778,-0.036097527,0.0645369
1570715689,-1.2904816,-10.552444,0.026931763,0.0143585205,-0.03768921,0.009140015,0.01319778,-0.036097527,0.0645369
1570715689,-1.3521271,-10.486008,-0.15441895,0.004776001,-0.01638794,-0.012176514,-0.0027034283,0.01203537,-0.1407152
1570715689,-1.3317719,-10.499771,-0.19093323,0.0026397705,-0.021713257,-0.014297485,-0.0027034283,0.01203537,-0.1407152
1570715689,-1.4293365,-10.450684,0.05506897,-0.0048217773,-0.064315796,-0.0068511963,-0.10438323,0.05085659,0.02277474
1570715689,-1.4293365,-10.450684,0.05506897,-0.0048217773,-0.064315796,-0.0068511963,-0.10438323,0.05085659,0.02277474
1570715689,-1.4281464,-10.516525,-0.019744873,-0.0026855469,0.017700195,0.009140015,-0.128376,-0.027279854,-0.022864837
1570715689,-1.3036499,-10.546463,-0.013168335,-0.0058898926,0.057113647,0.009140015,0.044351816,-0.03959179,0.041357826
1570715689,-1.3036499,-10.546463,-0.013168335,-0.0058898926,0.057113647,0.009140015,0.044351816,-0.03959179,0.041357826
1570715689,-1.2180481,-10.483612,-0.056259155,-0.013336182,0.078430176,-0.017501831,0.10266566,0.030380249,0.05034523
1570715689,-1.2605438,-10.512344,-0.08798218,-0.02079773,0.059249878,-0.019622803,0.05046606,0.02422142,-0.033406526
1570715689,-1.3461456,-10.465652,-0.07362366,-0.030380249,-0.0036010742,-0.021759033,-0.01945138,0.051421165,-0.01695906
1570715690,-1.4042053,-10.481216,0.046081543,-0.006942749,-0.050476074,-0.010040283,-0.110762954,0.017765999,0.102237746
1570715690,-1.3138123,-10.480026,0.06942749,0.021820068,-0.019577026,0.007003784,-0.045894742,0.039432526,0.112484895
1570715690,-1.3000488,-10.490799,-0.087387085,0.013290405,-0.050476074,0.007003784,-0.0063689947,0.0054512024,-0.06146333
1570715690,-1.3000488,-10.490799,-0.087387085,0.013290405,-0.050476074,0.007003784,-0.0063689947,0.0054512024,-0.06146333
1570715690,-1.2922668,-10.499771,-0.10115051,0.0068969727,-0.05580139,0.0048675537,0.076364994,0.03251171,-0.039495185
1570715690,-1.2527618,-10.532684,-0.006576538,-0.03251648,0.027297974,-0.004714966,0.053734303,-0.013561249,0.01474583
1570715690,-1.3072357,-10.55484,0.04309082,-0.043167114,0.07949829,-0.010040283,0.029547572,-0.037815094,0.08211394
1570715690,-1.3060303,-10.49678,0.0287323,-0.033584595,0.10398865,-0.0068511963,-0.0035260916,-0.00401783,0.08658732
1570715690,-1.2856903,-10.486603,0.017959595,-0.033584595,0.10079956,-0.0068511963,-0.0035260916,-0.00401783,0.08658732
1570715690,-1.2880859,-10.536285,-0.019744873,-0.035705566,0.07096863,-0.010040283,0.073215485,1.6212463E-4,0.06675084
1570715690,-1.3557129,-10.478821,-0.07362366,-0.015472412,-0.097335815,-0.015365601,-0.093910694,0.011974335,0.04013457
1570715690,-1.3557129,-10.478821,-0.07362366,-0.015472412,-0.097335815,-0.015365601,-0.093910694,0.011974335,0.04013457
1570715690,-1.2635345,-10.541077,0.06285095,0.027145386,-0.10479736,0.0037994385,0.0038044453,-0.0061588287,0.14077324
1570715690,-1.2635345,-10.541077,0.06285095,0.027145386,-0.10479736,0.0037994385,0.0038044453,-0.0061588287,0.14077324
1570715690,-1.1611938,-10.557831,-0.0688324,0.021820068,-0.017440796,6.1035156E-4,0.08282673,-0.029265404,9.91825E-4
1570715690,-1.193512,-10.517136,-0.12869263,0.019683838,-0.011062622,-0.0068511963,0.09795928,-0.022698402,-0.058204148
1570715690,-1.3084259,-10.438721,-0.20051575,0.011154175,-0.07496643,-0.031341553,-0.040616512,0.03555298,-0.14124034
1570715690,-1.3341675,-10.41777,-0.16160583,0.0068969727,-0.08029175,-0.029220581,-0.019650936,0.061573982,-0.15741594
1570715690,-1.4514923,-10.49498,-0.073028564,-0.019729614,-0.097335815,-0.015365601,-0.16203606,0.032473564,0.015087884
1570715690,-1.3329773,-10.600327,-0.023345947,0.0068969727,0.019836426,0.0037994385,-0.0931344,-0.05370426,-0.0136182755
1570715690,-1.3329773,-10.600327,-0.023345947,0.0068969727,0.019836426,0.0037994385,-0.0931344,-0.05370426,-0.0136182755
1570715690,-1.249176,-10.487793,-0.13407898,-0.027191162,0.076293945,-0.013244629,0.019815207,0.03702259,-0.07829791
1570715690,-1.2503662,-10.478821,-0.20170593,-0.031448364,0.06990051,-0.015365601,0.019815207,0.03702259,-0.07829791
1570715690,-1.3940277,-10.507553,-0.025146484,-0.05595398,-0.02810669,-0.02708435,-0.09872019,-0.0058784485,-0.0019719154
1570715690,-1.3569183,-10.511139,0.028137207,-0.043167114,-0.038757324,-0.022827148,-0.13289726,-0.013391495,0.050540067
1570715690,-1.2820892,-10.507553,0.020355225,0.009033203,-0.015319824,-0.004714966,-0.028034568,0.032190323,0.12829511
1570715690,-1.2348022,-10.565613,-0.041305542,0.010101318,-0.0121154785,-0.005783081,0.029363155,-0.024655342,0.06978963
1570715690,-1.2120667,-10.483017,-0.10774231,0.0037078857,-0.05152893,-0.013244629,0.05593717,4.892349E-4,-0.027959764
1570715690,-1.2599487,-10.445908,-0.20111084,0.007965088,-0.24754333,-0.026016235,-0.025659919,0.047595978,-0.14125782
1570715690,-1.2659302,-10.506363,-0.2238617,0.007965088,-0.25286865,-0.02708435,-0.014858007,0.055371284,-0.1150453
1570715690,-1.3191986,-10.47464,-0.11013794,-0.0090789795,-0.25074768,-0.02708435,-0.051001906,-0.001496315,-0.038906306
1570715690,-1.3395538,-10.486008,-0.12210083,-0.013336182,-0.2454071,-0.024963379,-0.08597314,0.021217346,-0.059409298
1570715690,-1.3856506,-10.519531,-0.034118652,-0.035705566,-0.12823486,-0.011108398,-0.15227401,-0.03007698,-0.036728717
1570715691,-1.3395538,-10.55484,0.049682617,-0.038909912,0.025161743,0.018722534,-0.094527364,-0.04651642,0.11538279
1570715691,-1.3419495,-10.578186,0.12269592,-0.035705566,0.041137695,0.01979065,-0.08858657,-0.057837486,0.1406171
1570715691,-1.170166,-10.520721,0.01675415,-0.019729614,0.20625305,0.03363037,0.047112107,0.003118515,0.12800843
1570715691,-1.201889,-10.472839,0.018554688,-0.017608643,0.21157837,0.034698486,0.047112107,0.003118515,0.12800843
1570715691,-1.1845245,-10.476425,-0.1879425,-0.016540527,0.15618896,0.025115967,0.09266937,0.00774765,-0.060510553
1570715691,-1.1713562,-10.527908,-0.24481201,-0.01121521,0.021972656,0.008071899,0.09581399,0.018884659,-0.08434274
1570715691,-1.296463,-10.5728,0.0047912598,0.0058288574,-0.16871643,-0.020690918,0.021556973,-0.010562897,0.10347974
1570715691,-1.296463,-10.5728,0.0047912598,0.0058288574,-0.16871643,-0.020690918,0.021556973,-0.010562897,0.10347974
1570715691,-1.3371582,-10.541077,-0.022140503,0.030334473,-0.14527893,-0.016433716,-0.088521,-0.010678291,0.08419968
1570715691,-1.3569183,-10.496185,-0.09037781,0.054840088,-0.12823486,-0.0025787354,-0.10317373,0.04594326,0.0016657487
1570715691,-1.3569183,-10.496185,-0.09037781,0.054840088,-0.1303711,-0.004714966,-0.090593934,0.020070076,-0.028464258
1570715691,-1.296463,-10.458466,-0.11552429,0.06655884,-0.1303711,-4.5776367E-4,-0.072937846,0.056803703,-0.021467641
1570715691,-1.2665253,-10.506363,-0.18614197,0.060165405,-0.14421082,-0.0015258789,-0.009525776,0.017492294,-0.20698766
1570715691,-1.2976532,-10.512939,-0.22984314,0.03353882,-0.1580658,-0.0068511963,-0.010854602,0.033569336,-0.27311218
1570715691,-1.3227997,-10.488998,-0.13168335,-5.493164E-4,-0.14846802,-0.013244629,-0.038585186,0.02926445,-0.14728016
1570715691,-1.2384033,-10.47403,-0.0035858154,-0.018661499,-0.05366516,-0.013244629,-0.02614665,0.0072393417,0.008124499
1570715691,-1.1605835,-10.53508,0.11671448,-0.031448364,0.20306396,-0.0015258789,0.07613659,-0.019759178,0.1287837
1570715691,-1.1605835,-10.53508,0.11671448,-0.031448364,0.20306396,-0.0015258789,0.07613659,-0.019759178,0.1287837
1570715691,-1.1522064,-10.544067,0.0077819824,-0.015472412,0.25952148,0.0037994385,0.08413112,-0.0426445,0.06564869
1570715691,-1.1689758,-10.527298,-0.04069519,-0.006942749,0.22329712,0.002746582,0.08969581,-0.045866013,-0.003956642
1570715691,-1.154007,-10.465652,-0.08558655,-0.003753662,0.09547424,-0.004714966,0.09643674,0.0743494,0.015796974
1570715691,-1.1127014,-10.540466,-0.0071868896,0.013290405,0.031555176,-0.010040283,0.09593332,-0.019161224,0.017017547
1570715691,-1.1881256,-10.481216,-0.0688324,0.03565979,-0.040878296,-0.016433716,0.05336809,-0.012339592,0.013919599
1570715691,-1.3413544,-10.475235,-0.14604187,5.0354004E-4,-0.11651611,-0.017501831,-0.091585636,0.045981407,-0.0820613
1570715691,-1.3072357,-10.5368805,0.16220093,0.050582886,-0.031295776,0.020843506,-0.064300776,-0.013192177,0.15338293
1570715691,-1.3072357,-10.5368805,0.16220093,0.050582886,-0.031295776,0.020843506,-0.073007345,-0.022714615,0.1726157
1570715691,-1.2366028,-10.506958,-0.013763428,0.028198242,0.12635803,0.03895569,0.031538963,0.03262806,0.009319062
1570715691,-1.2384033,-10.428543,-0.14006042,0.0058288574,0.1434021,0.0315094,0.074337244,0.019973755,-0.07267686
1570715691,-1.2384033,-10.428543,-0.14006042,0.0058288574,0.1434021,0.0315094,0.074337244,0.019973755,-0.07267686
1570715691,-1.2605438,-10.45369,-0.03591919,-0.033584595,0.09654236,0.027236938,0.011181235,0.038056374,-0.086021565
1570715691,-1.2862854,-10.506958,0.10115051,-0.045303345,0.16471863,0.03895569,0.023907423,0.0025072098,0.16285163
1570715691,-1.2850952,-10.500366,0.11192322,-0.045303345,0.16471863,0.040023804,0.023907423,0.0025072098,0.16285163
1570715691,-1.2874756,-10.507553,0.025741577,-0.030380249,0.15512085,0.04748535,0.03022945,-0.008717537,0.0878988
1570715691,-1.2378082,-10.524307,-0.04069519,-0.019729614,0.10612488,0.03895569,0.037878394,-0.018274307,0.04353088
1570715692,-1.3311768,-10.548859,-0.06463623,-0.017608643,-0.04408264,6.1035156E-4,-0.029576778,-0.018827438,0.007902756
1570715692,-1.3311768,-10.548859,-0.06463623,-0.017608643,-0.04408264,6.1035156E-4,-0.029576778,-0.018827438,0.007902756
1570715692,-1.4018097,-10.438721,-0.029327393,0.029266357,-0.109054565,0.007003784,-0.06900048,0.037747383,0.03933695
1570715692,-1.3287811,-10.51474,-0.06524658,0.036727905,-0.097335815,0.018722534,-0.025143743,-0.003068924,-0.02635638
1570715692,-1.3186035,-10.528503,-0.09815979,0.004776001,-0.050476074,0.016586304,-0.01935196,-0.026504517,-0.06775389
1570715692,-1.3419495,-10.525513,-0.08439636,-0.013336182,-0.024902344,0.012329102,0.011599183,-0.0017347336,-0.026407309
1570715692,-1.3066406,-10.451889,0.0,-0.05381775,0.1306305,0.022979736,0.060029745,0.016555786,0.08636446
1570715692,-1.3066406,-10.451889,0.0,-0.05381775,0.1306305,0.022979736,0.060029745,0.016555786,0.08636446
1570715692,-1.3706818,-10.467453,-0.022140503,-0.045303345,0.101867676,0.030441284,0.001335144,0.024969101,0.08551976
1570715692,-1.1689758,-10.518921,0.0071868896,-0.016540527,0.048599243,0.0357666,0.17218733,0.005385399,0.13480745
1570715692,-1.0558472,-10.540466,0.04548645,-0.027191162,0.064575195,0.029373169,0.23771095,-0.040242195,0.13897684
1570715692,-1.0684052,-10.539276,0.013763428,-0.031448364,0.06777954,0.016586304,0.25355148,-0.022054672,0.13237083
1570715692,-1.2419891,-10.506958,-0.06225586,-0.019729614,0.03048706,6.1035156E-4,0.1681385,-0.037940025,0.056593284
1570715692,-1.2940674,-10.468048,0.022140503,0.0058288574,0.03262329,0.0016784668,0.008817792,0.032626152,0.07477713
1570715692,-1.3150177,-10.471039,-0.043701172,0.0068969727,0.04220581,0.002746582,0.020718694,0.03650379,0.0936514
1570715692,-1.3730774,-10.408188,-0.27952576,-0.017608643,0.07096863,-0.0036468506,-0.04373169,0.042933464,-0.17157978
1570715692,-1.3730774,-10.408188,-0.27952576,-0.017608643,0.07096863,-0.0036468506,-0.04373169,0.042933464,-0.17157978
1570715692,-1.419754,-10.490799,-0.05027771,-0.07299805,0.0688324,0.0048675537,-0.092442036,0.025010109,0.04913737
1570715692,-1.419754,-10.490799,-0.05027771,-0.07299805,0.0688324,0.0048675537,-0.092442036,0.025010109,0.04913737
1570715692,-1.4311371,-10.483612,-0.051467896,-0.061279297,0.16897583,0.021911621,-0.06300628,0.023838997,0.11141929
1570715692,-1.383255,-10.530899,-0.33818054,-0.050628662,0.12530518,0.016586304,0.006427884,-0.0034265518,-0.12560575
1570715692,-1.383255,-10.530899,-0.33818054,-0.050628662,0.12530518,0.016586304,0.006427884,-0.0034265518,-0.12560575
1570715692,-1.3952179,-10.512939,-0.33758545,-0.087905884,0.06777954,-0.022827148,-0.0024718046,-0.027846336,-0.07842192
1570715692,-1.3952179,-10.512939,-0.33758545,-0.087905884,0.06777954,-0.022827148,-0.0024718046,-0.027846336,-0.07842192
1570715692,-1.3539276,-10.528503,-0.17118835,-0.092163086,0.07522583,-0.023895264,-0.007174015,-0.034620285,0.09394309
1570715692,-1.4443054,-10.517136,-0.24241638,-0.054885864,0.15939331,-0.028152466,-0.09973717,-0.063144684,0.13424423
1570715692,-1.4443054,-10.517136,-0.24241638,-0.054885864,0.15939331,-0.028152466,-0.09973717,-0.063144684,0.13424423
1570715692,-1.435318,-10.463257,-0.29988098,0.0037078857,0.0017242432,-0.019622803,-0.11177361,0.04341221,0.096671104
1570715692,-1.3976135,-10.506363,-0.24182129,0.036727905,-0.04194641,-0.016433716,-0.08834255,0.030599594,0.081034034
1570715692,-1.3018494,-10.483612,-0.36631775,0.052703857,-0.05899048,-0.015365601,-3.7539005E-4,-0.025719643,-0.006455928
1570715692,-1.3892365,-10.447693,-0.59376526,0.004776001,-0.08456421,-0.028152466,-0.06209159,0.09033871,-0.21288663
1570715692,-1.3892365,-10.447693,-0.59376526,0.004776001,-0.08456421,-0.028152466,-0.06209159,0.09033871,-0.21288663
1570715692,-1.4401093,-10.421967,-0.46028137,-0.0058898926,-0.08668518,-0.022827148,-0.08619511,0.06029415,-0.15199277
1570715693,-1.3407593,-10.427353,-0.43634033,0.0026397705,0.085876465,-0.0015258789,-0.010958672,0.03750801,-0.12514985
1570715693,-1.2689209,-10.447098,-0.4985962,-0.0048217773,0.12635803,-0.005783081,0.052390456,0.040175438,-0.13044569
1570715693,-1.3838501,-10.501572,-0.5458832,-0.0655365,0.03794861,-0.029220581,-0.033632517,-0.014906883,-0.14848098
1570715693,-1.3838501,-10.501572,-0.5458832,-0.0655365,0.03794861,-0.029220581,-0.033632517,-0.014906883,-0.14848098
1570715693,-1.4868011,-10.494385,-0.32081604,-0.026123047,0.029418945,-0.014297485,-0.16384768,-0.015377045,0.088412136
1570715693,-1.4850006,-10.4578705,-0.3321991,-0.02293396,0.031555176,-0.014297485,-0.16384768,-0.015377045,0.088412136
1570715693,-1.3048401,-10.482407,-0.45729065,0.015426636,0.013442993,0.014465332,-0.011676669,0.015358925,-0.0021755993
1570715693,-1.3048401,-10.482407,-0.45729065,0.015426636,0.013442993,0.014465332,-0.011676669,0.015358925,-0.0021755993
1570715693,-1.3353729,-10.4895935,-0.61950684,-0.021865845,-0.03236389,-0.013244629,0.035525084,0.024528503,-0.23272288
1570715693,-1.3353729,-10.4895935,-0.61950684,-0.021865845,-0.03236389,-0.013244629,0.035525084,0.024528503,-0.23272288
1570715693,-1.4556732,-10.488998,-0.37528992,-0.015472412,0.015579224,-0.011108398,-0.14454508,-0.046643257,0.074790925
1570715693,-1.4556732,-10.488998,-0.37528992,-0.015472412,0.015579224,-0.011108398,-0.14454508,-0.046643257,0.074790925
1570715693,-1.3742676,-10.453079,-0.2855072,-0.01121521,0.08268738,0.009140015,-0.08914924,0.051156044,0.14866093
1570715693,-1.2222443,-10.4500885,-0.45310974,0.02607727,0.09547424,0.0155181885,0.07169056,0.015463829,0.064493984
1570715693,-1.256958,-10.435135,-0.557251,-0.0016174316,-0.09307861,-0.004714966,0.07312751,0.0079603195,-0.09366521
1570715693,-1.256958,-10.435135,-0.557251,-0.0016174316,-0.09307861,-0.004714966,0.07312751,0.0079603195,-0.09366521
1570715693,-1.319809,-10.423157,-0.4620819,0.0015716553,-0.13142395,-0.0068511963,0.018066764,0.031475067,-0.007954031
1570715694,-1.3700867,-10.450684,-0.46865845,0.011154175,-0.022781372,0.017654419,-0.08325231,-0.0033693314,0.017026782
1570715694,-1.3700867,-10.450684,-0.46865845,0.011154175,-0.022781372,0.017654419,-0.08325231,-0.0033693314,0.017026782
1570715694,-1.3862457,-10.430939,-0.43754578,0.01222229,-0.018508911,0.01979065,-0.08325231,-0.0033693314,0.017026782
1570715694,-1.3862457,-10.430939,-0.43754578,0.01222229,-0.018508911,0.01979065,-0.08325231,-0.0033693314,0.017026782
1570715694,-1.3862457,-10.430939,-0.43754578,0.01222229,-0.018508911,0.01979065,-0.08325231,-0.0033693314,0.017026782
1570715694,-1.3862457,-10.430939,-0.43754578,0.01222229,-0.018508911,0.01979065,-0.08325231,-0.0033693314,0.017026782
1570715694,-1.3862457,-10.430939,-0.43754578,0.01222229,-0.018508911,0.01979065,-0.08325231,-0.0033693314,0.017026782
1570715694,-1.3862457,-10.430939,-0.43754578,0.01222229,-0.018508911,0.01979065,-0.08325231,-0.0033693314,0.017026782
1570715694,-1.3862457,-10.430939,-0.43754578,0.01222229,-0.018508911,0.01979065,-0.08325231,-0.0033693314,0.017026782
1570715694,-1.3694763,-10.465057,-0.42677307,0.011154175,-0.007858276,0.020843506,-0.054175615,0.038993835,-0.021805167
1570715694,-1.3694763,-10.465057,-0.42677307,0.011154175,-0.007858276,0.020843506,-0.054175615,0.038993835,-0.021805167
1570715694,-1.3748779,-10.433334,-0.39624023,0.010101318,-0.0046691895,0.01979065,-0.054175615,0.038993835,-0.021805167
1570715694,-1.3748779,-10.433334,-0.39624023,0.010101318,-0.0046691895,0.01979065,-0.054175615,0.038993835,-0.021805167
1570715694,-1.3748779,-10.433334,-0.39624023,0.010101318,-0.0046691895,0.01979065,-0.054175615,0.038993835,-0.021805167
1570715694,-1.3748779,-10.433334,-0.39624023,0.010101318,-0.0046691895,0.01979065,-0.054175615,0.038993835,-0.021805167
1570715694,-1.3748779,-10.433334,-0.39624023,0.010101318,-0.0046691895,0.01979065,-0.054175615,0.038993835,-0.021805167
1570715694,-1.3748779,-10.433334,-0.39624023,0.010101318,-0.0046691895,0.01979065,-0.054175615,0.038993835,-0.021805167
1570715694,-1.3748779,-10.433334,-0.39624023,0.010101318,-0.0046691895,0.01979065,-0.054175615,0.038993835,-0.021805167
1570715694,-1.3305817,-10.383057,-0.54766846,0.007965088,0.027297974,0.0315094,0.0021312237,0.034895897,-0.03337717
1570715694,-1.2713165,-10.45369,-0.6218872,0.0015716553,0.019836426,0.037887573,0.008002996,0.055049896,-0.10749948
1570715694,-1.2210388,-10.499771,-0.4411316,-0.010147095,0.031555176,0.04109192,0.13864183,-0.0233984,-0.043885887
1570715694,-1.225235,-10.517136,-0.4584961,0.0037078857,0.08375549,0.0315094,0.1643151,-0.06608677,0.018511713
1570715694,-1.1839294,-10.526703,-0.47045898,0.0015716553,0.10398865,0.01979065,0.16464078,-0.07940197,0.032886714
1570715694,-1.1875305,-10.430344,-0.4800415,5.0354004E-4,0.054992676,0.005935669,0.19644618,-0.027950287,-0.017708004
1570715694,-1.2743073,-10.461472,-0.49320984,0.0026397705,-0.071777344,-0.010040283,0.07687068,0.02427578,4.0739775E-5
1570715694,-1.3688812,-10.503967,-0.41360474,5.0354004E-4,-0.14421082,-0.012176514,-0.0478189,0.011382103,-0.0082497
1570715694,-1.3928223,-10.482407,-0.2675476,0.019683838,-0.10800171,0.011260986,-0.042052746,0.007041931,0.18484661
1570715694,-1.2862854,-10.493195,-0.3076477,0.03565979,-0.045150757,0.021911621,0.02794528,-0.01791668,0.117833376
1570715694,-1.1695709,-10.451294,-0.4925995,0.013290405,0.05178833,0.022979736,0.18309212,0.019937515,-0.12550783
1570715694,-1.1061249,-10.45488,-0.5303192,0.0058288574,0.043273926,0.020843506,0.23841989,0.03419876,-0.07518521
1570715694,-1.1444244,-10.496185,-0.40342712,-0.02079773,0.017700195,-4.5776367E-4,0.17827213,-0.028251648,4.2417645E-4
1570715694,-1.1444244,-10.496185,-0.40342712,-0.02079773,0.017700195,-4.5776367E-4,0.17827213,-0.028251648,4.2417645E-4
1570715694,-1.2539673,-10.544067,-0.34536743,-0.027191162,0.025161743,-0.0036468506,0.09890294,-0.07590008,0.070578665
1570715694,-1.3886414,-10.542267,-0.23643494,5.0354004E-4,0.017700195,0.0037994385,-0.019631743,-0.090969086,0.18078855
1570715694,-1.3886414,-10.542267,-0.23643494,5.0354004E-4,0.017700195,0.0037994385,-0.019631743,-0.090969086,0.18078855
1570715694,-1.2030792,-10.512939,-0.37049866,0.032470703,0.026229858,-0.005783081,0.11678004,0.008504868,0.05650851
1570715694,-1.2030792,-10.512939,-0.37049866,0.032470703,0.026229858,-0.005783081,0.11678004,0.008504868,0.05650851
1570715694,-1.3090363,-10.446503,-0.5129547,0.009033203,-0.11758423,-0.039871216,0.020815372,0.0043001175,-0.1272524
1570715694,-1.3443451,-10.459076,-0.46507263,0.0058288574,-0.13676453,-0.039871216,-0.009872675,0.026189804,-0.1338839
1570715694,-1.5089417,-10.498581,-0.38008118,0.0037078857,-0.17404175,-0.04093933,-0.15599573,0.02103138,-0.0025213957
1570715694,-1.5526428,-10.47403,-0.35853577,0.013290405,-0.15592957,-0.023895264,-0.25228322,0.0076828003,0.07397571
1570715694,-1.3610992,-10.441116,-0.39982605,0.03353882,0.017700195,0.011260986,-0.07470417,0.008378983,-0.029729933
1570715694,-1.3610992,-10.441116,-0.39982605,0.03353882,0.017700195,0.011260986,-0.07470417,0.008378983,-0.029729933
1570715694,-1.2378082,-10.432739,-0.57699585,0.0058288574,-0.036621094,-0.0025787354,0.08216202,0.061757088,-0.2603564
1570715694,-1.2527618,-10.4895935,-0.60154724,0.0026397705,-0.040878296,-0.005783081,0.08340073,0.04643345,-0.25153455
1570715694,-1.3617096,-10.503967,-0.29988098,-0.0048217773,-0.006790161,-0.008972168,-0.058680534,-0.02590847,0.04697776
1570715694,-1.3814545,-10.468048,-0.29748535,5.0354004E-4,0.0017242432,-0.005783081,-0.06528795,-0.0027952194,0.0522494
1570715694,-1.3389587,-10.517136,-0.34536743,0.0026397705,0.058181763,-4.5776367E-4,-0.027507782,0.0143117905,0.08204919
1570715694,-1.2892761,-10.453079,-0.331604,0.0068969727,0.06138611,6.1035156E-4,0.019410253,-0.021655083,0.06352252
1570715694,-1.2910767,-10.476425,-0.36631775,0.016494751,0.023025513,0.002746582,0.08053374,0.0016584396,-0.056322932
1570715695,-1.3389587,-10.500961,-0.32859802,0.025009155,-0.014251709,-0.014297485,-0.0049442053,-0.048461914,-0.009512544
1570715695,-1.3150177,-10.510544,-0.35253906,0.02394104,-0.013183594,-0.013244629,-0.041790962,-0.03190136,0.002278
1570715695,-1.3802643,-10.469238,-0.3830719,0.022872925,-0.029159546,-0.017501831,-0.026991963,-0.014892578,-0.010550529
1570715695,-1.4520874,-10.471634,-0.3549347,0.02394104,-0.06752014,-0.008972168,-0.15737116,0.05069256,-0.01872769
1570715695,-1.3575134,-10.47403,-0.26875305,0.04524231,-0.024902344,0.0048675537,-0.088552475,0.00839138,0.057180762
1570715695,-1.3048401,-10.49678,-0.38606262,0.021820068,0.060317993,0.009140015,-0.027916312,0.014763832,-0.09460583
1570715695,-1.3425446,-10.3980255,-0.38546753,0.011154175,0.023025513,0.0016784668,-0.030978203,0.03979206,-0.12007642
1570715695,-1.3413544,-10.426147,-0.30226135,0.004776001,-0.0046691895,6.1035156E-4,-0.05608642,0.040114403,-0.036797225
1570715695,-1.34375,-10.483017,-0.12031555,-0.0058898926,0.046463013,0.01979065,-0.04485929,-0.026159286,0.12783685
1570715695,-1.3383636,-10.488998,-0.14485168,-0.0048217773,0.07736206,0.025115967,-0.038062334,0.005839348,0.14122504
1570715695,-1.3078308,-10.498581,-0.16459656,0.010101318,0.11463928,0.025115967,-0.0041030645,0.0027370453,0.11027515
1570715695,-1.2653351,-10.511749,-0.29089355,0.011154175,0.08908081,0.011260986,0.072466135,-0.02022171,-0.010064423
1570715695,-1.2503662,-10.477631,-0.27293396,0.007965088,0.01876831,6.1035156E-4,0.04608333,-0.025422096,-0.013685018
1570715695,-1.3102264,-10.497971,-0.20649719,0.009033203,-0.033432007,-0.008972168,0.03384602,-0.02492714,0.10198408
1570715695,-1.4897919,-10.51413,-0.28071594,-0.003753662,-0.09095764,-4.5776367E-4,-0.10047591,-0.004084587,-0.0074831843
1570715695,-1.4897919,-10.51413,-0.28071594,-0.003753662,-0.09095764,-4.5776367E-4,-0.10047591,-0.004084587,-0.0074831843
1570715695,-1.3257904,-10.5290985,-0.25138855,0.007965088,0.039016724,0.014465332,0.024222493,-0.033385277,0.07246262
1570715695,-1.2575531,-10.500961,-0.26576233,-0.0026855469,0.10505676,0.012329102,0.113946795,-0.030373573,0.023896366
1570715695,-1.2425842,-10.486008,-0.2567749,-0.015472412,0.121032715,0.009140015,0.122051954,-0.02526474,-0.029164046
1570715695,-1.3652954,-10.510544,-0.25558472,-0.0090789795,-0.043014526,-0.010040283,0.012876272,-0.015048981,0.028990716
1570715695,-1.3509216,-10.45607,-0.21427917,-0.012268066,-0.04940796,-0.012176514,0.012876272,-0.015048981,0.028990716
1570715695,-1.3557129,-10.497971,-0.111328125,0.022872925,-0.046203613,-0.005783081,-0.020178318,0.0069913864,0.18537101
1570715695,-1.3383636,-10.473434,-0.38606262,0.03565979,-0.057922363,-0.004714966,0.010816336,-0.012486458,-0.11032842
1570715695,-1.3383636,-10.473434,-0.38606262,0.03565979,-0.057922363,-0.004714966,0.010816336,-0.012486458,-0.11032842
1570715695,-1.3521271,-10.515335,-0.23223877,0.0037078857,-0.043014526,-0.011108398,-0.056767106,0.0062437057,-0.05565816
1570715695,-1.3658905,-10.427948,-0.27952576,0.004776001,-0.03768921,-0.010040283,-0.056767106,0.0062437057,-0.05565816
1570715695,-1.3557129,-10.485413,-0.31843567,0.0037078857,0.023025513,6.1035156E-4,-0.052278996,0.019213676,-0.07511118
1570715695,-1.2994537,-10.471039,-0.23283386,-0.0048217773,0.025161743,0.0037994385,-7.315874E-4,-0.0067806244,0.01376681
1570715695,-1.3030396,-10.486603,-0.19631958,0.0026397705,0.021972656,-4.5776367E-4,0.01969552,-0.028741837,0.045739725
1570715695,-1.3174133,-10.520126,-0.24360657,0.015426636,-0.011062622,-0.0036468506,0.014137745,-0.027072906,0.05590211
1570715695,-1.3174133,-10.520126,-0.24360657,0.015426636,-0.011062622,-0.0036468506,0.014137745,-0.027072906,0.05590211
1570715695,-1.335968,-10.506363,-0.2561798,0.022872925,-0.03555298,-0.008972168,0.02462399,-0.016887665,-0.025687575
1570715696,-1.4083862,-10.466858,-0.23822021,0.0143585205,-0.057922363,0.0037994385,-0.060839295,0.049506187,-0.06736414
1570715696,-1.4083862,-10.466858,-0.23822021,0.0143585205,-0.057922363,0.0037994385,-0.060839295,0.049506187,-0.06736414
1570715696,-1.2922668,-10.488403,-0.22206116,-0.012268066,0.08055115,0.012329102,0.032247543,0.019909859,-0.06573787
1570715696,-1.2922668,-10.488403,-0.22206116,-0.012268066,0.08055115,0.012329102,0.032247543,0.019909859,-0.06573787
1570715696,-1.3736725,-10.47583,-0.34536743,-0.02079773,0.07736206,0.005935669,-0.01337862,0.011238098,-0.0088673085
1570715696,-1.375473,-10.488998,-0.2741394,-0.016540527,0.031555176,0.0048675537,-0.029428601,-0.0019426346,-0.021361694
1570715696,-1.2940674,-10.488403,-0.15322876,0.010101318,-0.017440796,0.007003784,0.061775327,-0.016399384,0.089238435
1570715696,-1.3012543,-10.488403,-0.15322876,0.010101318,-0.017440796,0.007003784,0.061775327,-0.016399384,0.089238435
1570715696,-1.3096313,-10.508148,-0.2238617,0.0058288574,-0.0121154785,0.002746582,0.05832362,0.017232895,0.022026852
1570715696,-1.3126221,-10.547058,-0.18914795,-0.003753662,-0.036621094,-4.5776367E-4,0.03332448,-0.034811974,0.036141545
1570715696,-1.2719269,-10.466858,-0.20350647,-0.0026855469,-0.008926392,0.002746582,0.02044797,0.009438515,0.057679668
1570715696,-1.3341675,-10.477631,-0.16520691,-0.0016174316,-0.0057373047,6.1035156E-4,0.02044797,0.009438515,0.057679668
1570715696,-1.2904816,-10.512939,-0.16160583,-5.493164E-4,0.012374878,6.1035156E-4,0.054669023,1.9836426E-4,0.06490938
1570715696,-1.3377533,-10.47702,-0.19572449,0.013290405,-0.007858276,-0.004714966,0.031025171,-0.01499939,-0.0048730522
1570715696,-1.3826447,-10.460266,-0.21966553,0.010101318,-0.10372925,-0.013244629,-0.040223956,0.030688286,-0.017298535
1570715696,-1.3826447,-10.460266,-0.21966553,0.010101318,-0.10372925,-0.013244629,-0.040223956,0.030688286,-0.017298535
1570715696,-1.375473,-10.443512,-0.2280426,-0.0026855469,-0.05899048,0.007003784,-0.038902998,0.05371666,-0.060397863
1570715696,-1.375473,-10.443512,-0.2280426,-0.0026855469,-0.05899048,0.007003784,-0.038902998,0.05371666,-0.060397863
1570715696,-1.2659302,-10.484802,-0.23643494,-0.035705566,0.09654236,0.011260986,0.08608794,-0.029931068,-0.029949412
1570715696,-1.2850952,-10.484802,-0.23643494,-0.035705566,0.09654236,0.011260986,0.08608794,-0.029931068,-0.029949412
1570715696,-1.2581482,-10.545853,-0.2238617,-0.03465271,0.08161926,0.005935669,0.093955636,-0.07147217,-2.8012693E-4
1570715696,-1.304245,-10.506363,-0.16938782,-0.018661499,0.029418945,-0.0015258789,0.05317962,-0.023777008,0.07854171
1570715696,-1.3407593,-10.502167,-0.13108826,-0.016540527,-0.031295776,-0.008972168,-0.01700437,-0.023638725,0.09988657
1570715696,-1.3485413,-10.442917,-0.14186096,0.0058288574,-0.09307861,-0.005783081,-0.086218715,0.026826859,0.11439523
1570715696,-1.3227997,-10.486008,-0.35075378,0.01222229,-0.056869507,0.002746582,-0.016633034,3.6239624E-5,-0.09145503
1570715696,-1.3449402,-10.487793,-0.38845825,0.0015716553,-0.046203613,6.1035156E-4,0.013005495,0.007162094,-0.14387883
1570715696,-1.367691,-10.424347,-0.31184387,-0.025054932,-0.017440796,0.008071899,-0.0144815445,0.013082504,-0.07257517
1570715696,-1.367691,-10.424347,-0.31184387,-0.025054932,-0.017440796,0.008071899,-0.0144815445,0.013082504,-0.07257517
1570715696,-1.2485809,-10.444702,-0.2849121,-0.051696777,0.12956238,0.016586304,0.07796395,-0.026507378,0.035513848
1570715696,-1.2665253,-10.484802,-0.25498962,-0.051696777,0.12956238,0.014465332,0.07796395,-0.026507378,0.035513848
1570715696,-1.2850952,-10.512939,-0.16879272,-0.038909912,-0.014251709,0.0037994385,0.03995073,-0.05449295,0.092416644
1570715696,-1.2850952,-10.512939,-0.16879272,-0.038909912,-0.014251709,0.0037994385,0.02710557,-0.044927597,0.12926468
1570715696,-1.3652954,-10.529694,-0.25019836,-0.012268066,-0.043014526,-0.0015258789,0.0128804445,-0.012999535,0.068388134
1570715696,-1.3652954,-10.529694,-0.25019836,-0.012268066,-0.043014526,-0.0015258789,0.0128804445,-0.012999535,0.068388134
1570715697,-1.4472961,-10.463852,-0.35253906,-0.012268066,-0.09414673,-0.0068511963,-0.09280658,0.04111767,-0.07237008
1570715697,-1.4245453,-10.424347,-0.31663513,-0.010147095,-0.0920105,-0.0079193115,-0.08989966,0.02330017,-0.061700106
1570715697,-1.4694366,-10.502167,-0.34596252,-0.038909912,0.045410156,0.0155181885,-0.11433053,0.018453598,-0.034893394
1570715697,-1.4694366,-10.502167,-0.34596252,-0.038909912,0.045410156,0.0155181885,-0.11433053,0.018453598,-0.034893394
1570715697,-1.3982086,-10.450684,-0.27233887,-0.025054932,0.113586426,0.027236938,-0.009380221,-0.006090164,0.04968956
1570715697,-1.3503265,-10.471039,-0.23522949,-0.018661499,0.10719299,0.026184082,-0.0057469606,-0.0038633347,0.08780208
1570715697,-1.3634949,-10.424957,-0.48960876,-0.003753662,-0.054733276,-0.0079193115,0.010062337,0.060546875,-0.058554113
1570715697,-1.3634949,-10.424957,-0.48960876,-0.003753662,-0.054733276,-0.0079193115,0.010062337,0.060546875,-0.058554113
1570715697,-1.4478912,-10.461472,-0.34835815,-5.493164E-4,-0.15167236,-0.016433716,-0.051709414,0.02383709,-0.017830104
1570715697,-1.4766235,-10.452484,-0.37409973,0.004776001,-0.0057373047,0.005935669,-0.11404753,0.0276165,-0.03632924
1570715697,-1.4766235,-10.452484,-0.37409973,0.004776001,-0.0057373047,0.005935669,-0.11404753,0.0276165,-0.03632924
1570715697,-1.4299316,-10.439911,-0.52552795,0.0058288574,0.05392456,0.014465332,-0.0077285767,0.0013332367,-0.16455194
1570715697,-1.3227997,-10.473434,-0.47225952,-0.0058898926,0.03794861,0.005935669,0.06303012,0.0097904205,-0.08852756
1570715697,-1.3150177,-10.470444,-0.33638,-0.012268066,0.039016724,0.0016784668,0.07816064,-0.0011777878,-0.0013041198
1570715697,-1.4401093,-10.512939,-0.36332703,-0.012268066,-0.0014648438,-0.008972168,-0.013424754,-0.026465416,0.014814705
1570715697,-1.5023651,-10.503967,-0.26994324,0.0037078857,-0.046203613,-0.0025787354,-0.073049664,-0.0032348633,0.0746434
1570715697,-1.367096,-10.527298,-0.2340393,0.027145386,0.015579224,0.008071899,0.033934593,-0.022039413,0.14866555
1570715697,-1.3946228,-10.527298,-0.2340393,0.027145386,0.015579224,0.008071899,0.033934593,-0.022039413,0.14866555
1570715697,-1.3539276,-10.447098,-0.46447754,0.03353882,0.028366089,0.0048675537,0.030578136,0.021264076,-0.08010313
1570715697,-1.4628601,-10.518326,-0.36271667,-0.003753662,-0.054733276,-0.0068511963,-0.06318307,0.0025186539,-0.04226762
1570715697,-1.4628601,-10.518326,-0.36271667,-0.003753662,-0.054733276,-0.0068511963,-0.06318307,0.0025186539,-0.04226762
1570715697,-1.42276,-10.490189,-0.20649719,0.011154175,0.023025513,0.0016784668,-0.042013407,-0.048527718,0.07574874
1570715697,-1.3964233,-10.465652,-0.39204407,0.0143585205,0.09120178,-4.5776367E-4,-0.01123786,0.009376526,-0.010604709
1570715697,-1.3892365,-10.492584,-0.36930847,0.028198242,-0.036621094,-0.005783081,0.016744733,0.02158165,-0.037765324
1570715697,-1.3892365,-10.492584,-0.36930847,0.028198242,-0.036621094,-0.005783081,0.016744733,0.02158165,-0.037765324
1570715697,-1.3647003,-10.506958,-0.32980347,0.028198242,-0.038757324,-0.012176514,0.0058374405,0.012895584,-0.018949151
1570715697,-1.3796539,-10.4895935,-0.3435669,0.02607727,-0.038757324,-0.015365601,0.008683324,1.5449524E-4,-0.0104031265
1570715697,-1.419754,-10.484802,-0.3327942,0.021820068,-0.023834229,-0.008972168,-0.04849589,-0.019927979,-0.059512228
1570715697,-1.4029999,-10.45607,-0.2340393,0.022872925,0.041137695,-0.0036468506,0.01131165,0.045228958,0.010389894
1570715697,-1.4029999,-10.45607,-0.2340393,0.022872925,0.041137695,-0.0036468506,0.01131165,0.045228958,0.010389894
1570715697,-1.3407593,-10.447693,-0.41958618,0.029266357,0.019836426,-0.0025787354,0.045313597,0.025309563,-0.106758595
1570715697,-1.3904266,-10.446503,-0.41299438,0.018615723,-0.03236389,-0.0079193115,0.020509362,0.025732994,-0.09185165
1570715697,-1.3736725,-10.481216,-0.33459473,0.0058288574,-0.05152893,-0.013244629,-0.019562602,0.0018758774,-0.09123847
1570715697,-1.4407043,-10.481812,-0.20231628,-5.493164E-4,-0.013183594,-0.0079193115,-0.08129883,0.0067691803,0.061492175
1570715698,-1.4191589,-10.492584,-0.25198364,0.009033203,0.041137695,0.007003784,-0.10018861,-0.01810646,0.029176742
1570715698,-1.4754333,-10.4895935,-0.24958801,0.007965088,0.04220581,0.009140015,-0.083395004,-0.0066337585,-0.008254886
1570715698,-1.3096313,-10.447693,-0.20469666,-0.0026855469,0.009185791,0.007003784,0.021156907,0.017514229,0.020605743
1570715698,-1.3096313,-10.447693,-0.20469666,-0.0026855469,0.009185791,0.007003784,0.021156907,0.017514229,0.020605743
1570715698,-1.2832947,-10.529694,-0.13287354,-0.012268066,0.0059814453,-0.0015258789,0.08304989,-0.048036575,0.07249212
1570715698,-1.3299866,-10.564423,-0.17118835,-0.012268066,0.009185791,-0.0036468506,0.116047144,-0.07375145,0.11411449
1570715698,-1.3748779,-10.526703,-0.120910645,-0.0048217773,0.014511108,-0.008972168,0.050618768,-0.042941093,0.15368897
1570715698,-1.4011993,-10.487198,-0.12689209,0.016494751,-0.009994507,-0.012176514,-0.00760448,-5.8555603E-4,0.14068374
1570715698,-1.411377,-10.47403,-0.15441895,0.02607727,-0.046203613,-0.0079193115,-0.04083252,0.023499489,0.040782392
1570715698,-1.3263855,-10.482407,-0.2561798,0.029266357,-0.06538391,-0.0079193115,0.011403918,0.026321411,-0.058220834
1570715698,-1.3425446,-10.443512,-0.3154297,0.02607727,-0.068573,-0.0068511963,0.011403918,0.026321411,-0.058220834
1570715698,-1.4407043,-10.491989,-0.23164368,-0.010147095,6.5612793E-4,-0.004714966,-0.03902626,-0.021122932,-0.039562374
1570715698,-1.4407043,-10.491989,-0.23164368,-0.010147095,6.5612793E-4,-0.004714966,-0.03902626,-0.021122932,-0.039562374
1570715698,-1.383255,-10.45607,-0.19572449,-0.0058898926,0.05606079,-0.0036468506,-0.025606155,0.0137729645,0.05998665
1570715698,-1.3365631,-10.527298,-0.17536926,5.0354004E-4,0.074157715,-0.0015258789,0.018292904,-0.03413391,0.08093627
1570715698,-1.2707214,-10.500366,-0.19572449,-0.003753662,0.045410156,-0.0036468506,0.06652677,-0.016853333,0.05484231
1570715698,-1.241394,-10.4895935,-0.23043823,0.017547607,-0.027038574,-0.014297485,0.11392307,-0.04536152,0.03336425
1570715698,-1.2378082,-10.493195,-0.14364624,0.015426636,-0.034484863,-0.020690918,0.08779895,-0.0015888214,0.062925726
1570715698,-1.280304,-10.516525,-0.165802,0.03565979,-0.031295776,-0.021759033,0.0371449,-0.046959877,0.029366791
1570715698,-1.4239502,-10.412384,-0.3722992,0.016494751,-0.064315796,-0.020690918,-0.105140686,0.044629097,-0.19536835
1570715698,-1.4407043,-10.412384,-0.3722992,0.016494751,-0.064315796,-0.020690918,-0.105140686,0.044629097,-0.19536835
1570715698,-1.4233551,-10.478821,-0.24301147,0.007965088,0.066711426,0.011260986,-0.086188674,0.037278175,-0.0059087873
1570715698,-1.4233551,-10.478821,-0.24301147,0.007965088,0.066711426,0.011260986,-0.086188674,0.037278175,-0.0059087873
1570715698,-1.2749176,-10.491394,-0.3423767,-0.010147095,0.14234924,0.007003784,0.04069197,-0.021183014,-0.12223114
1570715698,-1.2749176,-10.491394,-0.3423767,-0.010147095,0.14234924,0.007003784,0.04069197,-0.021183014,-0.12223114
1570715698,-1.3994141,-10.47464,-0.082595825,-0.006942749,-0.025970459,-0.012176514,-0.04531908,0.053593636,0.06317137
1570715698,-1.3994141,-10.47464,-0.082595825,-0.006942749,-0.025970459,-0.012176514,-0.04531908,0.053593636,0.06317137
1570715698,-1.3497314,-10.504562,-0.049682617,0.015426636,6.5612793E-4,0.0016784668,-0.014039516,0.0029706955,0.16162488
1570715698,-1.3982086,-10.494385,-0.27592468,0.0037078857,0.01876831,0.0016784668,-0.035113573,0.024840355,-0.04241903
1570715698,-1.3527222,-10.510544,-0.18255615,-0.0026855469,0.0059814453,0.005935669,-0.035017967,-0.0134830475,-0.037366793
1570715698,-1.3527222,-10.510544,-0.18255615,-0.0026855469,0.0059814453,0.005935669,-0.035017967,-0.0134830475,-0.037366793
1570715698,-1.3227997,-10.471039,-0.17597961,-0.003753662,0.05606079,0.009140015,0.031478405,-0.017819405,0.06105806
1570715698,-1.3048401,-10.484207,-0.19752502,-0.01121521,0.08694458,0.005935669,0.04914391,0.008099556,0.017646879
1570715699,-1.2665253,-10.491394,-0.10952759,-0.003753662,-0.01638794,-0.0015258789,0.01224184,-0.020693779,0.0780438
1570715699,-1.3012543,-10.521912,-0.13887024,-0.003753662,-0.018508911,-4.5776367E-4,0.01224184,-0.020693779,0.0780438
1570715699,-1.3012543,-10.502762,-0.14006042,0.004776001,-0.020645142,-0.0015258789,0.058230877,-0.0027103424,0.099662945
1570715699,-1.3652954,-10.53389,-0.2741394,0.0068969727,-0.054733276,-0.005783081,-0.014462113,0.0019226074,-0.049523503
1570715699,-1.3652954,-10.53389,-0.2741394,0.0068969727,-0.054733276,-0.005783081,-0.014462113,0.0019226074,-0.049523503
1570715699,-1.3365631,-10.449493,-0.23822021,-0.0016174316,-0.0121154785,0.0037994385,4.5204163E-4,0.01104641,-0.055995256
1570715699,-1.3401489,-10.483612,-0.2238617,-0.006942749,-0.007858276,0.0037994385,4.5204163E-4,0.01104641,-0.055995256
1570715699,-1.3347626,-10.510544,-0.28970337,-0.013336182,0.021972656,0.007003784,0.015072465,-0.027900696,-0.06968856
1570715699,-1.3916321,-10.485413,-0.25198364,-0.033584595,0.009185791,-0.0015258789,-0.0140475035,-0.02406025,-0.033885792
1570715699,-1.3916321,-10.485413,-0.25198364,-0.033584595,0.009185791,-0.0015258789,-0.0140475035,-0.02406025,-0.033885792
1570715699,-1.4419098,-10.486603,-0.108932495,-0.01121521,-0.0121154785,0.0037994385,-0.09693575,-0.029644966,0.17768982
1570715699,-1.3874359,-10.468048,-0.10235596,0.004776001,-3.9672852E-4,0.007003784,-0.03707671,-0.018708229,0.14961928
1570715699,-1.3024445,-10.47583,-0.2238617,0.021820068,0.0059814453,0.010192871,0.05164659,0.015013695,0.06517041
1570715699,-1.3215942,-10.505753,-0.34776306,0.021820068,-0.030227661,-0.0036468506,0.06449759,-0.026866913,-0.12879993
1570715699,-1.3473358,-10.483612,-0.27713013,0.007965088,-0.11437988,-0.016433716,-0.019389033,0.010209084,-0.11502893
1570715699,-1.4029999,-10.523712,-0.19332886,0.0058288574,-0.08668518,-0.010040283,-0.045944214,0.019005775,-0.019670233
1570715699,-1.4341278,-10.500366,-0.1592102,0.013290405,-0.002532959,-0.004714966,-0.075027585,-0.0063619614,0.045072496
1570715699,-1.4101868,-10.47702,-0.25079346,0.016494751,0.05178833,0.007003784,-0.029200673,0.01335907,-0.047607735
1570715699,-1.3024445,-10.515335,-0.31903076,0.01222229,0.021972656,0.0016784668,-0.01048553,0.009098053,-0.06660138
1570715699,-1.3239899,-10.472839,-0.24061584,0.016494751,-0.007858276,-0.005783081,0.01565504,0.0048742294,-0.03518918
1570715699,-1.3419495,-10.506958,-0.25019836,0.017547607,-0.033432007,-0.008972168,0.018427134,-0.032133102,-0.036991403
1570715699,-1.4101868,-10.498581,-0.1592102,0.020751953,-0.038757324,-0.014297485,-0.05218613,-0.015767097,-0.007962629
1570715699,-1.4000092,-10.523117,-0.17118835,0.027145386,-0.024902344,-0.010040283,-0.08412695,-0.015538216,0.08607735
1570715699,-1.4281464,-10.500961,-0.23164368,0.039916992,-0.018508911,-0.0036468506,-0.06636119,0.010877609,0.038135156
1570715699,-1.3796539,-10.468048,-0.24002075,0.027145386,-0.046203613,-0.012176514,-0.07183206,0.035470963,-0.11674182
1570715699,-1.398819,-10.478226,-0.24360657,0.028198242,-0.046203613,-0.0068511963,-0.088035464,-0.010595322,-0.057995513
1570715699,-1.3946228,-10.496185,-0.19631958,0.030334473,-0.025970459,-0.0036468506,-0.022369504,-0.05469036,-0.029224768
1570715699,-1.3257904,-10.47403,-0.1777649,0.021820068,0.025161743,-0.008972168,0.029129386,-0.0028305054,-0.02687125
1570715699,-1.3257904,-10.47403,-0.1777649,0.021820068,0.025161743,-0.008972168,0.029129386,-0.0028305054,-0.02687125
1570715699,-1.3413544,-10.487198,-0.034118652,0.03565979,-0.029159546,-0.021759033,-0.006647706,0.002568245,0.05252981
1570715699,-1.3413544,-10.487198,-0.034118652,0.03565979,-0.029159546,-0.021759033,-0.006647706,0.002568245,0.05252981
1570715699,-1.3168182,-10.523117,-0.07241821,0.03779602,-0.013183594,-0.013244629,-0.012625337,-0.01981926,0.13106272
1570715699,-1.312027,-10.548248,-0.0861969,0.040985107,0.019836426,-0.0015258789,-0.028297424,-0.029556274,-0.0014319569
1570715699,-1.3072357,-10.57399,-0.06524658,0.040985107,0.029418945,-0.0025787354,0.0022622347,-0.06333351,0.029740982
1570715700,-1.2503662,-10.506958,-0.056869507,0.039916992,0.08908081,-0.0015258789,0.043322325,-0.014034271,0.024399742
1570715700,-1.2814941,-10.509354,-0.15982056,0.030334473,0.09866333,-4.5776367E-4,0.065996766,0.06730938,-0.06470808
1570715700,-1.3407593,-10.495575,-0.16998291,0.025009155,0.05606079,-0.010040283,0.017361999,0.01302433,-0.12799178
1570715700,-1.391037,-10.45488,-0.08859253,0.0143585205,0.0027923584,-0.005783081,-0.07289529,0.022070885,-0.015623666
1570715700,-1.403595,-10.466858,0.0975647,0.007965088,0.05606079,0.012329102,-0.07652819,8.678436E-5,0.13177408
1570715700,-1.201889,-10.545258,-0.0287323,0.048446655,0.14872742,0.026184082,0.0756861,-0.047323227,0.07607248
1570715700,-1.2276306,-10.551849,-0.10594177,0.048446655,0.14872742,0.025115967,0.105169296,-0.06608009,0.037371263
1570715700,-1.1438293,-10.481812,-0.11671448,0.020751953,0.06777954,-0.011108398,0.15128303,0.02517128,-0.01161981
1570715700,-1.1438293,-10.481812,-0.11671448,0.020751953,0.06777954,-0.011108398,0.15128303,0.02517128,-0.01161981
1570715700,-1.3844452,-10.473434,0.01914978,-0.017608643,-0.04408264,-0.012176514,-0.08005345,0.0424366,0.063159145
1570715700,-1.3844452,-10.473434,0.01914978,-0.017608643,-0.04408264,-0.012176514,-0.08005345,0.0424366,0.063159145
1570715700,-1.34375,-10.513535,0.11192322,0.017547607,0.08908081,0.030441284,-0.025219321,-0.033307076,0.1180879
1570715700,-1.34375,-10.513535,0.11192322,0.017547607,0.08908081,0.030441284,-0.025219321,-0.033307076,0.1180879
1570715700,-1.2144623,-10.501572,-0.1197052,0.0015716553,0.17323303,0.024047852,0.13623679,-0.010375977,-0.034706138
1570715700,-1.2761078,-10.541077,-0.19093323,-0.0090789795,0.11891174,0.012329102,0.0850178,-0.023532867,-0.14850219
1570715700,-1.2976532,-10.519531,-0.065841675,-0.012268066,0.016647339,-0.0015258789,0.05025506,-0.008182526,-0.07637349
1570715700,-1.3186035,-10.494385,0.11431885,-0.008010864,0.074157715,0.0037994385,-0.014901519,0.0035305023,0.123089425
1570715700,-1.3311768,-10.490799,0.080200195,-0.0048217773,0.07522583,0.009140015,-0.014901519,0.0035305023,0.123089425
1570715700,-1.2054749,-10.498581,-0.1777649,0.021820068,0.05392456,0.0048675537,0.096093535,0.00228405,-0.07456525
1570715700,-1.2054749,-10.498581,-0.1777649,0.021820068,0.05392456,0.0048675537,0.096093535,0.00228405,-0.07456525
1570715700,-1.2431946,-10.512344,-0.0035858154,-0.031448364,0.04006958,-0.018569946,0.087552905,0.004579544,0.005230766
1570715700,-1.2880859,-10.511749,-0.01914978,-0.035705566,0.048599243,-0.018569946,0.057326317,-0.027748108,0.0679213
1570715700,-1.407196,-10.523117,0.016159058,-0.029312134,0.064575195,-0.012176514,-0.06466031,-0.016579628,0.07057595
1570715700,-1.3215942,-10.541672,0.011978149,0.010101318,0.0688324,0.016586304,-0.0059200525,-0.008766174,0.08938939
1570715700,-1.3215942,-10.541672,0.011978149,0.010101318,0.0688324,0.016586304,-0.0059200525,-0.008766174,0.08938939
1570715700,-1.2868805,-10.521317,-0.075424194,0.028198242,0.060317993,0.0155181885,0.04926598,-0.024333954,-0.0044662245
1570715700,-1.2695312,-10.523117,-0.16520691,0.03779602,-0.03236389,0.008071899,0.008473396,-0.031615257,-0.11521219
1570715700,-1.304245,-10.453079,-0.14485168,0.009033203,-0.08882141,-0.0036468506,-0.035892844,-0.007320404,-0.07352203
1570715700,-1.3551178,-10.51474,0.0035858154,-0.0048217773,-0.048339844,-0.0015258789,-0.054620028,0.026211739,-0.005410038
1570715700,-1.356308,-10.512344,0.022140503,0.0026397705,0.06777954,0.020843506,-0.051111102,-0.029127121,0.048115112
1570715700,-1.3521271,-10.504562,-0.0574646,0.0058288574,0.0922699,0.029373169,-0.006266594,0.0031194687,0.041867495
1570715700,-1.2210388,-10.529694,-0.101760864,-0.008010864,0.11251831,0.016586304,0.10244501,-0.026836395,-0.08061835
1570715700,-1.2779083,-10.547653,-0.116119385,-0.02079773,0.0688324,0.0037994385,0.05375576,-0.026902199,-0.076802425
1570715701,-1.3946228,-10.480026,0.056869507,0.0143585205,-0.006790161,0.0048675537,-0.03268051,-0.01129055,0.12633932
1570715701,-1.3946228,-10.480026,0.056869507,0.0143585205,-0.006790161,0.0048675537,-0.03268051,-0.01129055,0.12633932
1570715701,-1.319809,-10.493195,-0.0077819824,0.028198242,0.048599243,0.008071899,0.023860455,0.021740913,0.079539575
1570715701,-1.3168182,-10.420166,-0.11552429,0.02607727,0.008117676,0.008071899,0.01857698,0.021392822,-0.08159566
1570715701,-1.3078308,-10.448303,-0.17358398,0.028198242,-0.03555298,0.0037994385,0.027739048,0.05379486,-0.10258321
1570715701,-1.2515717,-10.47702,-0.09996033,0.036727905,-0.05580139,0.0016784668,0.07064891,0.030225754,-0.089029305
1570715701,-1.2132568,-10.508743,-0.13108826,0.027145386,-0.024902344,-0.0025787354,0.12578404,0.021112442,-0.09395298
1570715701,-1.1911163,-10.528503,-0.07720947,-0.014404297,0.062454224,-0.004714966,0.12069607,-0.053513527,-0.046231296
1570715701,-1.3054352,-10.513535,-0.044296265,-0.035705566,0.12635803,-4.5776367E-4,0.010755539,-0.005396843,0.0022438131
1570715701,-1.3054352,-10.513535,-0.044296265,-0.035705566,0.12635803,-4.5776367E-4,0.010755539,-0.005396843,0.0022438131
1570715701,-1.3485413,-10.523117,0.013763428,-0.028259277,0.15193176,0.007003784,0.0027765036,-0.07148743,0.11535677
1570715701,-1.3269806,-10.527908,-0.019744873,-0.010147095,0.14553833,0.007003784,-0.017472267,-0.055309296,0.12584832
1570715701,-1.3527222,-10.551849,-0.108932495,0.028198242,0.06990051,0.010192871,0.014407635,-0.021302223,0.025385462
1570715701,-1.356308,-10.393234,-0.19332886,0.036727905,-0.04194641,0.011260986,-0.02891469,0.076747894,-0.16092125
1570715701,-1.3377533,-10.5763855,-0.06404114,0.03779602,-0.03236389,0.016586304,0.010108829,-0.07439709,0.01625193
1570715701,-1.2701263,-10.537476,-0.11013794,0.029266357,0.05392456,0.016586304,0.028790593,-0.02769947,-0.038919274
1570715701,-1.4562683,-10.451294,-0.13586426,-0.021865845,0.045410156,0.0048675537,-0.11266971,0.036688805,-0.19993585
1570715701,-1.4562683,-10.451294,-0.13586426,-0.021865845,0.045410156,0.0048675537,-0.11266971,0.036688805,-0.19993585
1570715701,-1.4808197,-10.511139,0.08558655,-0.006942749,0.1199646,0.016586304,-0.11197591,-0.03100872,0.17070982
1570715701,-1.4550781,-10.540466,0.048477173,0.010101318,0.1625824,0.024047852,-0.05608225,0.0032682419,0.12358499
1570715701,-1.42276,-10.441711,-0.18075562,0.015426636,-3.9672852E-4,0.014465332,-0.037883997,0.055683136,-0.12756783
1570715701,-1.4167633,-10.437515,-0.18675232,0.013290405,-0.007858276,0.013397217,-0.03119719,0.05927372,-0.12134958
1570715701,-1.403595,-10.501572,0.060455322,0.011154175,0.06350708,0.010192871,6.529093E-4,-0.05273056,0.15883349
1570715701,-1.3982086,-10.49498,0.10295105,0.010101318,0.066711426,0.010192871,-0.0026808977,-0.005768776,0.09389831
1570715701,-1.4784241,-10.476425,-0.12509155,0.009033203,0.06138611,0.012329102,-0.03084135,0.011785507,-0.029117886
1570715701,-1.5083466,-10.470444,-0.09875488,0.007965088,-0.002532959,0.010192871,-0.07870269,0.039491653,-0.04465021
1570715701,-1.4311371,-10.495575,0.068237305,0.0026397705,0.034744263,0.018722534,-0.015451908,-0.010335922,0.09743567
1570715701,-1.3485413,-10.500961,0.07241821,0.019683838,0.1199646,0.025115967,0.08850217,-0.03634262,0.1819416
1570715701,-1.2988586,-10.517136,-0.14485168,0.01222229,0.10719299,0.007003784,0.13444304,0.017467499,-0.099944815
1570715701,-1.3748779,-10.51413,-0.018554688,-0.014404297,0.045410156,-0.010040283,0.010984898,-0.011803627,-0.05217665
1570715701,-1.4365234,-10.53569,0.07182312,-0.01121521,0.050735474,-0.012176514,0.016321898,-0.025287628,0.01728484
1570715701,-1.5508423,-10.428543,-0.059249878,0.018615723,0.062454224,6.1035156E-4,-0.12840402,0.031396866,-0.029125646
1570715701,-1.5287018,-10.424957,-0.042495728,0.019683838,0.060317993,-4.5776367E-4,-0.12840402,0.031396866,-0.029125646
1570715702,-1.4437103,-10.53508,-0.041305542,0.0026397705,0.101867676,0.010192871,-0.04272914,-0.02783966,0.015464082
1570715702,-1.4437103,-10.53508,-0.041305542,0.0026397705,0.101867676,0.010192871,-0.04272914,-0.02783966,0.015464082
1570715702,-1.3940277,-10.435135,-0.09815979,-0.0048217773,0.13168335,-4.5776367E-4,0.020947456,0.023448944,-0.035350114
1570715702,-1.490387,-10.45607,-0.028137207,-0.013336182,0.026229858,-0.013244629,-0.027175069,0.048822403,0.015289545
1570715702,-1.4688416,-10.427948,-0.01675415,-0.014404297,0.028366089,-0.010040283,-0.027175069,0.048822403,0.015289545
1570715702,-1.4688416,-10.480621,-0.0011901855,-0.0058898926,0.03794861,-0.005783081,-0.057706475,0.036889076,0.09815852
1570715702,-1.4646454,-10.53389,-0.06404114,0.019683838,0.07522583,0.002746582,-0.04666102,-0.005335808,0.046155483
1570715702,-1.4221497,-10.481216,-0.2166748,5.0354004E-4,0.05606079,-4.5776367E-4,-0.0017739534,0.040193558,-0.12745029
1570715702,-1.3850403,-10.506363,-0.044296265,-0.02293396,0.050735474,-0.017501831,0.022531748,-0.0406332,0.020367362
1570715702,-1.4401093,-10.488998,-0.0287323,-0.026123047,0.06564331,-0.014297485,-0.022974491,-1.4686584E-4,0.023468092
1570715702,-1.4634552,-10.509949,-0.05267334,-0.019729614,0.06564331,-0.008972168,-0.020160913,-0.012386322,0.057228953
1570715702,-1.3916321,-10.483017,-0.09635925,0.009033203,-0.0014648438,-0.014297485,0.04361713,-0.0038166046,8.2188845E-4
1570715702,-1.3916321,-10.483017,-0.09635925,0.009033203,-0.0014648438,-0.014297485,0.04361713,-0.0038166046,8.2188845E-4
1570715702,-1.383255,-10.480026,-0.12689209,0.01222229,-0.064315796,-0.02708435,0.016942382,0.004814148,-0.08309811
1570715702,-1.4137726,-10.475235,-0.108932495,0.0026397705,-0.068573,-0.030288696,-0.017376423,-0.008164406,-0.059894726
1570715702,-1.5047607,-10.448898,-0.019744873,-0.015472412,-0.014251709,-0.010040283,-0.08499169,0.046586037,0.0690569
1570715702,-1.5047607,-10.448898,-0.019744873,-0.015472412,-0.014251709,-0.010040283,-0.08499169,0.046586037,0.0690569
1570715702,-1.4556732,-10.447693,-0.08319092,-0.0026855469,-0.024902344,0.0016784668,-0.09032822,0.035199165,0.02628278
1570715702,-1.3024445,-10.505753,-0.11552429,0.020751953,-0.03768921,0.014465332,0.04670477,0.01486969,-0.034901127
1570715702,-1.2192535,-10.488998,-0.17237854,-0.0048217773,-0.04727173,0.002746582,0.14542377,-0.0028867722,-0.10759336
1570715702,-1.2132568,-10.512939,-0.11791992,-0.029312134,-0.034484863,-0.0079193115,0.15067756,-0.061813354,-0.05726262
1570715702,-1.3479309,-10.45369,-0.040100098,-0.021865845,-0.008926392,-0.016433716,0.042283297,-0.0189991,0.06392117
1570715702,-1.3730774,-10.493195,-0.1257019,0.013290405,-0.068573,-0.011108398,0.013229728,0.011972427,-0.0066663474
1570715702,-1.2934723,-10.487198,-0.16459656,0.029266357,-0.118652344,-0.011108398,0.046738386,0.01826477,-0.047901258
1570715702,-1.2928619,-10.51593,-0.11073303,0.034591675,-0.14208984,-0.014297485,0.07047403,-0.0069379807,-0.0352514
1570715702,-1.2749176,-10.51593,-0.15861511,0.020751953,-0.16018677,-0.011108398,0.063038945,-0.002163887,-0.08466701
1570715702,-1.2755127,-10.515335,-0.12390137,-0.0058898926,-0.13995361,-0.010040283,0.08054483,-0.0053310394,-0.060562484
1570715702,-1.2755127,-10.515335,-0.12390137,-0.0058898926,-0.13995361,-0.010040283,0.08054483,-0.0053310394,-0.060562484
1570715702,-1.2958679,-10.530899,-0.12031555,-0.016540527,-0.10372925,-0.0079193115,0.0451231,-0.04070282,-0.06756482
1570715702,-1.2922668,-10.51474,-0.018554688,-0.035705566,-0.038757324,0.002746582,0.035571218,-0.010052681,0.030097678
1570715702,-1.1965027,-10.565018,-0.0053863525,-0.027191162,0.059249878,0.013397217,0.08506012,-0.032697678,0.11612989
1570715702,-1.2162476,-10.530899,-0.053268433,-0.010147095,0.054992676,0.005935669,0.10427487,-0.0073976517,0.0076543763
1570715702,-1.1953125,-10.463257,-0.12449646,-0.008010864,-0.10267639,-0.020690918,0.1091156,0.012040138,-0.03013432
1570715702,-1.1953125,-10.463257,-0.12449646,-0.008010864,-0.10267639,-0.020690918,0.1091156,0.012040138,-0.03013432
1570715703,-1.3617096,-10.463852,-0.1149292,-0.008010864,-0.19108582,-0.03666687,-0.05815053,0.03467083,-0.020094901
1570715703,-1.3551178,-10.452484,-0.080200195,-0.006942749,-0.19215393,-0.0345459,-0.05815053,0.03467083,-0.020094901
1570715703,-1.3886414,-10.434525,-0.010177612,-0.0090789795,-0.16018677,-0.010040283,-0.043557525,0.065924644,0.06590233
1570715703,-1.2940674,-10.576981,-0.0143585205,-0.006942749,-0.06538391,0.008071899,0.009131789,-0.05719757,0.064853385
1570715703,-1.2192535,-10.534485,-0.025741577,-0.0048217773,-0.031295776,0.010192871,0.047705412,-0.03726864,0.020157322
1570715703,-1.1905212,-10.53508,-0.15742493,-0.0016174316,-0.013183594,-0.0015258789,0.13849032,0.014228821,-0.0804579
1570715703,-1.2384033,-10.508743,-0.17237854,-0.012268066,-0.07070923,-0.008972168,0.060498476,2.0694733E-4,-0.10916768
1570715703,-1.2898712,-10.526108,-0.14604187,-0.030380249,-0.10800171,-0.017501831,0.041742563,-0.031007767,-0.08229267
1570715703,-1.3180084,-10.509354,0.044296265,-0.021865845,-0.14634705,-0.019622803,-0.056720376,0.014466286,0.082786806
1570715703,-1.2366028,-10.578781,-0.046081543,5.0354004E-4,-0.05152893,-0.004714966,0.024056077,-0.030075073,0.07821615
1570715703,-1.217453,-10.532684,-0.053268433,-0.0016174316,-0.038757324,-0.0079193115,0.02560389,-0.059469223,0.058204398
1570715703,-1.2288208,-10.516525,-0.11791992,-0.01121521,-0.08029175,-0.022827148,0.038004637,-0.002456665,-0.0177465
1570715703,-1.2395935,-10.512344,-0.1376648,-0.013336182,-0.085617065,-0.024963379,0.008865595,-0.0010957718,0.0038942322
1570715703,-1.3413544,-10.433334,-0.07481384,-0.016540527,-0.17404175,-0.015365601,-0.09964907,0.040229797,-0.050816275
1570715703,-1.3467407,-10.4895935,-0.020950317,-0.0026855469,-0.17085266,-0.004714966,-0.12546444,0.020379066,0.08128151
1570715703,-1.2473755,-10.500366,-0.042495728,0.018615723,-0.08029175,0.007003784,-0.015052676,0.03717804,0.052716367
1570715703,-1.2030792,-10.484802,-0.30885315,-0.02079773,-0.022781372,-0.004714966,0.030720115,0.024621964,-0.23074928
1570715703,-1.2222443,-10.479416,-0.3136444,-0.025054932,-0.029159546,-0.0068511963,0.030720115,0.024621964,-0.23074928
1570715703,-1.3551178,-10.519531,-0.20709229,-0.03677368,-0.11651611,-0.014297485,-0.087444186,-0.0018024445,-0.17469528
1570715703,-1.3156128,-10.493195,0.046081543,-0.025054932,-0.030227661,-0.0025787354,-0.06024742,0.035345078,0.11957456
1570715703,-1.3138123,-10.493195,0.046081543,-0.025054932,-0.030227661,-0.0025787354,-0.06024742,0.035345078,0.11957456
1570715703,-1.3006439,-10.533295,-0.11073303,-0.02293396,-0.014251709,0.012329102,-0.050710917,-0.041381836,-0.0025329143
1570715703,-1.3006439,-10.533295,-0.11073303,-0.02293396,-0.014251709,0.012329102,-0.050710917,-0.041381836,-0.0025329143
1570715703,-1.2114716,-10.567413,-0.1149292,-5.493164E-4,-0.030227661,-0.0015258789,0.094794154,-0.021104813,0.05043386
1570715703,-1.2114716,-10.567413,-0.1149292,-5.493164E-4,-0.030227661,-0.0015258789,0.05829382,-0.053570747,0.026763909
1570715703,-1.2994537,-10.488998,0.016159058,0.004776001,-0.06324768,-0.004714966,-0.043684483,0.0294981,0.10044272
1570715703,-1.2994537,-10.488998,0.016159058,0.004776001,-0.06324768,-0.004714966,-0.043684483,0.0294981,0.10044272
1570715703,-1.3186035,-10.537476,-0.15982056,5.0354004E-4,-0.008926392,0.0016784668,-0.06701481,-0.028225899,-0.06865717
1570715703,-1.3078308,-10.553635,-0.1993103,-0.0016174316,-0.009994507,-0.0025787354,-0.040358067,-0.02205658,-0.053876907
1570715703,-1.3365631,-10.503967,-0.12928772,-0.015472412,-0.03555298,-0.0036468506,-0.069869995,0.012385368,-0.04401633
1570715703,-1.3545227,-10.499771,-0.14186096,-0.018661499,-0.034484863,-0.004714966,-0.069869995,0.012385368,-0.04401633
1570715703,-1.3347626,-10.532684,0.04788208,0.0015716553,0.0038604736,0.005935669,-0.09106326,-0.018227577,0.0926978
1570715703,-1.3347626,-10.532684,0.04788208,0.0015716553,0.0038604736,0.005935669,-0.09106326,-0.018227577,0.0926978
1570715704,-1.2832947,-10.521912,-0.02633667,0.004776001,0.060317993,0.009140015,-0.014533043,0.0068264008,0.077145524
1570715704,-1.3030396,-10.530899,-0.12808228,0.019683838,-0.023834229,0.0037994385,-0.02684462,0.012044907,-0.016946204
1570715704,-1.304245,-10.501572,-0.0909729,0.022872925,-0.029159546,0.0037994385,-0.02684462,0.012044907,-0.016946204
1570715704,-1.2868805,-10.503357,-0.11192322,0.016494751,-0.04194641,-0.0015258789,0.013159871,-0.017959595,-0.02459196
1570715704,-1.4048004,-10.464462,-0.1149292,-0.003753662,-0.021713257,-0.0068511963,-0.08356345,0.0057640076,-0.031127632
1570715704,-1.4048004,-10.464462,-0.1149292,-0.003753662,-0.021713257,-0.0068511963,-0.08356345,0.0057640076,-0.031127632
1570715704,-1.3724823,-10.515335,-0.09037781,0.0015716553,0.027297974,0.007003784,-0.110384464,-0.0052080154,0.052362613
1570715704,-1.3682861,-10.49498,-0.06463623,-0.0048217773,0.031555176,0.008071899,-0.110384464,-0.0052080154,0.052362613
1570715704,-1.383255,-10.47583,-0.08380127,-0.0026855469,0.06777954,0.005935669,-0.054777503,-1.4781952E-4,0.009552389
1570715704,-1.395813,-10.51474,-0.09516907,0.0058288574,0.014511108,0.0016784668,-0.06779742,0.01802826,0.027630992
1570715704,-1.395813,-10.51474,-0.09516907,0.0058288574,0.014511108,0.0016784668,-0.06779742,0.01802826,0.027630992
1570715704,-1.3449402,-10.481216,-0.11312866,0.018615723,-0.033432007,-0.0015258789,-0.03674245,0.021739006,0.023486637
1570715704,-1.356308,-10.494385,-0.11730957,0.011154175,-0.05366516,0.0016784668,-0.041745663,-0.01050663,-0.067167565
1570715704,-1.356308,-10.494385,-0.11730957,0.011154175,-0.05366516,0.0016784668,-0.041745663,-0.01050663,-0.067167565
1570715704,-1.3317719,-10.492584,-0.08679199,0.004776001,-0.036621094,-4.5776367E-4,-0.04120171,0.019007683,-0.018126845
1570715704,-1.3138123,-10.505753,-0.04309082,0.0026397705,0.004928589,-4.5776367E-4,-0.029328823,-0.0050764084,0.006130077
1570715704,-1.2713165,-10.468048,-0.120910645,-5.493164E-4,0.019836426,0.0037994385,-0.0074391365,0.017882347,-0.020393938
1570715704,-1.2719269,-10.504562,-0.027526855,0.010101318,0.023025513,0.009140015,0.037386894,0.0025920868,0.06942599
1570715704,-1.2395935,-10.462067,-0.09277344,0.01222229,0.031555176,6.1035156E-4,0.08558416,0.0077934265,-0.03845477
1570715704,-1.2395935,-10.462067,-0.09277344,0.01222229,0.031555176,6.1035156E-4,0.08558416,0.0077934265,-0.03845477
1570715704,-1.2366028,-10.45369,-0.16879272,0.0058288574,-0.0046691895,-0.008972168,0.077747345,-0.0011720657,-0.069701225
1570715704,-1.3174133,-10.513535,-0.04548645,0.0058288574,-0.038757324,-0.012176514,-0.011106133,-0.03058052,0.024182789
1570715704,-1.3820496,-10.475235,-0.03352356,-5.493164E-4,-0.011062622,-0.008972168,-0.053904653,0.040091515,0.027192362
1570715704,-1.324585,-10.565613,-0.0909729,0.013290405,0.060317993,0.005935669,-0.04291594,0.0015716553,0.013979524
1570715704,-1.3928223,-10.539276,-0.06285095,0.01222229,0.06138611,0.0048675537,-0.04291594,0.0015716553,0.013979524
1570715704,-1.3168182,-10.557236,-0.07720947,0.0037078857,0.058181763,0.0037994385,-3.0851364E-4,-0.02637291,-0.030649431
1570715704,-1.2838898,-10.563217,-0.118515015,0.010101318,0.039016724,-0.004714966,-0.009752512,-0.023534775,0.0059124604
1570715704,-1.4329224,-10.49379,-0.07362366,0.0037078857,-0.03236389,-0.014297485,-0.102472425,0.026061058,0.0055295303
1570715704,-1.411377,-10.469238,-0.06643677,0.0037078857,-0.03768921,-0.012176514,-0.11121011,0.0018873215,-0.0074072406
1570715704,-1.4048004,-10.47583,-0.09277344,0.017547607,-0.023834229,0.0037994385,-0.09409559,-0.014913559,-0.030683648
1570715704,-1.4107819,-10.481812,-0.10295105,0.017547607,-0.024902344,0.0037994385,-0.098751426,0.036229134,-0.03832754
1570715704,-1.2856903,-10.524307,-0.05506897,0.028198242,-0.019577026,0.005935669,0.037703037,-0.02731514,-0.003379766
1570715704,-1.2617493,-10.525513,-0.03352356,0.028198242,-0.0046691895,0.005935669,0.03720963,-0.04688835,0.029388588
1570715705,-1.2348022,-10.518326,-0.07481384,0.029266357,-0.0014648438,-0.008972168,0.08530426,2.2220612E-4,-0.017018821
1570715705,-1.3425446,-10.51474,-0.0909729,0.02607727,-0.073913574,-0.013244629,0.013097167,-0.023280144,-0.11322549
1570715705,-1.3425446,-10.51474,-0.0909729,0.02607727,-0.073913574,-0.013244629,0.013097167,-0.023280144,-0.11322549
1570715705,-1.3293762,-10.477631,-0.14245605,0.019683838,-0.040878296,-0.014297485,0.007798314,0.01692772,-0.103108935
1570715705,-1.3329773,-10.464462,-0.14724731,0.017547607,-0.03768921,-0.012176514,-0.010772467,0.026965141,-0.12811688
1570715705,-1.4419098,-10.532089,0.046691895,5.0354004E-4,-0.05580139,-0.0025787354,-0.14217317,-0.034820557,0.03555254
1570715705,-1.4419098,-10.532089,0.046691895,5.0354004E-4,-0.05580139,-0.0025787354,-0.14217317,-0.034820557,0.03555254
1570715705,-1.4598694,-10.460861,0.025146484,0.013290405,-0.030227661,0.0048675537,-0.08192885,0.039256096,0.029495412
1570715705,-1.3802643,-10.53389,-0.08319092,-0.010147095,-0.04408264,0.016586304,-0.036968708,-1.9073486E-6,-0.052224778
1570715705,-1.3802643,-10.53389,-0.08319092,-0.010147095,-0.04408264,0.016586304,-0.036968708,-1.9073486E-6,-0.052224778
1570715705,-1.1737518,-10.4578705,-0.008972168,0.010101318,-0.019577026,0.017654419,0.14362955,0.022693634,-0.0033933194
1570715705,-1.1737518,-10.4578705,-0.008972168,0.010101318,-0.019577026,0.017654419,0.14362955,0.022693634,-0.0033933194
1570715705,-1.3892365,-10.563812,-0.10295105,-0.043167114,-0.03982544,0.0048675537,0.024268389,-0.041674614,-0.13267776
1570715705,-1.3892365,-10.563812,-0.10295105,-0.043167114,-0.03982544,0.0048675537,0.024268389,-0.041674614,-0.13267776
1570715705,-1.4125824,-10.504562,0.14425659,-0.047424316,-0.04194641,0.014465332,-0.026804328,0.007616043,0.14261003
1570715705,-1.3144226,-10.525513,0.24360657,-0.028259277,0.004928589,0.020843506,-0.004976988,-0.0069389343,0.26366895
1570715705,-1.2354126,-10.558426,0.058654785,-0.006942749,0.10398865,0.018722534,0.12605369,-0.018645287,0.06539653
1570715705,-1.1911163,-10.540466,-0.029327393,-0.016540527,0.07096863,0.014465332,0.094285846,-0.0529747,0.016113956
1570715705,-1.2324219,-10.505157,0.07122803,-0.0058898926,-0.04940796,-4.5776367E-4,0.10012293,-0.017576218,0.09634439
1570715705,-1.2234344,-10.500366,0.09635925,0.0015716553,-0.064315796,-0.0025787354,0.10712516,-8.125305E-4,0.14145905
1570715705,-1.3610992,-10.496185,0.011978149,0.020751953,-0.12504578,-0.0036468506,-0.022250652,0.0061616898,0.031696714
1570715705,-1.3610992,-10.496185,0.011978149,0.020751953,-0.12504578,-0.0036468506,-0.022250652,0.0061616898,0.031696714
1570715705,-1.351532,-10.498581,0.060455322,0.022872925,-0.15699768,0.0037994385,-0.05834961,0.013096809,0.0132249
1570715705,-1.3407593,-10.509949,0.07362366,0.017547607,-0.109054565,0.013397217,-0.022705436,0.034537315,0.0054258965
1570715705,-1.2814941,-10.550644,-0.008972168,-0.006942749,-0.033432007,0.017654419,0.020770192,-0.027539253,-0.046569586
1570715705,-1.1899109,-10.540466,0.10115051,-0.041030884,0.1306305,0.008071899,0.13943934,-0.028952599,0.09389448
1570715705,-1.1899109,-10.540466,0.10115051,-0.041030884,0.1306305,0.008071899,0.13943934,-0.028952599,0.09389448
1570715705,-1.2629395,-10.515335,0.0796051,-0.037841797,0.097595215,-0.0036468506,0.08217108,-0.027213097,0.06315254
1570715705,-1.2629395,-10.515335,0.0796051,-0.037841797,0.097595215,-0.0036468506,0.08217108,-0.027213097,0.06315254
1570715705,-1.2557526,-10.509354,0.10475159,-0.02293396,0.026229858,-0.010040283,0.045360565,0.007814407,0.10779622
1570715705,-1.3658905,-10.510544,-0.048477173,0.04951477,-0.08456421,-0.005783081,-0.06309509,0.025177956,0.034845382
1570715705,-1.3521271,-10.502762,-0.034713745,0.050582886,-0.08456421,0.007003784,-0.023994207,0.010782242,-0.08997055
1570715705,-1.3521271,-10.521912,-0.037109375,0.04951477,-0.08135986,0.007003784,-0.023994207,0.010782242,-0.08997055
1570715705,-1.3186035,-10.502762,-0.047286987,0.046310425,-0.036621094,-0.0015258789,0.015034795,0.0021324158,-0.10754684
1570715706,-1.4838104,-10.455475,-0.09397888,-0.037841797,-0.011062622,-0.012176514,-0.114996195,0.041872025,-0.21872868
1570715706,-1.4556732,-10.484802,-0.09397888,-0.037841797,-0.011062622,-0.012176514,-0.114996195,0.041872025,-0.21872868
1570715706,-1.4209595,-10.53389,0.11073303,-0.037841797,0.14767456,0.002746582,-0.049672246,-0.02498436,0.14653961
1570715706,-1.3946228,-10.520721,0.13825989,-0.041030884,0.1625824,0.0016784668,-0.049672246,-0.02498436,0.14653961
1570715706,-1.3353729,-10.424347,-0.0909729,-0.023986816,0.16897583,0.010192871,-0.030890346,0.011423111,-0.02928789
1570715706,-1.3353729,-10.424347,-0.0909729,-0.023986816,0.16897583,0.010192871,-0.030890346,0.011423111,-0.02928789
1570715706,-1.1953125,-10.55484,0.165802,0.022872925,6.5612793E-4,0.005935669,0.12273002,-0.046995163,0.20661804
1570715706,-1.18573,-10.553635,0.09277344,0.029266357,6.5612793E-4,0.009140015,0.12273002,-0.046995163,0.20661804
1570715706,-1.2312164,-10.491989,-0.15802002,0.04524231,-0.024902344,-0.004714966,0.10690987,0.04019451,-0.155456
1570715706,-1.2312164,-10.491989,-0.15802002,0.04524231,-0.024902344,-0.004714966,0.10690987,0.04019451,-0.155456
1570715706,-1.3341675,-10.469238,-0.17597961,0.0037078857,-0.05366516,-0.012176514,0.007686734,0.04218197,-0.1790688
1570715706,-1.482605,-10.494385,-0.05027771,-0.03677368,0.058181763,-0.011108398,-0.14391685,-0.020337105,-0.008207647
1570715706,-1.498764,-10.517731,-0.050872803,-0.037841797,0.064575195,-0.010040283,-0.14391685,-0.020337105,-0.008207647
1570715706,-1.490387,-10.495575,-0.024536133,-0.017608643,0.1625824,0.0048675537,-0.13830101,-0.011947632,0.07088211
1570715706,-1.490387,-10.495575,-0.024536133,-0.017608643,0.1625824,0.0048675537,-0.13830101,-0.011947632,0.07088211
1570715706,-1.5675964,-10.483612,-0.11073303,0.016494751,-0.03555298,0.005935669,-0.20448267,0.06517029,-0.08699006
1570715706,-1.5263062,-10.4973755,-0.12269592,0.020751953,-0.043014526,0.0048675537,-0.20448267,0.06517029,-0.08699006
1570715706,-1.4419098,-10.500366,-0.18435669,0.03565979,-0.08456421,0.0037994385,-0.07979643,0.027370453,-0.1194364
1570715706,-1.4556732,-10.463257,-0.19812012,0.03565979,-0.08668518,0.005935669,-0.053632855,0.01791668,-0.14701867
1570715706,-1.4580688,-10.550644,0.07720947,-0.0058898926,-0.043014526,0.0048675537,-0.035007,0.0020952225,0.07012575
1570715706,-1.4580688,-10.550644,0.07720947,-0.0058898926,-0.043014526,0.0048675537,-0.035007,0.0020952225,0.07012575
1570715706,-1.2820892,-10.549454,0.029327393,-0.008010864,0.19134521,0.010192871,0.08744264,-0.0057268143,0.1644386
1570715706,-1.332367,-10.478821,-0.17118835,-0.025054932,0.10292053,-0.014297485,0.031254888,0.044347763,-0.1586328
1570715706,-1.3215942,-10.438126,-0.19631958,-0.028259277,0.08694458,-0.011108398,0.042768598,0.031300545,-0.109570846
1570715706,-1.3605042,-10.512344,-0.09277344,-0.031448364,-0.034484863,-0.026016235,0.015545845,0.02127266,-0.06169773
1570715706,-1.3036499,-10.5763855,0.04548645,0.04951477,-0.034484863,-0.0015258789,0.068485975,-0.08568287,0.1898346
1570715706,-1.2958679,-10.532089,0.034118652,0.050582886,-0.02810669,-0.0015258789,0.068485975,-0.08568287,0.1898346
1570715706,-1.3712769,-10.457275,-0.3136444,0.0058288574,-0.08029175,-0.016433716,-0.017253876,0.043798447,-0.25643554
1570715706,-1.4000092,-10.499176,0.01675415,-0.014404297,-0.10800171,-0.013244629,-0.054424286,-0.025688171,0.036927257
1570715706,-1.4048004,-10.508743,5.950928E-4,-0.01121521,-0.10054016,-0.011108398,-0.054424286,-0.025688171,0.036927257
1570715706,-1.3389587,-10.472244,0.017364502,-0.008010864,0.07736206,0.008071899,0.011700511,0.009181976,0.11391907
1570715706,-1.3389587,-10.472244,0.017364502,-0.008010864,0.07736206,0.008071899,0.011700511,0.009181976,0.11391907
1570715706,-1.3712769,-10.523117,-0.12150574,-5.493164E-4,0.074157715,0.0048675537,-0.011427641,-0.035266876,-0.034282766
1570715707,-1.3227997,-10.437515,-0.12689209,-0.0026855469,-0.045150757,-0.0068511963,0.03301561,0.016929626,-0.08846572
1570715707,-1.4808197,-10.515335,-0.09576416,-0.018661499,-0.26245117,-0.03666687,-0.07811391,0.0060739517,-0.04516965
1570715707,-1.4808197,-10.515335,-0.09576416,-0.018661499,-0.26245117,-0.03666687,-0.07811391,0.0060739517,-0.04516965
1570715707,-1.5023651,-10.332184,-0.108932495,-0.039978027,-0.29016113,-0.015365601,-0.19659829,0.14481449,-0.07895002
1570715707,-1.3305817,-10.390244,0.19992065,-0.050628662,-0.19854736,0.024047852,-0.020019889,0.041321754,0.20217353
1570715707,-1.067215,-10.798447,0.48303223,-0.030380249,0.008117676,0.055999756,0.16783798,-0.11164284,0.41748145
1570715707,-0.7553711,-10.639236,0.34655762,0.01222229,0.4129181,0.06665039,0.5703486,-0.23464489,0.48504424
1570715707,-0.84036255,-10.63385,-0.15681458,-0.09536743,0.59721375,0.01979065,0.64180934,-0.121562004,0.010856524
1570715707,-1.0785828,-10.502762,-0.13887024,-0.03677368,0.07949829,-0.04626465,0.34485912,-0.01632595,0.063910946
1570715707,-1.10672,-10.469849,-0.13467407,-0.035705566,0.060317993,-0.051589966,0.34485912,-0.01632595,0.063910946
1570715707,-1.5406647,-10.389038,-0.2926941,-5.493164E-4,-0.1665802,-0.07395935,-0.10956192,0.08674145,-0.07778287
1570715707,-2.0135193,-10.319611,-0.38845825,-0.033584595,-0.55326843,-0.029220581,-0.7046282,0.1808281,-0.37095034
1570715707,-1.7339935,-10.322601,0.101760864,0.040985107,-0.55007935,-0.016433716,-0.5474589,0.18883896,0.108868256
1570715707,-1.4431,-10.876862,-0.075424194,0.14857483,-0.06538391,0.058135986,-0.19122875,-0.30946732,0.08834858
1570715707,-1.3257904,-10.806824,-0.20291138,0.11236572,0.07096863,0.07411194,-0.040565014,-0.33480453,-0.072479345
1570715707,-1.2294159,-10.486008,-0.53749084,-0.062347412,0.4044037,0.04534912,0.16183531,0.020078659,-0.43287143
1570715707,-1.5352783,-10.686523,-0.56503296,-0.06021118,0.21903992,-0.0068511963,-0.0930599,-0.18854237,-0.39195114
1570715707,-1.5340881,-10.413574,0.15083313,-0.09643555,-0.06752014,-0.016433716,-0.22275257,0.086585045,0.20867743
1570715707,-1.5340881,-10.413574,0.15083313,-0.09643555,-0.06752014,-0.016433716,-0.22275257,0.086585045,0.20867743
1570715707,-1.035492,-10.559021,0.3830719,0.09211731,0.19348145,0.060272217,0.26755178,-0.07272148,0.5385021
1570715707,-0.99897766,-10.546463,0.3471527,0.09957886,0.20199585,0.058135986,0.26755178,-0.07272148,0.5385021
1570715707,-0.7733307,-10.475235,0.029922485,0.16242981,0.25526428,0.0634613,0.55737865,-0.010465622,0.24988756
1570715707,-0.6715698,-10.472839,-0.47883606,0.10064697,0.16897583,0.027236938,0.7323966,0.019644737,-0.30702204
1570715707,-1.0917511,-10.43573,-0.8044586,-0.019729614,-0.2368927,-0.0622406,0.35404932,0.022582054,-0.7049032
1570715707,-1.8058319,-10.459076,-0.44592285,-0.057022095,-0.6416931,-0.13467407,-0.40872264,0.037898064,-0.36490357
1570715707,-2.2702942,-10.527908,-0.10055542,-0.064468384,-0.5756531,-0.12722778,-0.90864944,-0.044816017,-0.11237363
1570715707,-2.3205872,-10.540466,-0.034713745,-0.049560547,-0.50001526,-0.110183716,-1.0308638,-0.052477837,0.03330814
1570715707,-2.0171204,-10.538086,0.03831482,0.13685608,-0.014251709,0.018722534,-0.8184526,-0.06513691,0.14367029
1570715707,-1.3365631,-10.405197,-0.47705078,0.15284729,0.17749023,0.05067444,-0.10172796,0.0924778,-0.40709049
1570715707,-1.3239899,-10.399811,-0.4878235,0.15284729,0.1710968,0.049606323,-0.10172796,0.0924778,-0.40709049
1570715707,-1.1976929,-10.440521,-0.7517853,0.08039856,-0.07496643,-4.5776367E-4,0.11513698,0.055773735,-0.77647066
1570715707,-1.2108612,-10.305237,-0.65182495,0.021820068,-0.2635193,-0.0345459,0.101228476,0.15385342,-0.7479865
1570715707,-1.2144623,-10.397415,0.046691895,-0.045303345,-0.35513306,-0.039871216,0.10078919,0.111652374,-0.11747471
1570715708,-1.0486603,-10.624268,0.46687317,-0.010147095,0.046463013,-0.004714966,0.19725358,-0.09599304,0.42025185
1570715708,-1.1234741,-10.638641,0.30885315,-0.03677368,0.2328949,0.007003784,0.19108713,-0.1425314,0.30168062
1570715708,-1.3886414,-10.610504,0.0287323,-0.11027527,0.38415527,0.010192871,-0.04913771,-0.13324547,0.067068614
1570715708,-1.3652954,-10.519531,0.31663513,-0.1166687,0.021972656,0.08476257,-0.15270686,0.03602791,0.2186343
1570715708,-1.249176,-10.546463,0.3866577,-0.115600586,0.012374878,0.08583069,-0.061059117,-0.011569023,0.37402448
1570715708,-0.69551086,-10.620682,0.8349762,-0.025054932,0.07096863,0.09754944,0.5264294,-0.08291435,0.9228206
1570715708,-0.44352722,-10.570999,0.2861023,0.11555481,0.21478271,0.046417236,0.89722264,-0.12502766,0.52272886
1570715708,-0.94451904,-10.472244,-0.1885376,-0.054885864,-0.060058594,-0.042007446,0.5622051,-0.009171486,-0.16890852
1570715708,-0.94451904,-10.472244,-0.1885376,-0.054885864,-0.060058594,-0.042007446,0.5622051,-0.009171486,-0.16890852
1570715708,-1.2892761,-10.536285,0.61531067,-0.03677368,-0.19108582,-0.051589966,0.088063,-0.049520493,0.69771206
1570715708,-1.3796539,-10.530899,0.19154358,0.10171509,0.13275146,0.002746582,-0.07482433,-0.039313316,0.33034834
1570715708,-1.3796539,-10.530899,0.19154358,0.10171509,0.13275146,0.002746582,-0.07482433,-0.039313316,0.33034834
1570715708,-1.3533173,-10.436325,-0.16340637,0.053771973,0.1391449,-0.012176514,-0.048615932,0.05057335,-0.11457689
1570715708,-1.3455353,-10.499771,-0.12150574,0.020751953,0.076293945,-0.023895264,-0.061804175,0.0046577454,-0.17033838
1570715708,-1.2216339,-10.495575,-0.101760864,0.020751953,0.048599243,-0.019622803,0.016930819,0.023058891,-0.04912142
1570715708,-1.1797485,-10.478226,-0.013763428,-0.0090789795,0.097595215,-0.020690918,0.06918204,0.015677452,-0.06301391
1570715708,-1.0726013,-10.527908,0.027526855,-0.027191162,0.20838928,-0.026016235,0.15018713,0.0039777756,0.10667318
1570715708,-1.3371582,-10.53389,-0.12748718,-0.06340027,0.22329712,-0.031341553,-0.031584263,-0.038516045,-0.0653755
1570715708,-1.3371582,-10.53389,-0.12748718,-0.06340027,0.22329712,-0.031341553,-0.031584263,-0.038516045,-0.0653755
1570715708,-1.3976135,-10.51413,-0.042495728,-0.059143066,0.17643738,-0.03666687,-0.1082499,-0.040445328,0.04160793
1570715708,-1.4886017,-10.540466,-0.06404114,-0.04849243,0.1434021,-0.03666687,-0.16918778,-0.040140152,0.072932445
1570715708,-1.6286621,-10.45668,-0.1663971,-0.030380249,0.07096863,-0.029220581,-0.3569821,0.043668747,-0.027467698
1570715708,-1.7250214,-10.427948,-0.28849792,0.029266357,-0.2049408,-0.005783081,-0.4527551,0.087530136,-0.14732
1570715708,-1.7064667,-10.440521,-0.26097107,0.042053223,-0.23582458,0.0037994385,-0.42349255,0.084739685,-0.14875418
1570715708,-1.5915527,-10.448898,-0.25378418,0.081466675,-0.32957458,0.013397217,-0.3322941,0.05604267,-0.17497548
1570715708,-1.4616547,-10.505157,-0.30166626,0.095321655,-0.32530212,0.017654419,-0.17501426,-0.010268211,-0.24030258
1570715708,-1.3365631,-10.580582,-0.4507141,0.036727905,-0.12609863,-4.5776367E-4,-0.01704359,-0.019129753,-0.38223377
1570715708,-1.4203644,-10.552444,-0.47644043,-0.017608643,-0.09840393,-0.015365601,-0.11265695,-0.06347942,-0.46348047
1570715708,-1.4664459,-10.5290985,-0.23703003,-0.019729614,-0.13676453,-0.029220581,-0.16555762,-0.018209457,-0.17377914
1570715708,-1.4766235,-10.502762,-0.21966553,-0.021865845,-0.13569641,-0.029220581,-0.15554309,-0.03241825,-0.11307798
1570715708,-1.490982,-10.447693,-0.1149292,-0.0048217773,-0.15592957,-0.04838562,-0.16510606,0.06798935,-0.054621518
1570715708,-1.490982,-10.447693,-0.1149292,-0.0048217773,-0.15592957,-0.04838562,-0.16510606,0.06798935,-0.054621518
1570715709,-1.2581482,-10.517731,0.08439636,0.0058288574,-0.27416992,-0.0388031,-0.054725885,-0.006834984,0.15285587
1570715709,-1.2581482,-10.517731,0.08439636,0.0058288574,-0.27416992,-0.0388031,-0.054725885,-0.006834984,0.15285587
1570715709,-1.1246796,-10.530899,0.19992065,0.022872925,-0.20599365,-0.033477783,0.10181129,0.018483162,0.23335738
1570715709,-1.1773529,-10.469238,0.09277344,-0.016540527,-0.0121154785,-0.016433716,0.033242345,0.07694054,0.07832764
1570715709,-1.1773529,-10.469238,0.09277344,-0.016540527,-0.0121154785,-0.016433716,0.033242345,0.07694054,0.07832764
1570715709,-1.1216888,-10.47583,0.1777649,-0.019729614,0.0027923584,-0.018569946,0.09934425,0.06567383,0.1359081
1570715709,-0.9900055,-10.578186,0.17059326,-0.0058898926,0.12530518,-0.039871216,0.20409918,-0.052640915,0.21225707
1570715709,-0.9798279,-10.559021,0.09576416,-0.008010864,0.1306305,-0.04093933,0.20409918,-0.052640915,0.21225707
1570715709,-1.1270752,-10.477631,0.053268433,-0.023986816,0.12635803,-0.0664978,0.064219,0.053839684,0.13006409
1570715709,-1.3808594,-10.422562,-0.073028564,-0.03465271,0.054992676,-0.0814209,-0.16687953,0.098361015,-0.001839906
1570715709,-1.6496124,-10.484207,-0.22265625,-0.023986816,-0.08668518,-0.10165405,-0.45781934,-0.016572952,-0.0751555
1570715709,-1.6496124,-10.484207,-0.22265625,-0.023986816,-0.08668518,-0.10165405,-0.45781934,-0.016572952,-0.0751555
1570715709,-1.3664856,-10.444702,-0.0071868896,0.039916992,0.08694458,-0.044128418,-0.3447479,0.15110874,-0.06990695
1570715709,-1.3048401,-10.579376,-0.0018005371,0.036727905,0.10612488,-0.045196533,-0.3447479,0.15110874,-0.06990695
1570715709,-1.2695312,-10.357315,0.0029907227,0.071884155,0.27337646,-0.010040283,-0.23475015,0.18400002,0.002019002
1570715709,-0.8918457,-10.263947,-0.09336853,0.08467102,0.30851746,0.06452942,0.17438555,0.19878387,-0.19993928
1570715709,-0.8918457,-10.263947,-0.09336853,0.08467102,0.30851746,0.06452942,0.17438555,0.19878387,-0.19993928
1570715709,-0.49499512,-10.724823,-0.10235596,0.15177917,0.48002625,0.05493164,0.5864562,-0.20643711,-0.06524214
1570715709,0.02154541,-10.596146,-0.56921387,0.09638977,0.5439453,-0.0079193115,1.1710021,0.05093479,-0.62558
1570715709,0.02154541,-10.596146,-0.56921387,0.09638977,0.5439453,-0.0079193115,1.1710021,0.05093479,-0.62558
1570715709,0.050872803,-9.94252,-0.68414307,0.04524231,0.44274902,-0.10165405,1.1571854,0.5051203,-0.7803135
1570715709,-0.675766,-10.720642,-0.9223633,-0.14329529,0.11784363,-0.18473816,0.39767838,-0.5065594,-1.0757383
1570715709,-0.99539185,-10.898407,0.20770264,-0.4650116,-0.05580139,-0.2422638,-0.03917861,-0.37502003,0.19711035
1570715709,-0.9516907,-10.63504,1.1827393,-0.5065613,0.31918335,-0.13360596,-0.16045213,-0.1311512,1.3253235
1570715709,-0.9516907,-10.63504,1.1827393,-0.5065613,0.31918335,-0.13360596,-0.16045213,-0.1311512,1.3253235
1570715709,0.13586426,-10.843933,1.4550781,0.10383606,0.38841248,0.026184082,0.9647085,-0.27275372,2.0000248
1570715709,0.13586426,-10.843933,1.4550781,0.10383606,0.38841248,0.026184082,0.9647085,-0.27275372,2.0000248
1570715709,-0.22685242,-10.610504,-0.6643982,0.41915894,-0.29016113,-0.045196533,0.61624354,-0.03319931,-0.39876637
1570715709,-0.22685242,-10.610504,-0.6643982,0.41915894,-0.29016113,-0.045196533,0.55521923,-0.074347496,-0.5013998
1570715709,-0.6937256,-10.742783,-0.8714905,0.307312,-0.77911377,-0.054779053,0.10653615,-0.18798637,-0.81720793
1570715709,-0.4441223,-10.682922,0.12988281,0.079330444,-0.44248962,-0.033477783,0.30448925,-0.15408707,0.08113192
1570715709,-0.83917236,-10.686523,0.0688324,-0.12519836,0.5130615,0.12312317,-0.069713295,-0.159688,0.224882
1570715709,-0.8846588,-10.641632,-0.0029907227,-0.13371277,0.54714966,0.12738037,-0.07377249,-0.12800026,0.10496582
1570715709,-0.74938965,-10.415375,0.2232666,-0.10708618,0.8177185,0.15614319,0.099176824,0.14237022,0.36439288
1570715710,-0.36990356,-11.014526,-0.22087097,-0.017608643,0.7058716,0.20088196,0.54973704,-0.359581,-0.16501336
1570715710,-0.26037598,-11.014526,-0.22087097,-0.017608643,0.7058716,0.20088196,0.54973704,-0.359581,-0.16501336
1570715710,-0.42677307,-10.375275,-0.67396545,0.0143585205,0.50239563,0.0868988,0.61589366,-0.11998844,-0.6156393
1570715710,-0.78289795,-10.768524,-0.3262024,-0.012268066,-0.24328613,-0.004714966,0.16952336,-0.20208931,-0.35634178
1570715710,-0.7170563,-10.455475,-0.28849792,0.07081604,-0.431839,-0.020690918,0.18133056,0.0769434,-0.1253374
1570715710,-0.51834106,-10.551254,-0.21368408,0.083602905,-0.40093994,-0.04626465,0.4433955,-0.025138855,-0.091672584
1570715710,-0.82839966,-10.627869,-0.6907196,-0.0016174316,-0.13676453,-0.04093933,0.20205379,0.045428276,-0.3937746
1570715710,-0.8433533,-10.538681,-0.7398071,-0.016540527,-0.13995361,-0.033477783,0.20205379,0.045428276,-0.3937746
1570715710,-1.0414734,-10.681137,-0.3034668,-0.088974,-0.49362183,-0.005783081,-0.12626588,-0.014222145,-0.2706622
1570715710,-1.0414734,-10.681137,-0.3034668,-0.088974,-0.49362183,-0.005783081,-0.12626588,-0.014222145,-0.2706622
1570715710,-1.0115509,-10.71225,0.06463623,-0.11454773,-0.29974365,0.027236938,-0.09767872,-0.17282486,0.1758592
1570715710,-0.73262024,-10.67215,0.423172,-0.13478088,0.35964966,0.0634613,0.20695484,-0.10547161,0.6394757
1570715710,-0.68414307,-10.75116,0.40222168,-0.13371277,0.37457275,0.061325073,0.21255058,-0.13239574,0.6498766
1570715710,-0.78170776,-10.479416,-0.123306274,-0.0655365,0.30319214,0.04322815,0.2161997,0.09628582,0.1967865
1570715710,-1.0312958,-10.512344,-0.2962799,0.013290405,-0.16125488,0.03895569,-0.02601403,0.033795357,7.6547265E-4
1570715710,-1.0312958,-10.512344,-0.2962799,0.013290405,-0.16125488,0.03895569,-0.02601403,0.033795357,7.6547265E-4
1570715710,-1.0785828,-10.55304,-0.32859802,0.058029175,-0.41479492,0.028305054,-0.076346695,-0.028772354,-0.017935455
1570715710,-1.3018494,-10.530304,-0.39564514,0.08039856,-0.67471313,-0.019622803,-0.3250804,0.007405281,-0.24327573
1570715710,-1.3018494,-10.530304,-0.39564514,0.08039856,-0.67471313,-0.019622803,-0.3250804,0.007405281,-0.24327573
1570715710,-1.5963287,-10.49498,-0.45370483,0.06762695,-0.1857605,0.03895569,-0.5152525,0.09237194,-0.20666273
1570715710,-1.5963287,-10.49498,-0.45370483,0.06762695,-0.1857605,0.03895569,-0.5152525,0.09237194,-0.20666273
1570715710,-1.6118927,-10.499176,-0.6183014,0.048446655,-0.07070923,0.053878784,-0.60568154,-0.012662888,-0.4587646
1570715710,-1.6454163,-10.251373,-0.75057983,0.004776001,-0.12823486,0.06878662,-0.6323155,0.25997162,-0.64607185
1570715710,-1.0612335,-10.509354,-0.23223877,0.013290405,-0.0057373047,0.10501099,0.019462347,0.13285828,-0.117172614
1570715710,-1.0372925,-10.509354,-0.23223877,0.013290405,-0.0057373047,0.10501099,0.019462347,0.13285828,-0.117172614
1570715710,-1.2814941,-10.784683,-0.6141052,-0.10920715,0.025161743,0.036834717,-0.10401428,-0.2614193,-0.3787651
1570715710,-1.2814941,-10.784683,-0.6141052,-0.10920715,0.025161743,0.036834717,-0.10401428,-0.2614193,-0.3787651
1570715710,-1.3784637,-10.43692,0.0059814453,-0.11987305,-0.32743835,-0.018569946,-0.2083224,0.06590271,0.043835163
1570715710,-0.84695435,-10.533295,0.49620056,0.051635742,-0.10479736,0.016586304,0.27817857,0.009889603,0.6659356
1570715710,-0.84695435,-10.533295,0.49620056,0.051635742,-0.10479736,0.016586304,0.27817857,0.009889603,0.6659356
1570715710,-0.952301,-10.480621,-0.037704468,0.0068969727,0.1668396,0.0315094,0.27713835,0.10600567,0.23361497
1570715710,-1.0031738,-10.511749,-0.14245605,5.0354004E-4,0.15512085,0.037887573,0.24320102,0.048584938,0.14762205
1570715710,-1.2306213,-10.653595,-0.62667847,-0.008010864,-0.111190796,0.037887573,-0.0044831038,-0.15352249,-0.39766103
1570715710,-1.4257507,-10.629059,-0.22146606,-0.0090789795,-0.5575409,0.011260986,-0.17104995,-0.11299896,-0.13077219
1570715711,-1.2060852,-10.362106,0.1885376,-0.0058898926,-0.44674683,0.030441284,-0.041027427,0.022115707,0.21896856
1570715711,-1.2192535,-10.41777,0.24958801,-0.0048217773,-0.42330933,0.0315094,-5.105734E-4,0.12502193,0.2961163
1570715711,-0.7775116,-10.238205,0.2280426,0.04524231,0.28082275,0.06239319,0.40870142,0.28371048,0.3755039
1570715711,-0.7775116,-10.238205,0.2280426,0.04524231,0.28082275,0.06239319,0.40870142,0.28371048,0.3755039
1570715711,-0.6572113,-10.520126,0.06463623,0.083602905,0.41184998,0.09861755,0.6000488,0.01581192,0.15926522
1570715711,-0.6201019,-10.389633,-0.45010376,0.028198242,0.47895813,0.0868988,0.69069684,-0.04840851,-0.18810074
1570715711,-1.0139465,-10.768524,-0.27053833,-0.23278809,0.55992126,-0.030288696,0.37199914,-0.32362747,-0.05717717
1570715711,-1.4245453,-10.485413,-0.19392395,-0.1443634,0.24887085,-0.051589966,-0.11247957,0.011530876,0.02094683
1570715711,-1.3479309,-10.472244,0.3902588,-0.052749634,0.048599243,-0.011108398,-0.069544435,0.042435646,0.6878445
1570715711,-1.3790588,-10.470444,0.4010315,-0.043167114,0.060317993,-0.008972168,-0.069544435,0.042435646,0.6878445
1570715711,-1.5035553,-10.499176,-0.18315125,0.07295227,0.111450195,0.026184082,-0.21815276,0.012353897,0.2413091
1570715711,-1.5023651,-10.481216,-0.4590912,0.04737854,0.043273926,0.025115967,-0.23345399,-0.009108543,-0.16487944
1570715711,-1.3521271,-10.650009,-0.2460022,0.029266357,-0.11972046,-4.5776367E-4,-0.11665678,-0.06795025,0.0017280877
1570715711,-1.2982483,-10.555435,-0.13946533,0.036727905,-0.034484863,-0.020690918,-0.0061547756,-0.035425186,0.12665626
1570715711,-1.5807648,-10.477631,-0.3944397,-0.018661499,-0.04408264,-0.0388031,-0.27283478,-0.029248238,-0.13015506
1570715711,-1.5807648,-10.477631,-0.3944397,-0.02079773,-0.052597046,-0.037734985,-0.27283478,-0.029248238,-0.13015506
1570715711,-1.6591797,-10.557831,-0.20649719,0.0143585205,-0.17617798,-0.033477783,-0.3948784,-0.008768082,-0.02615653
1570715711,-1.3712769,-10.451889,-0.24241638,0.093185425,-0.18789673,0.014465332,-0.20118344,0.06939983,-0.105989635
1570715711,-1.3461456,-10.470444,-0.2669525,0.09425354,-0.18255615,0.016586304,-0.14213347,0.049518585,-0.09303355
1570715711,-1.1976929,-10.431534,-0.6404419,0.044189453,-0.02810669,0.010192871,0.063390136,0.071619034,-0.46294916
1570715711,-1.1749573,-10.387238,-0.6326752,0.043121338,-0.02810669,0.010192871,0.063390136,0.071619034,-0.46294916
1570715711,-1.1743622,-10.349533,-0.52194214,0.0068969727,-0.09095764,0.009140015,0.0603503,0.1141758,-0.46070182
1570715711,-1.1414337,-10.45668,-0.28370667,-0.029312134,-0.05899048,0.022979736,0.1378516,0.12572575,-0.15171148
1570715711,-1.1019287,-10.5763855,-0.16998291,-0.07406616,0.054992676,0.020843506,0.16249359,-0.14864159,-0.006485373
1570715711,-1.2030792,-10.717041,-0.123306274,-0.08683777,0.15618896,0.009140015,0.101519585,-0.166955,0.15387417
1570715711,-1.1773529,-10.760147,-0.11253357,-0.09429932,0.15299988,0.009140015,0.09323275,-0.24813938,0.12480798
1570715711,-1.0319061,-10.609909,0.22505188,0.01222229,0.18069458,0.010192871,0.22262657,-0.28287983,0.5515439
1570715711,-0.9828186,-10.529694,0.17597961,0.019683838,0.17536926,0.010192871,0.2393347,-0.17915058,0.5454649
1570715711,-1.0187378,-10.369293,-0.10235596,0.05909729,0.099731445,-0.015365601,0.32967865,0.19848633,0.3282622
1570715711,-1.1276703,-10.362106,-0.16520691,0.06867981,-0.17723083,-0.015365601,0.15958929,0.14517593,0.0661675
1570715711,-1.1192932,-10.468643,-0.18914795,0.10809326,-0.24435425,-0.0079193115,0.10076809,0.018697739,0.13364914
1570715711,-1.1976929,-10.618881,-0.25079346,0.12408447,-0.24647522,-0.0068511963,0.1169889,-0.13199234,-0.013343066
1570715711,-1.3311768,-10.573395,-0.462677,0.010101318,-0.12716675,-0.017501831,-0.025092244,-0.051404953,-0.29116124
1570715712,-1.335968,-10.534485,0.060455322,-0.012268066,0.13275146,0.014465332,-0.1661079,0.0023374557,0.2604259
1570715712,-1.327591,-10.499771,0.080200195,-0.0090789795,0.15086365,0.016586304,-0.1661079,0.0023374557,0.2604259
1570715712,-1.051651,-10.548859,-0.048477173,-0.051696777,0.3713684,0.025115967,0.18708277,0.00600338,0.23459785
1570715712,-1.2078705,-10.551254,-0.16520691,-0.087905884,0.2605896,-0.008972168,0.06850672,-0.07492924,0.12202451
1570715712,-1.2078705,-10.551254,-0.16520691,-0.087905884,0.2605896,-0.008972168,0.06850672,-0.07492924,0.12202451
1570715712,-1.3371582,-10.502762,-0.07661438,0.032470703,-0.14527893,-0.008972168,-0.08634746,0.029158592,0.2195383
1570715712,-1.3371582,-10.502762,-0.07661438,0.032470703,-0.14527893,-0.008972168,-0.08634746,0.029158592,0.2195383
1570715712,-1.3156128,-10.505753,-0.16520691,0.07507324,-0.2411499,-0.0068511963,-0.0604856,0.007408142,0.070044994
1570715712,-1.3114166,-10.433334,-0.34835815,0.060165405,-0.36045837,-0.017501831,-0.042632222,0.025996208,-0.12821712
1570715712,-1.3521271,-10.422562,-0.3543396,0.055908203,-0.36045837,-0.015365601,-0.042632222,0.025996208,-0.12821712
1570715712,-1.367691,-10.55603,-0.10714722,0.010101318,-0.25074768,-0.0068511963,-0.10832119,-0.035273552,-0.029000223
1570715712,-1.2246399,-10.530899,-0.0143585205,0.025009155,0.101867676,0.018722534,0.042348623,-0.06346226,0.1933979
1570715712,-1.1887207,-10.530899,-0.0143585205,0.025009155,0.101867676,0.018722534,0.042348623,-0.06346226,0.1933979
1570715712,-1.0899658,-10.379456,-0.28849792,-0.0058898926,0.22543335,0.025115967,0.1775161,0.12777138,-0.06782791
