time,ax,ay,az,gx,gy,gz,la_x,la_y,la_z,fox,foy,foz
1570714995,-8.508993,-2.6384103,5.3247046,-0.886327,-1.0972558,-0.82560515,-1.5945383,-1.757344,-1.3359646
1570714995,-8.949526,-4.4675803,5.21936,-1.1973938,-0.25673655,-1.3199029,-2.360683,-3.2752678,-1.9440918
1570714995,-9.198523,-4.027047,5.5162406,-1.7332381,0.4559471,-1.9644076,-2.6431987,-2.6719291,-1.7238252
1570714995,-8.796297,-4.572925,6.4643445,-2.3180861,0.9246777,-2.012346,-2.2122424,-1.8435353,-0.272939
1570714995,-9.466674,-4.1706996,6.847417,-2.63661,1.1334759,-1.9878441,-2.873042,-0.5506664,0.545878
1570714995,-9.481039,-4.6926355,6.277597,-2.7250295,1.3326864,-1.9857135,-2.8921957,-0.31603462,0.6464345
1570714996,-9.241618,-5.0613422,5.8322754,-2.3010414,1.8706614,-1.9196651,-2.681506,0.22505496,0.81402856
1570714996,-9.14585,-5.7125654,5.3103395,-1.9100775,1.8557472,-1.5414847,-2.6048915,0.20111294,1.0103531
1570714996,-9.873688,-5.1379566,4.2185836,-1.8184619,1.7343034,-1.1611737,-3.371036,1.2497733,0.59855044
1570714996,-9.255983,-4.6926355,3.7684734,-1.9356445,1.9196651,-0.7169448,-2.753332,2.0590134,0.8858546
1570714996,-8.0445175,-5.985504,3.4380736,-1.521244,1.6714509,-0.44635943,-1.5179238,1.0055647,1.2737153
1570714996,-8.714894,-5.3725886,1.8387469,-1.1941979,1.2314832,-0.119313255,-2.1643584,1.7429788,0.21547815
1570714996,-8.437167,-5.329493,1.8674773,-1.266638,1.3966043,0.0085223755,-2.0398598,2.0973208,0.7469909
1570714996,-7.216124,-6.5696893,1.1875241,-1.1494554,1.5148523,-0.02450183,-0.6847417,0.81402856,0.5602432
1570714996,-6.7708025,-6.967127,0.6464345,-1.0919293,1.2123079,0.1374233,-0.1340753,0.16280572,0.5650316
1570714996,-6.8809357,-6.1004257,-0.92895025,-1.2538545,0.9108289,0.2759119,-0.17238252,1.043872,-0.521936
1570714996,-6.967127,-6.493075,-1.4030021,-1.6032718,1.0216198,0.25354066,-0.1340753,0.5554548,-0.58897364
1570714996,-7.07726,-5.8562174,-1.436521,-1.9484282,0.7009654,0.17044751,-0.17238252,1.0869676,0.37349546
1570714996,-6.9479733,-8.839393,0.7326257,-0.7680791,0.48044893,0.19707993,-0.3878607,-1.958457,1.8770541
1570714996,-7.8146744,-5.8562174,-0.9528923,0.18855755,0.8564987,-0.3078708,-1.436521,1.1348516,1.0726024
1570714996,-7.2687964,-6.033388,-0.8714894,-0.31745848,0.82560515,-0.11824796,-0.8523358,0.89543146,1.1971009
1570714996,-5.8322754,-5.2480903,-1.2018893,-0.10652969,0.74890375,-0.11824796,0.49320555,1.6376339,1.2880806
1570714996,-5.8945246,-5.133168,-3.5482068,-0.16405573,0.2418224,0.005326485,0.58418524,1.6280571,-0.7134721
1570714996,-5.032612,-5.1762643,-2.954445,0.32704616,0.35367858,-0.14381509,1.2641385,1.7525556,-0.59855044
1570714996,-3.9935284,-7.359776,-1.757344,1.2250915,0.5582156,-0.86289054,2.2505496,0.29688102,0.50757074
1570714996,-4.9943047,-6.588843,-1.0007763,1.248528,0.15659864,-1.8408331,1.5035586,0.6607997,0.842759
1570714996,-5.7748146,-7.5225816,-1.9728222,1.1132354,-0.30467492,-1.3529271,0.1388637,0.58418524,0.34955344
1570714996,-6.5265937,-8.317456,-4.3143516,0.5315832,0.7467731,-1.4477385,-1.2497733,-0.46926352,-2.6767175
1570714996,-6.3589997,-7.067683,-1.8435353,0.12783563,1.3220335,-1.6437532,-1.3742718,0.7374141,-0.5363012
1570714996,-5.683835,-7.398083,-1.436521,0.39842105,0.8692823,-1.3646454,-1.364695,1.7669208,0.9528923
1570714996,-4.8985367,-9.639056,-2.6623523,0.8735435,0.053264845,-0.6945736,-0.7757214,-0.90979666,-0.81402856
1570714996,-4.5681367,-9.782708,-0.6560113,0.85330284,0.04154658,-0.61787224,-0.4309563,-0.7278373,0.3878607
1570714996,-3.6391866,-11.104307,-0.5793968,0.50814664,0.2780425,-1.0567746,0.14844051,-2.1643584,0.80445176
1570714996,-2.4181437,-12.703634,-1.9153614,0.16192514,0.15553336,-1.1462595,0.6799533,-3.53863,-0.08140286
1570714996,-2.6048915,-10.572795,-1.0726024,0.10866029,-0.65089643,0.11079088,1.1731589,-2.5234885,0.4309563
1570714996,-5.257667,-8.911219,-1.1013328,-0.07776668,-0.52093023,-0.07563608,-2.4612393,0.33039984,0.15801731
1570714996,-4.7261543,-9.150639,-4.2664676,-0.12463974,-0.53904027,-0.09694202,-1.316811,-0.02873042,-3.0693667
1570714996,-3.3806129,-8.992621,-1.0821792,0.4112046,-0.44209823,-0.26738954,-0.46447513,-0.095768064,-0.39743748
1570714996,-2.6192567,-8.738836,-0.320823,0.419727,-0.63811284,-0.19388404,0.7422025,0.46447513,0.63206923
1570714997,-2.767697,-9.112331,-0.7374141,0.0063917814,-0.42292288,-0.11292148,0.5506664,0.076614454,0.090979666
1570714997,-2.681506,-9.308656,-1.5370775,-0.09055024,-0.36752746,-0.11292148,0.641646,-0.11971009,-0.7134721
1570714997,-2.3702598,-9.227253,-1.5705963,0.1374233,-0.29721785,-0.12463974,0.94810385,-0.033518825,-0.78529817
1570714997,-2.6192567,-8.992621,-1.0151415,0.1736434,-0.25780186,-0.08202787,0.6991069,0.20590134,-0.30166942
1570714997,-2.9592333,-8.954314,-0.9624691,0.05113425,-0.19388404,-0.070309594,0.35913026,0.24899697,-0.29209262
1570714997,-2.9783869,-9.299079,-1.0151415,0.019175345,-0.12570503,-0.07776668,0.33518824,-0.090979666,-0.35913026
1570714997,-2.7341783,-9.3421755,-1.0247183,0.054330144,-0.1022685,-0.094811425,0.56982,-0.12928689,-0.38307226
1570714997,-3.0023289,-9.279925,-0.9672575,0.07776668,-0.14488038,-0.088419646,0.29209262,-0.062249243,-0.35434186
1570714997,-3.145981,-8.78672,-2.327164,0.6647453,-0.2748466,-0.14914156,-0.11971009,0.521936,-2.231396
1570714997,-3.0071173,-8.403648,0.009576807,0.67539823,-0.1747087,-0.22051647,0.21547815,0.8523358,0.2633622
1570714997,-3.1603463,-9.045294,-0.31603462,0.3771151,-0.07670138,-0.47512242,-0.01436521,0.2633622,-0.18674773
1570714997,-2.681506,-8.446744,-0.5554548,-0.0063917814,0.07457078,-0.7254672,0.24899697,0.90979666,-0.46926352
1570714997,-1.7812861,-7.5225816,-0.4261679,-0.120378554,0.13103153,-0.6594188,0.9528923,1.8914193,-0.31124622
1570714997,-2.2840683,-8.307879,-0.60812724,-0.12783563,0.029828314,-0.29828313,0.33039984,1.13964,-0.4405331
1570714997,-2.5474305,-8.6813755,-0.79008657,-0.15872924,0.10759499,-0.40055165,-0.11971009,0.7422025,-0.51714754
1570714997,-1.3215994,-8.350976,-0.82360536,-0.28976077,0.2077329,-0.51240784,0.89543146,1.2018893,-0.33997664
1570714997,-1.6998832,-8.513782,-0.89064306,-0.24608359,0.088419646,-0.32704616,0.61291564,0.93852705,-0.5554548
1570714997,-1.5849615,-9.667787,-1.0390835,-0.32491556,0.15553336,-0.15233746,0.6512229,0.36870706,-0.39264908
1570714997,-1.9728222,-9.375694,-0.8283938,-0.15872924,0.19494934,-0.24714889,0.1388637,-0.36870706,-0.15801731
1570714997,-1.0199299,-8.580819,-0.92416185,-0.6157416,0.15979454,-0.2098635,1.1300632,1.7764976,-0.15801731
1570714997,-1.8483237,-10.692505,-1.6041151,-0.46340418,0.063917816,-0.11292148,0.17717093,-1.5753847,-0.80445176
1570714997,-1.1300632,-8.6095495,-0.9528923,-0.32385027,0.18216577,-0.063917816,0.79487497,0.90979666,-0.15322891
1570714997,-2.6192567,-14.571112,-1.6950948,-0.14701098,0.15446806,0.036220096,0.20111294,-4.9943047,-1.1109096
1570714997,-1.5466543,-10.127473,-0.8475474,0.3898987,0.122509144,0.122509144,0.37828386,-0.49320555,-0.090979666
1570714997,-1.733402,-15.20797,-0.58418524,0.14594568,-0.05646074,0.23116943,0.866701,-1.8579005,0.033518825
1570714997,-1.6328455,-10.539276,-0.8762778,-0.18110047,-0.12890093,0.28869548,0.82360536,-1.091756,0.05746084
1570714997,-2.6288335,-11.281479,-1.7190368,-0.092680834,-0.13529271,-0.05539544,-0.6703765,-2.8203697,-1.0055647
1570714997,-1.7046716,-10.093954,-1.4413095,0.16512102,-0.07883197,-0.16405573,0.50757074,-0.48362875,-0.5267244
1570714997,-1.7190368,-10.903194,-1.5705963,0.31319728,-0.020240642,-0.2119941,0.46926352,-1.4077905,-0.6560113
1570714997,-2.0254946,-10.022128,-1.2018893,0.15233746,0.0042611877,-0.19707993,0.10534488,-0.58418524,-0.4213795
1570714997,-2.7868507,-9.414001,-1.484405,-0.063917816,-0.09800732,-0.14701098,-0.47405192,-0.50757074,-0.50278234
1570714997,-3.1842883,-8.010999,-2.1164744,0.16618632,-0.29934844,-0.08309316,-1.5131354,2.15957,-1.2689269
1570714997,-2.7485435,-9.069236,-1.7956513,0.18216577,-0.23436533,0.07350549,-0.89543146,0.40222588,-1.0199299
1570714997,-2.0398598,-8.695741,-1.6232687,0.014914157,-0.32917675,0.22158176,0.090979666,0.8523358,-0.9528923
1570714998,-2.1643584,-8.456321,-1.4317327,-0.22158176,-0.60082746,0.33876443,0.062249243,1.067814,-0.7613561
1570714998,-2.9592333,-7.2304893,-1.8866309,-0.5315832,-0.5997622,0.35687447,-1.70946,2.2601264,-1.13964
1570714998,-4.4819455,-8.485051,-1.3215994,-0.6945736,-0.58484805,0.42718408,-2.0254946,0.9672575,-0.4357447
1570714998,-3.6391866,-9.610326,-1.2737153,-0.7467731,-0.6999001,0.47938362,-1.3455414,-0.110133275,-0.33039984
1570714998,-3.1651347,-10.6398325,-1.5705963,-0.6274599,-0.87993526,0.43357584,-0.39743748,-1.3024458,-0.39743748
1570714998,-3.016694,-9.677363,-1.70946,-0.5891092,-0.96835494,0.2844343,-0.11971009,-0.3878607,-0.45489833
1570714998,-2.8634653,-8.791509,-1.7190368,-0.67326766,-0.965159,0.22051647,0.12928689,0.44532153,-0.37349546
1570714998,-3.1316159,-9.150639,-2.2026656,-0.6604841,-0.95024484,0.26525894,0.02873042,-0.15322891,-0.6368576
1570714998,-3.1411927,-9.423578,-2.0590134,-0.62639457,-0.82453984,0.2748466,-0.25857377,0.30645782,-0.49320555
1570714998,-3.7732618,-9.141062,-2.1021092,-0.6498311,-0.85436815,0.23116943,-0.12928689,-0.05746084,-0.47405192
1570714998,-3.5673606,-8.0924015,-2.3415294,-0.6977695,-0.89165354,0.12890093,-0.14844051,0.93373865,-0.61770403
1570714998,-3.6966474,-7.8529816,-3.083732,-0.7297284,-0.8138869,0.026632423,-0.272939,1.1300632,-1.2545617
1570714998,-3.8833952,-7.752425,-3.016694,-0.70203066,-0.61361104,-0.05646074,-0.36870706,1.1923125,-1.067814
1570714998,-4.2521024,-7.943961,-3.0310593,-0.61361104,-0.4847101,-0.12783563,-0.7134721,0.9959879,-1.0007763
1570714998,-4.1706996,-7.8865004,-3.040636,-0.4431635,-0.43464115,-0.3057402,-0.6895301,1.0199299,-0.8810662
1570714998,-4.31914,-7.991845,-3.2800562,-0.25886714,-0.43996763,-0.46233886,-0.7230489,1.0199299,-0.94810385
1570714998,-5.2241483,-8.255207,-3.7828386,-0.1033338,-0.47618774,-0.66794115,-1.7717092,0.6847417,-1.3982137
1570714998,-5.2002063,-8.571242,-4.156334,0.1395539,-0.52519137,-0.8564987,-2.0829554,0.58897364,-2.0254946
1570714998,-5.559336,-8.743625,-3.7541082,0.3781804,-0.7467731,-0.88845766,-2.7006595,0.4213795,-1.7812861
1570714998,-5.315128,-7.9487495,-4.0462008,0.41013932,-0.87460876,-0.54543203,-2.6048915,1.067814,-2.1021092
1570714998,-3.763685,-7.85777,-3.9600096,0.44849002,-0.61787224,-0.42079228,-1.6663644,1.6950948,-2.5139117
1570714998,0.7278373,-15.116989,-1.7429788,0.9694202,0.40481284,-0.57099915,2.3319526,-3.8115692,-0.35913026
1570714998,3.2561142,-13.905523,-2.3558946,0.30467492,0.120378554,-0.9310695,6.8761473,-6.5265937,-0.9528923
1570714998,-5.3821654,-8.293514,-3.4572272,0.15553336,0.32491556,-0.031958908,-2.9592333,0.8283938,-2.2457612
1570714998,-1.1731589,-6.9719152,3.4620156,0.7371855,0.9012412,-0.15659864,0.0047884034,2.767697,4.1946416
1570714998,2.4229321,-10.67814,-1.8818425,-0.12570503,0.33876443,-0.9395919,4.343082,-0.89543146,1.1348516
1570714998,0.59376204,-10.94629,-5.3965306,-0.054330144,0.43144527,-1.0141627,2.3894134,-1.2689269,-3.9504328
1570714998,-0.34476504,-6.5984197,-1.6807296,0.409074,1.280487,-0.4495553,0.9816227,2.8060043,-1.283292
1570714998,0.545878,-7.8625584,-0.019153614,0.3472868,1.1036476,-0.32704616,2.0015526,1.9776106,1.2018893
1570714998,-1.4652514,-8.6095495,-2.4516625,0.14168449,0.73931605,-0.4932325,-0.11492168,1.532289,-0.9911995
1570714998,-1.067814,-9.586384,-2.0638018,0.19388404,0.7180101,-0.62639457,-0.51714754,-0.47884035,-1.1587936
1570714998,-0.94331545,-8.619126,-1.8674773,0.27165073,0.7563608,-0.5944357,-0.17717093,-0.033518825,-0.7230489
1570714998,-1.5514427,-9.045294,-1.8291701,0.5603462,0.7222713,-0.50388545,-0.6847417,1.2210429,-1.1827357
1570714999,-1.0151415,-8.604761,-1.0342951,0.5443667,0.243953,-0.6370476,-0.56982,1.3982137,0.19153613
1570714999,-1.316811,-10.6877165,-1.4939818,0.506016,-0.036220096,-0.9374613,-1.0247183,-0.17717093,-0.6799533
1570714999,-1.1683705,-10.524911,-2.4181437,0.56247675,-0.11505207,-1.036534,-1.3120226,-0.7278373,-1.9488802
1570714999,-0.16280572,-9.279925,-4.3718123,0.5241261,0.20240642,-1.180349,-0.6464345,0.50757074,-4.0701427
1570714999,1.0055647,-6.7708025,-4.3478703,0.42079228,0.98753023,-1.0876682,0.15801731,2.9975405,-4.185065
1570714999,1.0342951,-5.683835,-1.8004397,0.3462215,0.93000424,-0.36539686,-0.019153614,4.0653543,-1.7860745
1570714999,0.34476504,-9.816227,-3.289633,0.113986775,0.4452941,-0.13103153,-0.7517793,-0.06703765,-3.3518825
1570714999,-1.532289,-8.911219,-1.6567876,-0.64663523,-0.38883337,0.0031958907,-2.9783869,0.07182605,-1.8148049
1570714999,0.1340753,-10.103531,-1.8148049,-1.3944737,-1.2762257,0.4218576,-0.89064306,-0.35434186,-1.4556746
1570714999,0.45010993,-10.304645,-2.2457612,-1.9654728,-1.7577399,1.5223093,-0.24899697,-0.5650316,-1.3263878
1570714999,0.40701428,-12.287044,-3.6487634,-1.4839586,-1.5223093,3.0201168,0.47405192,-2.585738,-2.183512
1570714999,-3.3662477,-14.389153,-1.532289,-0.70203066,-0.3824416,2.8006656,-2.3415294,-4.783615,0.17717093
1570714999,-0.6703765,-12.789825,1.9871874,-1.1451942,-0.3771151,1.8067436,0.9576807,-3.3183637,3.9504328
1570714999,-1.9057846,-14.010868,-1.3263878,-1.5617253,-1.5329623,1.5169828,0.25857377,-4.7261543,0.9816227
1570714999,-1.6519991,-7.067683,-0.62249243,-1.2346791,-1.8525513,1.3731678,1.0390835,2.0015526,1.9488802
1570714999,-2.4181437,-7.192182,-3.3423057,-0.98859555,-1.1995244,1.600076,0.80445176,1.6519991,-0.60333884
1570714999,-1.0103531,-8.169016,-2.2266076,-0.4218576,-0.56247675,1.4328244,2.6719291,0.46926352,0.58418524
1570714999,-0.5650316,-10.275913,-0.93373865,-0.46660006,-0.4538165,1.1015171,2.9783869,-1.3024458,1.7046716
1570714999,-0.6799533,-8.418014,-1.1348516,-0.5731298,-0.556085,0.3163932,3.7493198,-1.0726024,1.9967642
1570714999,-0.19153613,-7.0485296,-2.9640217,-0.42718408,-0.30041373,-0.41440052,4.0462008,1.1731589,0.31603462
1570714999,-0.8379706,-6.2967505,-2.992752,-0.089484945,0.18642697,-1.1867408,3.4045548,1.9297266,-0.02873042
1570714999,-3.2273839,-6.315904,-1.9393034,0.4133352,0.08096257,-1.7225852,0.93373865,2.327164,0.82360536
1570714999,-8.437167,-8.78672,-1.0295067,0.77340555,-0.8437152,-1.7939601,-4.1515455,0.40701428,1.958457
1570714999,-10.381259,-7.4363904,-4.793192,0.39948636,-0.82560515,-0.84904164,-8.671799,0.33518824,-1.388637
1570714999,-6.459556,-9.524135,-7.881712,-0.42718408,-0.89165354,0.7371855,-3.3758245,0.58418524,-5.377377
1570714999,-3.514688,-13.13459,0.31124622,0.52945256,0.06178722,0.34302562,-1.7717092,-3.6535518,-0.1436521
1570714999,-0.30166942,-20.058622,-4.3957543,0.46233886,-1.072754,-0.4218576,1.6041151,-10.352529,-0.076614454
1570714999,1.6089035,-14.231135,-4.036624,-0.08735435,-0.25354066,-0.031958908,6.220136,-5.9998693,-0.07182605
1570714999,-2.1452048,-5.415684,-2.0398598,0.26845482,0.9449184,0.5177343,0.19153613,3.3423057,-0.89064306
1570714999,4.620809,-9.337387,2.8682537,0.41866168,1.0461216,-0.79471153,7.153875,0.07182605,4.8745947
1570714999,1.1013328,-13.196839,-6.564901,-0.4953631,0.14168449,-1.7257811,4.2425256,-3.1555579,-1.7190368
1570714999,-0.91458505,-9.595961,-4.9943047,0.66900647,1.5478765,-0.77873206,1.4987702,-1.3934253,-4.012682
1570714999,1.6328455,-5.602432,-1.7238252,1.0301422,1.9207304,-0.38670278,3.4524388,3.5434184,0.25857377
1570715000,1.4173675,-8.030152,-0.6512229,0.74464256,2.1305938,-0.3781804,3.5817258,1.8962077,1.3120226
1570715000,-2.3415294,-9.232041,-4.0318356,0.35793978,1.8237884,-0.6871165,-0.8810662,0.24899697,-1.9967642
1570715000,-2.0829554,-7.608773,-3.6008794,0.52519137,1.7854377,-0.42079228,-0.90979666,1.9201498,-1.6089035
1570715000,-1.2354081,-9.433155,-2.0398598,0.74996907,1.6714509,-0.017044751,-0.32561144,0.39264908,0.4165911
1570715000,-2.8107927,-8.532935,-2.7485435,0.7244019,1.2495933,-0.08735435,-1.4939818,1.9057846,-1.2066777
1570715000,-2.566584,-9.303867,-0.8475474,0.5731298,1.036534,-0.5198649,-1.8243817,0.34955344,0.6799533
1570715000,-2.360683,-9.481039,-1.7286136,0.49429777,0.6658106,-0.82560515,-1.8004397,0.20590134,-0.320823
1570715000,-2.4229321,-9.586384,-2.9879637,0.7382508,0.5358444,-0.82027864,-2.2170308,-0.033518825,-1.541866
1570715000,-0.63206923,-7.642292,-3.8115692,0.6967042,0.7840586,-0.95983255,-0.60333884,2.111686,-2.7964275
1570715000,1.0247183,-6.2345014,-2.5570073,0.5646074,1.0301422,-0.7648832,0.770933,3.5338416,-1.7286136
1570715000,1.1540052,-8.341399,-1.508347,0.46553475,0.800038,-0.36859274,1.1587936,2.566584,-0.8714894
1570715000,0.48841715,-11.233594,-4.247314,0.33769912,0.6295905,-0.3835069,-0.023942016,-1.9632454,-3.2848446
1570715000,-2.2697031,-9.093178,-5.1235914,0.24075711,0.8437152,-0.35687447,-2.906561,0.6799533,-4.673482
1570715000,-3.3375173,-6.603208,-1.6424223,-0.14488038,0.117182665,0.0010652969,-4.0222588,3.1651347,-1.2018893
1570715000,-1.7238252,-7.5704656,-0.6655881,-0.9960526,-1.3412088,0.5017549,-2.2984335,2.1978772,-0.033518825
1570715000,0.5267244,-6.8905125,-1.982399,-1.7119322,-1.8589431,1.510591,0.2825158,2.8491,-0.89064306
1570715000,1.1492168,-11.597513,-2.360683,-1.4083226,-1.9154038,2.884824,1.3934253,-0.63206923,-0.9864111
1570715000,-4.0892963,-21.059399,-1.4508862,-0.9236124,-0.25567126,2.5130355,-2.5809495,-11.530476,0.31603462
1570715000,-2.5234885,-10.979809,3.7732618,-1.2517239,-0.40055165,1.1611737,-1.0247183,-3.0214825,5.6407394
1570715000,-2.4947581,-9.414001,0.30645782,-1.5585294,-2.3468492,0.82880104,-0.009576807,-0.545878,3.5242648
1570715000,-2.4660277,-7.0724716,-3.572149,-1.334817,-1.9090121,1.1665001,0.320823,1.9536686,-0.94810385
1570715000,-1.5131354,-7.536947,-3.572149,-0.85117227,-0.90869826,1.4775668,1.2976574,1.5179238,-1.0773908
1570715000,-0.36391866,-8.422802,-1.3455414,-0.4474247,-0.907633,1.4818281,3.1028855,0.46447513,1.4030021
1570715000,-0.4165911,-11.386824,-1.8339585,-0.6796594,-0.92574304,1.0248157,3.289633,-2.456451,1.091756
1570715000,-0.866701,-8.643068,-1.4221559,-0.68605125,-0.56247675,0.29508725,3.4380736,-1.2066777,1.5849615
1570715000,-1.0007763,-7.479486,-2.7150247,-0.5262567,-0.23543063,-0.12677033,3.4237084,0.7230489,0.4165911
1570715000,-1.3455414,-7.3645644,-2.2744915,-0.22264706,0.16299044,-0.54649734,2.920926,0.93852705,0.7326257
1570715000,-2.72939,-7.0964136,-2.791639,0.26419365,0.06604841,-1.0109668,1.6519991,1.0342951,0.5793968
1570715000,-5.209783,-6.4978633,-3.2609026,0.6295905,-0.1395539,-1.3017929,-1.1204864,2.1068976,-0.019153614
1570715000,-8.149862,-8.384495,-2.6240451,0.84904164,-0.5827174,-1.4264326,-4.098873,0.6847417,0.1340753
1570715000,-9.720459,-8.571242,-3.5577838,0.8234745,-0.64770055,-1.080211,-6.9383965,-0.20111294,-0.6895301
1570715000,-6.181829,-8.236053,-6.6271505,0.058591332,-0.85330284,-0.08628905,-3.1651347,0.79487497,-4.285621
1570715000,-3.7301662,-12.660539,0.6847417,0.6540923,0.23862651,-0.015979454,-0.61291564,-2.4372973,-0.0047884034
1570715000,1.3503298,-25.148695,-4.0462008,0.3813763,-0.09800732,-0.3462215,3.0885203,-14.676456,-1.8195933
1570715001,-1.3072342,-11.300632,-3.442862,0.088419646,-0.18855755,-0.10759499,3.4620156,-3.083732,-0.4357447
1570715001,-0.10055647,-6.3302693,-1.2018893,0.28549957,0.7552955,0.17683929,2.8299465,2.8107927,0.79008657
1570715001,4.175488,-8.039729,2.360683,0.21518998,0.67752886,-1.2719646,7.273585,0.9864111,3.8546648
1570715001,0.46926352,-11.650186,-5.5258174,-0.409074,0.8383887,-1.718324,3.2704794,-2.0398598,-2.6001031
1570715001,1.0869676,-9.069236,-3.596091,0.43570644,1.5990107,-1.1569124,2.3942018,-0.5363012,-2.2122424
1570715001,1.3838485,-4.525041,-1.7764976,0.8277357,2.0144765,-0.22903883,3.1507695,4.6926355,-0.22984336
1570715001,-0.07182605,-7.4268136,-2.4181437,0.5113425,1.8738573,0.30893612,1.7525556,2.566584,-0.36870706
1570715001,-2.7102363,-9.303867,-3.6535518,0.28336897,1.8887714,-0.012783563,-1.1731589,0.6847417,-1.5753847
1570715001,-3.41892,-10.19451,-2.4420857,0.18003519,1.704475,-0.30360964,-2.231396,-0.6368576,-0.58418524
1570715001,-2.1787236,-10.280702,-0.37349546,0.312132,1.5159175,-0.46127358,-1.2018893,-0.6943185,1.460463
1570715001,-1.316811,-8.6813755,-0.7278373,0.70629185,0.99392205,-0.2823037,-0.51235914,0.93852705,0.9768343
1570715001,-1.3742718,-9.294291,-1.2976574,0.8650211,0.64770055,-0.40374753,-0.6895301,0.37349546,0.17717093
1570715001,-1.1492168,-9.217676,-1.9393034,0.65622294,0.5784562,-0.7467731,-0.36391866,0.49320555,-0.6703765
1570715001,-0.78050977,-9.399636,-2.2936451,0.75316495,0.50814664,-0.8426499,-0.5267244,0.34476504,-1.2210429
1570715001,-1.3742718,-9.452309,-3.0262709,0.9236124,0.5187996,-0.8277357,-1.3790601,0.31603462,-2.2122424
1570715001,-0.095768064,-6.9719152,-4.0222588,0.66794115,0.8703476,-0.8852618,-0.37349546,2.8107927,-3.442862
1570715001,1.3263878,-5.583278,-2.5234885,0.5880439,1.0429257,-0.47938362,0.82360536,4.19943,-2.1404164
1570715001,-0.29209262,-10.649409,-2.834735,0.53264844,0.8437152,0.04154658,-0.82360536,-0.8571242,-2.6240451
1570715001,-1.0007763,-11.463438,-4.7261543,0.34089503,1.09406,-0.23330003,-1.0390835,-1.6519991,-4.4819455
1570715001,-2.566584,-7.335834,-1.2880806,-0.18216577,0.40055165,0.08096257,-3.1747115,2.4468741,-1.2258313
1570715001,-0.14844051,-6.4499793,-2.4660277,-2.0965044,-1.6171207,1.8578779,-0.39264908,4.0701427,-1.0390835
1570715001,-0.047884032,-7.2927384,-3.217807,-2.0965044,-1.6171207,1.8578779,-0.39264908,4.0701427,-1.0390835
1570715001,-0.34955344,-10.941502,-4.414908,-1.8024824,-1.8110048,3.0456839,0.16759412,0.090979666,-2.6048915
1570715001,-4.9655743,-20.580557,-3.6248214,-0.975812,-0.64876586,3.4057543,-2.432509,-10.108319,-3.3997664
1570715001,-2.8443117,-13.733141,5.3007627,-1.5936842,-0.39735577,1.4456079,-1.3263878,-6.3589997,6.646304
1570715001,-2.8921957,-10.793061,0.320823,-1.7343034,-2.8944118,0.7542302,-0.15322891,-1.6807296,2.705448
1570715001,-3.691859,-8.90643,-3.763685,-1.6927568,-2.7133112,0.8724782,-0.770933,-0.81881696,-0.5315128
1570715001,-2.0638018,-7.2831616,-4.5681367,-1.0738193,-0.95131016,1.3891472,1.5370775,1.388637,-1.7525556
1570715001,-0.5506664,-8.1402855,-0.9959879,-0.64450467,-1.0258809,1.4551957,3.2369606,0.5554548,1.4652514
1570715001,-0.22984336,-11.180922,-1.6136919,-0.65622294,-1.3017929,1.0876682,4.0462008,-2.456451,1.3790601
1570715001,-0.92895025,-9.524135,-1.70946,-0.839454,-0.9374613,0.19494934,4.0701427,-2.1404164,1.3982137
1570715001,-0.39264908,-7.905654,-2.6671407,-0.6210681,-0.58058685,-0.351548,4.3143516,0.18195933,0.5746084
1570715001,-0.38307226,-7.321469,-2.303222,-0.16085984,-0.20240642,-0.7840586,4.189853,0.6655881,0.62249243
1570715002,-1.7238252,-7.0964136,-1.6950948,0.37391922,-0.09055024,-1.2368097,3.1411927,1.0965444,1.2976574
1570715002,-5.305551,-7.61835,-1.9297266,0.50495076,-0.4911019,-1.5276358,-0.5650316,0.9768343,1.0821792
1570715002,-9.830592,-8.48984,-3.6104562,0.49855897,-0.839454,-1.4892851,-5.592855,0.25857377,-0.5554548
1570715002,-6.9383965,-6.751649,-6.105214,0.08628905,-0.70203066,-0.6253293,-4.429273,1.5370775,-2.8778305
1570715002,-6.2105594,-8.542512,-6.167464,-0.45807767,-0.9726161,0.3835069,-2.7006595,0.47405192,-4.060566
1570715002,-5.032612,-10.860099,0.5746084,0.6072193,-0.46553475,-0.2748466,-1.9393034,-0.94331545,1.3694834
1570715002,-0.41180268,-22.515072,-3.8977604,0.33237264,-0.7563608,-1.1068435,1.4221559,-11.717223,0.34955344
1570715002,2.0829554,-12.157756,-3.1364043,0.47512242,-0.15340276,-0.760622,7.4268136,-5.046977,0.14844051
1570715002,-2.5905263,-5.109226,-2.2457612,0.43037996,0.3472868,0.122509144,-0.8331822,3.514688,-1.4987702
1570715002,3.3614593,-10.146626,2.1404164,0.2119941,0.39842105,-0.6711371,5.6886234,-0.16280572,3.3087866
1570715002,2.054225,-11.042058,-3.8067808,0.054330144,0.6359823,-1.8067436,4.711789,-1.7764976,-2.0015526
1570715002,0.6655881,-7.015011,-5.032612,0.10972559,0.90869826,-1.2314832,2.6719291,2.1547816,-2.2697031
1570715002,-0.8714894,-4.865018,-4.0797195,0.68179005,1.4456079,-0.10013791,0.9768343,4.582502,-2.231396
1570715002,0.79966336,-8.983045,-0.7565677,0.5134731,1.8664002,0.2801731,2.6192567,0.48841715,1.0103531
1570715002,-1.2976574,-9.931149,-1.958457,0.3877681,1.7950253,-0.21732058,1.3263878,-0.6655881,0.33997664
1570715002,-4.4436383,-8.6574335,-2.9783869,0.07989727,1.2570504,-0.5177343,-2.9352913,0.866701,-1.2114661
1570715002,-2.4420857,-9.993398,0.39264908,0.18855755,1.3689066,-0.40694344,-1.4891934,0.25857377,1.1492168
1570715002,-1.043872,-9.3182335,-2.9352913,0.73931605,0.77447087,-0.30041373,0.11492168,0.272939,-1.2641385
1570715002,-1.9009962,-8.796297,-2.3127987,0.9662243,0.67326766,-0.351548,-0.8619126,0.6895301,-1.0247183
1570715002,-1.5370775,-9.916783,-1.0247183,0.7691444,0.39522517,-0.8426499,-0.9720459,-0.46926352,0.33518824
1570715002,-1.364695,-10.0029745,-2.3223755,0.7329243,0.33663383,-1.1771531,-0.82360536,-0.34955344,-0.9959879
1570715002,-0.49320555,-7.326257,-5.0038815,0.7766015,0.6711371,-1.2858135,-0.39743748,2.4468741,-4.232949
1570715002,0.6560113,-4.9320555,-3.9695864,0.6604841,1.2911398,-0.7659485,0.4261679,4.855441,-3.4045548
1570715002,-0.9911995,-8.585608,-1.1923125,0.49429777,0.8319969,-0.05113425,-1.3215994,1.2066777,-0.79966336
1570715002,-0.91458505,-11.683704,-3.1555579,0.19601464,0.39415985,-0.32171968,-1.3072342,-1.8866309,-2.873042
1570715002,-1.3982137,-10.089166,-3.0933087,-0.39415985,0.10866029,-0.47405714,-1.5993267,0.81881696,-2.767697
1570715002,-0.92416185,-7.2209125,-0.9720459,-0.96835494,-0.77873206,0.1033338,-1.6232687,2.1930888,-0.51235914
1570715002,0.6847417,-4.879383,-2.3989902,-1.7822418,-1.5233747,1.3507965,0.4213795,4.865018,-1.364695
1570715002,0.10534488,-7.603985,-2.6479871,-1.6267084,-1.883445,2.8912158,0.35434186,2.9735985,-0.9768343
1570715002,-3.8786068,-21.32276,-4.654328,-0.87886995,-1.1345413,3.9511864,-1.5035586,-9.270349,-3.2034419
1570715002,-5.023035,-15.978902,5.7748146,-1.1451942,0.1395539,1.5382888,-4.0078936,-9.662998,6.7851677
1570715002,-2.4899697,-8.480263,0.8619126,-1.4626527,-2.5471249,0.868217,-0.20590134,0.32561144,4.7740383
1570715002,-2.4372973,-6.9527617,-4.8219223,-1.7193892,-2.1231368,0.9662243,0.40701428,1.4748282,-1.8435353
1570715003,-1.8866309,-7.800309,-4.6830587,-1.2495933,-0.8703476,1.5329623,1.2306197,1.1827357,-1.982399
1570715003,-0.5602432,-9.107543,-0.79966336,-0.71161836,-0.7329243,1.531897,3.3279405,-0.33518824,2.0350714
1570715003,-1.757344,-11.415554,-1.2976574,-0.81708276,-0.89165354,0.93000424,3.0789435,-3.1651347,1.8722657
1570715003,-1.5035586,-9.682152,-1.8387469,-0.7297284,-0.5827174,0.12890093,2.5570073,-1.5466543,1.3694834
1570715003,-0.78529817,-7.493851,-2.6719291,-0.36007038,-0.24714889,-0.36326626,3.7062242,0.4261679,0.49799395
1570715003,-0.770933,-7.2544312,-2.3127987,0.08202787,-0.091615535,-0.78725445,3.6774938,0.91458505,0.866701
1570715003,-2.2697031,-6.8905125,-2.5953147,0.5145384,0.012783563,-1.2815522,2.3798366,1.2976574,0.6991069
1570715003,-5.2528787,-6.9000893,-2.5474305,0.85117227,-0.14274979,-1.804613,-0.81881696,1.7812861,0.4213795
1570715003,-9.931149,-8.719683,-3.2465374,0.8064298,-0.7808626,-1.865335,-5.875371,0.31124622,-0.24899697
1570715003,-8.963891,-8.054094,-7.97748,-0.40055165,-0.5486279,-0.019175345,-6.83784,1.9009962,-4.9943047
1570715003,-6.861782,-11.305421,-3.5338416,-0.01065297,-0.47086126,0.9577019,-3.5194764,-2.1164744,-2.5809495
1570715003,-2.9017725,-18.885464,-0.8762778,1.259181,-0.3792457,-0.2056023,-1.1971009,-8.614338,3.9025488
1570715003,5.377377,-11.8896055,-2.2649148,0.2098635,0.23756121,-1.015228,9.155427,-5.544971,-0.7038953
1570715003,-5.2289367,-8.1881695,-3.6248214,0.5901745,0.6189375,0.3142626,-2.1068976,0.866701,-1.5275006
1570715003,0.8379706,-11.099519,3.6487634,0.50282013,0.52519137,-0.06604841,2.896984,-0.47884035,4.7644615
1570715003,3.4332852,-12.023681,-2.585738,0.06604841,-0.054330144,-1.6597326,6.363788,-2.8634653,-0.6703765
1570715003,1.5035586,-6.95755,-4.146757,0.36859274,1.2623769,-1.7513481,3.892972,2.360683,-2.2505496
1570715003,0.37349546,-4.43885,-6.579266,0.54543203,1.4583915,-0.7883197,2.3463178,4.984728,-4.7309427
1570715003,0.24899697,-6.9240313,-1.8195933,0.31319728,1.922861,0.043677174,2.054225,2.5378537,0.01436521
1570715003,-1.2210429,-10.242394,-1.2449849,0.33769912,2.005954,0.0063917814,0.50757074,-0.7661445,0.60333884
1570715003,-2.7724855,-9.121908,-3.5625722,0.41013932,1.5404193,-0.12677033,-0.61291564,0.29209262,-1.4413095
1570715003,-2.6910827,-9.524135,-1.1300632,0.24501829,1.3039235,-0.31319728,-1.2306197,0.0,0.6847417
1570715003,-1.7956513,-9.069236,-0.7086837,0.3504827,1.0983212,-0.4538165,-0.34955344,0.641646,1.1587936
1570715003,-3.1842883,-9.255983,-1.7190368,0.74464256,0.63491696,-0.42718408,-2.078167,0.34955344,-0.10534488
1570715003,-3.0454245,-10.884041,-1.9776106,0.8341275,0.30360964,-0.674333,-2.111686,-1.2210429,-0.5746084
1570715003,-1.9440918,-9.576807,-3.1364043,0.6231987,0.3419603,-1.237875,-1.3215994,0.1340753,-1.9297266
1570715003,-0.4309563,-7.3645644,-4.9703627,0.6913777,0.6913777,-1.2442669,-0.20111294,2.384625,-3.9504328
1570715003,0.7422025,-5.1906295,-2.2409728,0.78618914,0.6647453,-0.68179005,0.6607997,4.582502,-1.4508862
1570715003,-0.45010993,-9.710882,-1.8291701,0.5475626,0.45807767,-0.16085984,-0.6464345,1.043872,-0.94810385
1570715003,-0.39264908,-10.175357,-4.2042184,0.26099774,0.33450323,-0.380311,-0.6512229,-0.38307226,-3.7110126
1570715003,-2.054225,-9.490616,-2.8395233,-0.39948636,0.16299044,-0.20134112,-1.7381904,1.6089035,-2.27928
1570715003,-2.0111294,-7.785944,-1.5610195,-1.0216198,-0.89165354,0.23649593,-2.3942018,1.3551182,-0.79487497
1570715003,-0.45489833,-5.544971,-1.9297266,-1.704475,-1.6767774,1.0429257,-0.89064306,4.357447,-0.7422025
1570715003,-0.16280572,-12.004527,-3.107674,-1.3145764,-1.9622769,3.1894991,0.61291564,-2.3750482,-1.4030021
1570715004,-3.3279405,-21.088129,-2.5187001,-0.8362581,-0.79045033,3.3897748,-0.8619126,-10.783484,-1.5897499
1570715004,-2.2170308,-11.420342,3.763685,-1.1867408,-0.6285252,1.2581156,0.15801731,-2.1643584,5.9663506
1570715004,-2.4181437,-8.42759,-1.0965444,-1.5308317,-2.3660245,0.9065677,0.22984336,0.31124622,2.72939
1570715004,-2.7102363,-7.1155677,-4.2664676,-1.5883577,-1.8866409,1.1867408,0.30645782,1.508347,-1.5753847
1570715004,-1.8962077,-8.274361,-3.8259344,-1.1356065,-0.5582156,1.6267084,1.2545617,0.34955344,-1.2066777
1570715004,-0.4213795,-9.045294,-0.6560113,-0.60189277,-0.56673795,1.5947496,3.5769374,-0.15322891,2.3175871
1570715004,-1.484405,-11.587936,-1.7046716,-0.60189277,-0.7126837,0.98539966,3.0262709,-2.9257145,1.4508862
1570715004,-1.982399,-8.882488,-1.982399,-0.5528891,-0.3792457,0.14807628,2.432509,-1.2114661,1.1923125
1570715004,-1.1587936,-7.2209125,-2.6719291,-0.31958908,-0.014914157,-0.36539686,3.3566709,0.6895301,0.5315128
1570715004,-1.3838485,-6.789956,-2.2888567,0.13635801,0.08522376,-0.87993526,3.1794999,1.3024458,1.0247183
1570715004,-3.2369606,-6.7468605,-2.078167,0.51666903,-0.05646074,-1.3614495,1.364695,1.6184803,1.0582372
1570715004,-6.9144545,-7.16824,-2.3654714,0.84478045,-0.65089643,-1.5904883,-2.3223755,1.4413095,0.7469909
1570715004,-10.764331,-8.844181,-4.3957543,0.8277357,-0.5944357,-1.4402815,-7.2448545,-0.10055647,-1.6759412
1570715004,-7.015011,-8.628703,-7.417237,-0.22158176,-0.7638179,-0.02450183,-4.132392,1.0199299,-4.271256
1570715004,-5.4683566,-9.227253,-4.501099,-0.03728539,-0.6647453,0.47618774,-1.9967642,-0.41180268,-1.9488802
1570715004,-5.023035,-13.503298,2.4660277,1.1941979,-0.05539544,-0.017044751,-1.1492168,-3.0502129,4.429273
1570715004,4.4436383,-16.103401,-1.8674773,-0.1736434,0.11079088,-1.0887334,7.7572136,-7.144298,0.34955344
1570715004,-3.6487634,-11.386824,-2.60968,0.09055024,0.40268224,0.17683929,1.7142484,-4.0414124,-0.89064306
1570715004,0.94331545,-9.5385,1.4030021,0.6231987,0.19281875,0.1736434,4.256891,-0.5554548,3.5290532
1570715004,3.0885203,-10.510546,-1.9776106,-0.02450183,0.09587672,-1.406192,6.2009826,-1.4413095,0.090979666
1570715004,2.9975405,-8.834604,-5.410896,0.02130594,1.3912778,-1.736434,5.5880666,0.37349546,-3.2609026
1570715004,0.22984336,-5.793968,-5.851429,0.3440909,1.8759879,-0.7382508,2.3750482,3.514688,-3.6391866
1570715004,0.08140286,-8.676587,-0.9816227,0.77766675,2.00915,-0.01065297,2.0159178,0.6847417,1.1875241
1570715004,-0.31603462,-9.68694,-1.0821792,0.8852618,2.0251296,-0.0010652969,1.8100165,-0.37828386,1.2545617
1570715004,-2.7581203,-7.714118,-4.0462008,0.61361104,1.5894231,0.059656627,-0.46926352,1.8674773,-2.2170308
1570715004,-3.169923,-9.715671,-2.2505496,0.28336897,1.6160555,-0.30041373,-1.364695,-0.22984336,-0.33039984
1570715004,-2.815581,-9.337387,-2.0254946,0.52519137,1.3156418,-0.5539544,-0.7086837,-0.58418524,-0.12449849
1570715004,-2.9161377,-9.332599,-1.4508862,0.95983255,0.7989727,-0.39522517,-1.7046716,-0.023942016,0.095768064
1570715004,-2.992752,-9.466674,-1.4413095,0.98539966,0.38883337,-0.5986969,-1.733402,0.038307227,0.39743748
1570715004,-2.2649148,-8.51857,-3.6631286,0.72333664,0.3898987,-1.0237503,-1.4939818,0.6751649,-1.9536686
1570715004,-0.30166942,-6.3350577,-3.643975,0.54330146,0.85543346,-1.1079088,0.076614454,3.4093432,-2.633622
1570715004,0.6512229,-5.3247046,-2.111686,0.5496932,0.8383887,-0.53690964,0.8379706,4.1946416,-0.8714894
1570715004,-0.047884032,-10.998962,-2.2601264,0.351548,0.47086126,-0.116117366,0.0,-1.2162545,-1.532289
1570715005,-0.81881696,-10.979809,-3.2369606,0.23756121,0.40268224,-0.26952013,-0.6464345,-1.3215994,-2.3942018
1570715005,-3.0358477,-8.202535,-3.2465374,-0.2077329,0.21945117,-0.243953,-3.1411927,1.5753847,-2.566584
1570715005,-2.3319526,-7.383718,-1.3599066,-0.76168734,-0.8596946,0.28123838,-2.6479871,2.207454,-0.5363012
1570715005,0.47884035,-4.7261543,-2.6144683,-1.6213819,-1.5436152,1.3156418,0.7230489,4.9943047,-1.3551182
1570715005,0.22026655,-7.848193,-2.3654714,-1.5148523,-1.754544,2.8549957,1.1875241,2.657564,-1.0486604
1570715005,-4.5202527,-23.223757,-4.453215,-1.0312074,-1.0003139,3.659295,-1.4221559,-11.362882,-2.327164
1570715005,-4.5872903,-13.977349,5.142745,-1.1611737,0.21838588,1.2613115,-2.8107927,-7.3310456,6.0381765
1570715005,-3.5482068,-8.303091,0.10534488,-1.5265706,-2.4480524,0.6626147,-0.36391866,-0.02873042,4.4723687
1570715005,-3.3375173,-6.7947445,-5.185841,-1.6299043,-2.216883,0.98433435,-0.21068975,1.7669208,-2.1164744
1570715005,-2.2936451,-7.680599,-4.2042184,-1.259181,-0.71907544,1.3752984,1.163582,0.7613561,-1.8148049
1570715005,-1.0199299,-8.250419,-0.9911995,-0.7180101,-0.8096257,1.416845,3.0885203,0.10534488,2.0685902
1570715005,-1.7142484,-11.15698,-2.1787236,-0.64343935,-1.104713,0.7979074,3.1411927,-3.0502129,1.2593501
1570715005,-1.6424223,-8.772355,-1.9967642,-0.5550197,-0.6498311,0.14061919,2.6910827,-1.1013328,1.1875241
1570715005,-0.79487497,-7.2592196,-3.2225955,-0.23436533,-0.19707993,-0.22158176,3.916914,0.6560113,-0.0047884034
1570715005,-0.81881696,-7.4363904,-2.6240451,0.092680834,0.15659864,-0.6626147,3.8115692,0.6751649,0.38307226
1570715005,-2.6240451,-7.1586633,-2.3175871,0.527322,0.29615256,-1.1643696,2.2697031,0.90979666,0.8523358
1570715005,-4.8219223,-6.8091097,-2.0733786,0.74570787,0.16725162,-1.5095258,-0.79487497,1.6184803,0.90500826
1570715005,-10.745177,-8.202535,-2.6862943,0.95557135,-0.6956389,-1.5404193,-6.2009826,0.90021986,0.38307226
1570715005,-8.892065,-8.236053,-7.762002,0.0063917814,-0.47938362,-0.30893612,-6.742072,0.94810385,-4.5537715
1570715005,-6.5026517,-14.274231,-4.10845,-0.1043991,-0.409074,0.6594188,-3.371036,-4.687847,-2.8203697
1570715005,-4.4340615,-16.338032,1.1492168,0.99711794,-0.5315832,0.42292288,-0.79487497,-7.5321584,3.4763808
1570715005,2.054225,-14.446613,-4.271256,0.028763017,-0.6125457,-0.43783703,5.7029886,-5.5880666,-2.1691468
1570715005,0.61291564,-7.656657,-1.2641385,0.14914156,0.83732337,-0.4559471,4.343082,0.60812724,-0.48841715
1570715005,1.3455414,-8.101978,1.6232687,0.39522517,0.36433154,-0.8479764,4.687847,1.1779473,3.2082303
1570715005,-1.9632454,-8.169016,-4.223372,0.13103153,0.57739097,-1.4871545,0.9959879,0.79966336,-1.2545617
1570715005,-0.5267244,-10.299856,-2.8874073,0.31532788,1.2506586,-1.0056403,1.9536686,-1.0486604,-0.7565677
1570715005,0.91937345,-6.555324,-4.1515455,0.9438531,1.0056403,-0.57526034,3.4620156,1.5753847,-1.4269443
1570715005,-0.81402856,-7.053318,-2.5187001,0.5528891,1.5436152,-0.05219955,1.292869,2.336741,-0.641646
1570715005,-2.456451,-8.959103,-1.2018893,0.5656727,1.5148523,-0.26099774,-0.1388637,1.0486604,0.08619126
1570715005,-3.0550013,-9.198523,-3.98874,0.1395539,0.936396,-0.3877681,-2.2026656,0.272939,-2.1739352
1570715005,-1.8387469,-9.504981,-1.3599066,0.39096397,1.140933,-0.29295665,-0.21068975,0.0,0.4261679
1570715005,-0.48362875,-10.089166,-1.8004397,0.56780326,0.6231987,-0.29189137,0.6943185,-0.033518825,-0.01436521
1570715005,-1.6089035,-8.911219,-1.1875241,0.653027,0.4218576,-0.4932325,-0.25378537,0.6799533,0.33039984
1570715006,-1.3599066,-10.19451,-1.2114661,0.63385165,0.113986775,-0.7126837,-0.25378537,-0.32561144,0.45968673
1570715006,-1.1779473,-10.160992,-2.992752,0.6999001,0.16618632,-1.1505207,-0.31124622,-0.45968673,-1.8291701
1570715006,-0.7422025,-8.75799,-5.104438,0.6647453,0.48151422,-1.316707,-0.18674773,0.4261679,-3.8019924
1570715006,-0.20111294,-5.0613422,-3.9839516,0.8224092,1.1313454,-0.89698005,-0.06703765,4.711789,-3.2225955
1570715006,-1.091756,-5.1523223,-0.7134721,0.6647453,0.58484805,-0.15127216,-0.8714894,5.386954,-0.34476504
1570715006,-0.81881696,-9.830592,-3.9504328,0.42292288,0.3472868,-0.23649593,-1.1109096,0.25857377,-3.0885203
1570715006,-1.292869,-8.810662,-5.66947,-0.25673655,0.409074,-0.26099774,-1.1827357,0.8619126,-5.4300494
1570715006,-0.7038953,-6.6367273,-1.3503298,-1.0269462,-0.31319728,0.32917675,-1.0726024,2.8921957,-1.1252748
1570715006,-0.08619126,-4.6926355,-1.5466543,-1.865335,-1.2708993,1.406192,-0.22026655,5.1666875,-0.33518824
1570715006,-0.04309563,-14.69561,-2.6001031,-1.8600085,-1.9452322,3.6827314,0.94331545,-2.4277205,-0.38307226
1570715006,-7.680599,-27.85893,-3.0693667,-1.2730298,0.23223473,3.2171967,-4.6926355,-19.464859,-4.4580035
1570715006,-5.2863975,-9.246407,7.7332716,-1.2751604,-1.1739572,0.6967042,-3.2848446,-2.0685902,11.056423
1570715006,-4.817134,-6.363788,-1.3790601,-1.6639938,-3.6827314,0.9246777,-2.5617957,2.207454,2.7389667
1570715006,-3.9839516,-6.349423,-6.411672,-1.610729,-1.9100775,1.392343,-0.81881696,3.6391866,-3.763685
1570715006,-0.7182605,-8.145074,-2.6431987,-1.1867408,-0.46020827,1.5084604,2.6048915,0.6607997,-0.81881696
1570715006,1.5945383,-9.672575,-1.5801731,-0.7467731,-1.2581156,1.3912778,5.5976434,-0.9576807,1.6376339
1570715006,-0.33997664,-10.644621,-2.5187001,-0.81282157,-1.2389404,0.6359823,4.8841715,-2.767697,0.4213795
1570715006,-2.135628,-8.202535,-3.083732,-0.6871165,-0.5582156,-0.04793836,2.7102363,-0.5793968,0.37828386
1570715006,-1.3120226,-7.321469,-3.371036,-0.39948636,0.22903883,-0.39948636,3.5482068,0.59376204,-0.33518824
1570715006,-1.4796166,-7.575254,-2.087744,0.120378554,0.33237264,-0.7552955,3.4093432,0.45010993,1.0630256
1570715006,-3.8594532,-6.7612257,-2.1930888,0.71161836,0.22690825,-1.2133732,1.1204864,1.115698,0.9911995
1570715006,-7.369353,-6.469133,-2.087744,0.98753023,-0.49855897,-1.6576021,-2.4899697,1.9393034,0.89064306
1570715006,-10.213664,-5.3486466,-5.9041014,0.14274979,-0.49216717,-1.3039235,-6.7229185,3.442862,-3.3183637
1570715006,-7.7332716,-6.7085533,-7.091625,-0.40055165,-0.6668759,-0.31745848,-5.0278234,3.9600096,-4.0222588
1570715006,-6.133945,-8.39886,-5.032612,-0.10972559,-0.9736814,0.50282013,-2.5761611,-0.35434186,-3.9312792
1570715006,-4.951209,-9.040505,2.801216,1.4562609,-0.46766534,-0.44849002,-1.3215994,-0.23463176,5.1379566
1570715006,4.462792,-28.09835,-0.6847417,0.15127216,0.4175964,-1.6416225,5.401319,-18.330008,-3.4284968
1570715006,-4.9799395,-9.471462,-2.8874073,0.74890375,-0.29828313,0.31532788,0.6895301,-2.2505496,0.39264908
1570715006,-0.79966336,-5.8801594,-1.7381904,0.16725162,-0.12890093,0.3440909,2.4995465,3.1651347,0.10534488
1570715006,6.090849,-13.057976,0.45010993,-0.40161693,0.6413088,-1.54255,9.208099,-3.9600096,2.3702598
1570715006,2.5617957,-9.380483,-5.659893,0.6785942,1.7002139,-1.6927568,5.0661306,-0.095768064,-3.7205894
1570715006,-0.7374141,-5.3582234,-5.5641246,0.14914156,1.7715888,-0.7648832,1.6328455,3.098097,-3.7349546
1570715006,-0.21068975,-6.555324,-1.1540052,0.52519137,1.9185997,0.3440909,1.7812861,2.8395233,0.80445176
1570715006,-1.8483237,-11.027693,-1.13964,0.66794115,1.797156,0.28123838,0.14844051,-1.6136919,0.7517793
1570715007,-1.958457,-7.8386164,-3.2369606,0.49003658,1.6757121,-0.27058542,-0.076614454,1.6089035,-1.412579
1570715007,-3.2082303,-8.432379,-2.7006595,0.26206306,1.4211061,-0.36433154,-1.4939818,1.0486604,-0.8714894
1570715007,-2.2122424,-10.563218,-0.6560113,0.71587956,1.395539,-0.4889713,-0.79966336,-0.9528923,0.59376204
1570715007,-3.1651347,-9.289502,-1.5227122,0.9907262,0.6157416,-0.4112046,-1.8483237,0.02873042,0.6799533
1570715007,-2.8778305,-10.065224,-2.7341783,0.9662243,0.37072334,-0.6604841,-1.70946,-0.40222588,-1.508347
1570715007,-2.1643584,-9.212888,-4.10845,0.7968421,0.44209823,-0.9353307,-1.2737153,0.23942018,-2.6048915
1570715007,-1.1971009,-6.8665705,-5.12838,0.61041516,0.9065677,-1.0184239,-0.7422025,2.4899697,-4.5154643
1570715007,-0.8714894,-5.329493,-2.336741,0.63917816,0.85756403,-0.4911019,-0.51714754,4.4484267,-1.6998832
1570715007,-1.7046716,-8.437167,-1.412579,0.44209823,0.30467492,0.08309316,-1.4030021,2.1308396,-0.4357447
1570715007,-0.8714894,-9.600749,-5.2720323,0.15446806,0.43890235,-0.063917816,-0.37349546,-0.16759412,-4.390966
1570715007,-2.408567,-4.7500963,-3.5434184,-0.42505348,0.2737813,0.3781804,-2.5330653,3.9743748,-3.7445314
1570715007,-1.043872,-2.2649148,-1.3599066,-1.485024,-0.54330146,1.2527891,-0.6895301,7.335834,-0.5602432
1570715007,-0.8810662,-5.793968,-1.1971009,-2.02726,-1.0738193,2.7569885,0.31124622,5.0661306,-0.2633622
1570715007,-6.5936313,-31.206024,-9.983821,-2.2286012,-1.1025823,3.974623,-2.207454,-18.511967,-5.861006
1570715007,-8.51857,-18.229452,9.275137,-2.0496314,1.1547819,1.1132354,-7.1826053,-13.699622,9.299079
1570715007,-5.3486466,-8.738836,2.2697031,-1.9324486,-3.1990867,0.46127358,-2.327164,-0.2825158,6.129156
1570715007,-4.8698063,-5.0038815,-5.056554,-1.6022066,-3.444105,0.7563608,-1.1587936,2.6192567,-0.5793968
1570715007,-3.2513258,-7.101202,-6.0716953,-1.2751604,-0.800038,1.1782184,0.33039984,1.3551182,-3.5242648
1570715007,-0.6799533,-7.752425,-1.163582,-0.8618252,-0.64770055,1.2549198,3.3901896,0.6895301,1.5897499
1570715007,0.8331822,-9.993398,-1.6328455,-0.7542302,-1.3252294,1.0162933,5.8226986,-2.15957,1.484405
1570715007,-0.90021986,-9.964667,-1.541866,-0.77340555,-1.1366718,0.23649593,4.865018,-2.6144683,1.7621324
1570715007,-2.0207062,-8.379706,-2.8921957,-0.5869786,-0.4474247,-0.4452941,3.169923,-0.92895025,0.48362875
1570715007,-1.5275006,-7.2304893,-2.6479871,-0.1736434,0.12677033,-0.7670138,3.5817258,0.31124622,0.79008657
1570715007,-2.5761611,-7.455544,-2.3942018,0.3451562,0.13209683,-1.11217,2.5187001,0.33997664,1.0199299
1570715007,-4.793192,-6.6654577,-2.5474305,0.63917816,0.09907261,-1.4722403,0.30645782,1.3838485,0.6512229
1570715007,-8.192958,-7.465121,-2.327164,0.6967042,-0.5859133,-1.7492175,-3.9983168,0.8331822,0.78050977
1570715007,-11.736377,-6.9479733,-5.4444146,0.43144527,-0.9449184,-1.5084604,-7.8865004,1.6089035,-2.5905263
1570715007,-8.09719,-7.469909,-7.675811,-0.3898987,-0.7254672,0.40268224,-4.213795,1.4700398,-5.2002063
1570715007,-6.9767036,-9.289502,-1.7812861,0.32385027,-0.8564987,0.44849002,-2.9831753,-0.7565677,0.9576807
1570715007,-0.8571242,-23.951593,-4.5441947,0.6029581,-0.8042992,-0.624264,1.8579005,-12.6222315,1.4987702
1570715007,6.14831,-14.12579,0.15322891,0.08628905,0.04900366,-1.0109668,9.911995,-5.3582234,2.4181437
1570715007,-4.7788267,-5.6359506,-5.257667,0.312132,0.08096257,-0.03728539,-1.1204864,3.2034419,-3.1028855
1570715007,1.5753847,-7.9966335,1.4796166,0.113986775,0.99818325,-0.07989727,4.3478703,1.4556746,1.9009962
1570715008,2.777274,-12.148179,-1.5514427,0.3483521,0.5614115,-1.3262947,6.8569937,-3.6966474,2.5761611
1570715008,-0.21068975,-7.714118,-5.60722,0.033024207,1.7417605,-1.5148523,2.9879637,0.6991069,-2.6910827
1570715008,-0.7517793,-5.9807158,-4.098873,0.83306223,1.639492,-0.21732058,1.7429788,3.2225955,-1.8148049
1570715008,-1.2210429,-8.025364,-0.59855044,0.89698005,1.7321728,0.24927948,1.2737153,1.9201498,1.484405
1570715008,-2.3942018,-8.7771435,-1.685518,0.60189277,1.5894231,-0.1374233,0.062249243,0.15322891,1.0103531
1570715008,-3.7062242,-7.771579,-3.7541082,0.35367858,1.348666,-0.36965802,-1.1540052,1.5131354,-1.7956513
1570715008,-2.6001031,-9.629479,-1.661576,0.40055165,1.2357445,-0.26738954,-1.3694834,0.5554548,0.08140286
1570715008,-1.8722657,-9.198523,-1.7621324,0.7638179,0.74890375,-0.3813763,-0.05746084,0.24420857,0.16759412
1570715008,-2.6048915,-9.284714,-1.508347,0.80323386,0.39309457,-0.47405714,-0.93852705,0.22026655,0.22026655
1570715008,-2.078167,-10.46745,-1.8052281,0.72759783,0.18110047,-0.84478045,-0.61291564,-0.8858546,-0.2825158
1570715008,-1.70946,-8.686164,-3.3566709,0.6402435,0.24714889,-1.0280116,-0.5554548,0.45489833,-1.733402
1570715008,-1.5514427,-7.7667904,-4.4196963,0.7254672,0.53264844,-0.975812,-0.7182605,1.5993267,-3.169923
1570715008,-1.0199299,-6.181829,-3.2848446,0.6285252,0.81175625,-0.6210681,-0.40222588,3.5577838,-2.3223755
1570715008,-1.0103531,-7.589619,-1.1779473,0.41440052,0.37498453,-0.05113425,-0.6943185,1.3934253,-0.34955344
1570715008,-0.90979666,-9.572019,-4.1802764,0.2865649,0.19601464,-0.19175345,-0.45010993,0.15801731,-2.920926
1570715008,-2.7868507,-8.197746,-5.080496,-0.13635801,0.20134112,-0.12570503,-2.0159178,1.1779473,-4.7405195
1570715008,-2.528277,-7.2687964,-1.0103531,-0.95983255,-0.6274599,0.30467492,-2.1164744,2.5187001,-0.30166942
1570715008,-0.7422025,-6.631939,-2.0638018,-1.7513481,-1.280487,1.1515859,-0.22505496,3.347094,-0.8810662
1570715008,-0.24420857,-12.095507,-1.8483237,-1.697018,-1.8717268,2.6472628,1.0582372,-1.1923125,0.22026655
1570715008,-5.00867,-22.821531,-3.5338416,-1.2208303,-0.9193513,2.651524,-1.8626889,-13.072341,-2.207454
1570715008,-3.715801,-10.821792,3.5290532,-1.0908641,-0.5347791,1.0248157,-1.1492168,-3.7110126,5.7843914
1570715008,-4.343082,-7.216124,-1.2018893,-1.4786321,-2.6653728,0.75742614,-1.0773908,1.1252748,3.2225955
1570715008,-3.3854012,-7.0820484,-4.3047748,-1.6245779,-1.998497,0.89591473,-0.076614454,1.2210429,-1.2880806
1570715008,-1.5514427,-7.6614456,-3.5913026,-1.2165691,-0.6988348,1.2623769,1.9871874,0.7182605,-0.7757214
1570715008,-0.22026655,-8.494628,-1.982399,-0.7222713,-1.054644,1.3199029,4.003105,-0.038307227,1.6903064
1570715008,-0.7469909,-10.793061,-2.6288335,-0.6551576,-0.9779426,0.88845766,4.146757,-2.4660277,0.45010993
1570715008,-2.1547816,-9.409213,-1.8291701,-0.68498594,-0.6029581,0.30147904,2.7820623,-1.5801731,1.4077905
1570715008,-1.3024458,-7.5704656,-2.9735985,-0.39522517,-0.011718267,-0.18429637,3.5769374,0.17238252,0.51714754
1570715008,-1.6807296,-7.3789296,-2.6240451,-0.04154658,0.28123838,-0.53690964,3.241749,0.51714754,0.49799395
1570715008,-2.60968,-7.599196,-2.1164744,0.28763017,0.26845482,-0.89271885,2.030283,0.33997664,1.2880806
1570715008,-5.463568,-7.3166804,-2.6910827,0.5891092,0.02450183,-1.2506586,-0.6751649,0.9816227,0.59376204
1570715008,-9.3661175,-7.2448545,-3.8307228,0.57739097,-0.43144527,-1.4402815,-4.7165775,0.91458505,-0.29209262
1570715008,-9.557653,-5.33907,-4.19943,0.25886714,-0.39842105,-1.1750225,-5.8226986,3.2273839,-1.2258313
1570715009,-6.885724,-8.863335,-7.599196,-0.65622294,-0.75209963,0.39309457,-3.1555579,-0.30166942,-4.6016555
1570715009,-8.063671,-7.7093296,-4.879383,-0.035154797,-0.98859555,0.47512242,-3.9456444,0.49320555,-3.0214825
1570715009,-4.0892963,-9.576807,0.4309563,1.434955,-0.61361104,-0.6658106,-1.0007763,0.0047884034,3.0310593
1570715009,4.1946416,-24.727316,-5.056554,0.11505207,0.028763017,-1.6256431,7.776367,-15.931018,-2.6144683
1570715009,-5.195418,-8.049306,-1.5658079,1.1973938,0.16405573,-0.12570503,-1.8770541,0.90021986,0.6847417
1570715009,-1.8195933,-5.9184666,-1.6041151,0.06285252,0.60508865,0.4570124,1.5945383,3.0214825,0.5267244
1570715009,3.5865142,-15.528792,1.8962077,-0.24821419,0.595501,-0.3781804,5.827487,-4.271256,3.1124623
1570715009,2.7246015,-8.700529,-5.257667,0.6455699,1.3465353,-1.8429637,6.655881,-1.4460979,-2.7964275
1570715009,-1.8626889,-4.5633483,-5.5737014,0.19281875,1.4413468,-0.66900647,1.3359646,4.5633483,-3.6104562
1570715009,0.062249243,-8.66701,-0.5793968,0.6210681,1.7801112,0.11505207,2.3750482,0.59855044,1.6424223
1570715009,-0.7326257,-10.117896,-1.8387469,0.6210681,1.5446806,-0.025567126,1.484405,-0.80924016,0.31603462
1570715009,-3.107674,-7.551312,-3.7349546,0.5347791,1.5617253,-0.15233746,-1.0295067,1.8004397,-1.6328455
1570715009,-3.8019924,-8.24563,-2.432509,0.35474387,1.4562609,-0.2066676,-2.0638018,1.6184803,-0.8571242
1570715009,-2.5187001,-9.605537,-0.770933,0.60189277,1.3199029,-0.36646214,-0.6991069,0.0,1.2114661
1570715009,-3.1124623,-9.983821,-1.2737153,0.8980453,0.64237404,-0.44103295,-1.4077905,-0.31603462,0.58897364
1570715009,-2.7102363,-10.271125,-1.9632454,0.8607599,0.19494934,-0.7382508,-1.3024458,-0.6895301,-0.41180268
1570715009,-1.9488802,-9.289502,-3.490746,0.760622,0.16405573,-1.0972558,-0.8475474,-0.16280572,-1.7142484
1570715009,-0.93373865,-7.1251445,-4.6160207,0.6572882,0.5614115,-1.1537166,-0.20111294,2.3319526,-3.4332852
1570715009,-0.320823,-5.827487,-3.5482068,0.63385165,0.77766675,-0.7254672,0.17238252,3.7972038,-2.7341783
1570715009,-0.8714894,-8.456321,-2.5761611,0.46553475,0.57632565,-0.033024207,-0.05746084,2.360683,-1.7956513
1570715009,-2.0111294,-10.127473,-2.858677,0.35687447,0.26099774,-0.13529271,-1.541866,-0.6368576,-1.8339585
1570715009,-2.4468741,-9.035717,-3.3327289,-0.15766394,-0.092680834,-0.21518998,-1.8722657,0.6368576,-2.8443117
1570715009,-1.412579,-8.738836,-1.2018893,-1.0067056,-1.0067056,0.13103153,-1.292869,0.9959879,-0.24420857
1570715009,-0.20111294,-7.335834,-3.0358477,-1.8024824,-1.4519997,1.0194892,0.07182605,2.2840683,-1.6280571
1570715009,0.2633622,-11.022904,-1.3120226,-1.5468111,-1.7023445,2.67283,1.4556746,-0.45968673,0.50757074
1570715009,-4.582502,-19.129671,-1.3982137,-1.298597,-1.0077709,2.8432775,-1.7190368,-9.696517,0.60812724
1570715009,-5.626374,-11.238382,3.6822822,-1.2336138,-0.46979594,1.1878061,-3.4237084,-3.2082303,5.803545
1570715009,-5.171476,-7.9583263,-0.60812724,-1.636296,-2.1700099,0.760622,-2.3750482,1.4221559,3.3039982
1570715009,-2.4612393,-6.847417,-5.6982,-1.531897,-1.6757121,1.1111047,0.320823,1.982399,-2.6623523
1570715009,-0.04309563,-8.451532,-5.0613422,-1.1601083,-0.56780326,1.5872924,3.5913026,-0.17238252,-2.5330653
1570715009,0.16759412,-8.571242,-2.1691468,-0.6711371,-0.6871165,1.5670518,4.4675803,-0.39264908,1.1252748
1570715009,-3.1316159,-10.721235,-1.2976574,-0.5113425,-0.73185897,0.96302843,2.2601264,-2.9735985,1.7812861
1570715009,-3.8067808,-8.882488,-1.7477672,-0.58058685,-0.26419365,0.35474387,0.7230489,-1.5179238,1.7717092
1570715009,-2.087744,-7.422025,-3.323152,-0.33769912,0.16512102,0.01065297,2.72939,0.062249243,0.18195933
1570715010,-1.6232687,-6.981492,-2.4899697,-0.039415985,0.33876443,-0.40800872,3.1794999,0.842759,0.89543146
1570715010,-2.5187001,-7.0102224,-2.1547816,0.32171968,0.22051647,-0.82880104,2.1547816,0.842759,1.3934253
1570715010,-4.5202527,-5.9519854,-2.60968,0.63811284,-0.059656627,-1.1292148,0.3878607,1.9871874,0.9624691
1570715010,-9.26556,-7.345411,-2.858677,0.9023065,-0.50708133,-1.2687687,-4.4196963,1.2976574,0.50757074
1570715010,-10.965444,-7.3645644,-5.645528,0.64343935,-0.5901745,-0.7766015,-7.038953,1.13964,-2.743755
1570715010,-7.9104424,-8.508993,-6.493075,-0.3526133,-0.7180101,0.3877681,-3.9504328,0.0047884034,-3.667917
1570715010,-5.66947,-8.75799,-1.0055647,0.25673655,-0.771275,0.059656627,-1.5370775,-0.30645782,1.7669208
1570715010,-2.7629087,-12.698846,-0.19153613,1.0951252,-0.6200028,-0.75209963,0.4213795,-2.1787236,3.4093432
1570715010,3.7541082,-20.93011,-1.7764976,0.32598087,0.42611876,-1.5233747,6.38773,-12.804191,-1.8579005
1570715010,-7.067683,-7.1059904,-4.7165775,0.556085,0.1725781,0.33663383,-3.4763808,1.7381904,-2.4708161
1570715010,-0.49320555,-8.255207,1.0151415,0.13209683,0.419727,0.3813763,3.193865,0.5506664,3.241749
1570715010,3.643975,-14.480132,-0.41180268,-0.14488038,0.39629045,-1.266638,6.1004257,-4.630386,3.347094
1570715010,1.3934253,-8.485051,-4.8985367,-0.01384886,1.1601083,-1.9889094,5.386954,-0.5602432,-3.122039
1570715010,-1.0342951,-5.080496,-5.391742,0.52093023,1.2826176,-0.50388545,1.5562311,4.074931,-3.0214825
1570715010,0.062249243,-7.905654,-0.7278373,0.771275,1.7715888,0.13422741,2.5330653,1.3024458,1.5610195
1570715010,-1.1827357,-9.744401,-1.0151415,0.624264,1.6735815,-0.0063917814,1.2018893,-0.49320555,1.2066777
1570715010,-2.801216,-7.881712,-3.8881836,0.3185238,1.5361582,-0.2801731,-0.5793968,1.4077905,-1.6711528
1570715010,-3.2130187,-8.968679,-2.528277,0.2844343,1.4573262,-0.25141007,-1.1587936,0.35434186,-0.29688102
1570715010,-2.4612393,-9.423578,-1.1013328,0.58484805,1.3049887,-0.3877681,-0.51235914,0.1436521,1.1779473
1570715010,-3.1364043,-9.500193,-1.436521,0.81282157,0.5891092,-0.40161693,-1.4317327,-0.047884032,0.5650316
1570715010,-2.6288335,-10.280702,-1.6903064,0.7414467,0.28976077,-0.6402435,-1.3215994,-0.7469909,0.33518824
1570715010,-1.6232687,-9.854534,-3.2273839,0.7350549,0.2769772,-0.9459837,-0.41180268,-0.019153614,-1.2785037
1570715010,-1.3455414,-8.0684595,-4.975151,0.74038136,0.6231987,-1.0855376,-0.25378537,1.3120226,-3.572149
1570715010,-0.545878,-5.6215854,-3.7541082,0.74570787,0.92041653,-0.8362581,-0.090979666,3.7972038,-2.6192567
1570715010,-0.7182605,-7.517793,-1.9440918,0.60508865,0.68179005,-0.2066676,0.18195933,3.169923,-1.2545617
1570715010,-1.364695,-9.998186,-3.7301662,0.4548818,0.50708133,-0.19281875,-0.93852705,-0.36870706,-2.4372973
1570715010,-1.9871874,-8.738836,-5.554548,0.031958908,0.6540923,-0.33663383,-1.4030021,0.49320555,-4.7644615
1570715010,-2.2697031,-7.4603324,-1.3359646,-0.56247675,-0.23116943,0.25034478,-1.9249382,2.408567,-0.6943185
1570715010,-1.9009962,-5.7748146,-2.7006595,-1.5958148,-0.8650211,1.0013791,-1.5227122,3.7924154,-1.2593501
1570715010,-0.9768343,-6.909666,-3.064578,-1.6980833,-1.2847481,2.3127596,-0.20111294,3.371036,-1.3215994
1570715010,-3.9121256,-20.254946,-4.8985367,-1.043991,-1.4232367,3.789261,-0.56982,-6.7468605,-1.484405
1570715010,-6.133945,-18.555063,3.964798,-1.0674275,0.66368,1.6874304,-4.1276035,-12.287044,3.6296098
1570715010,-3.9121256,-9.174581,3.8115692,-1.3081846,-2.3106291,0.7797974,-0.8858546,-0.59855044,7.6710224
1570715011,-4.525041,-7.4603324,-4.6399627,-1.6650591,-3.0073333,0.64343935,-1.436521,0.50757074,-0.63206923
1570715011,-3.241749,-6.105214,-6.105214,-1.678908,-0.5944357,1.0397298,0.7086837,2.3894134,-3.2082303
1570715011,-0.7086837,-8.145074,-1.2114661,-1.0897988,-0.60082746,1.1760879,3.3135753,0.4213795,1.5466543
1570715011,-0.47405192,-10.5919485,-1.9057846,-0.8362581,-1.5020686,0.89165354,4.185065,-2.231396,1.5801731
1570715011,-2.6048915,-9.9550905,-2.2457612,-0.975812,-1.0887334,0.094811425,2.4420857,-2.7102363,0.90979666
1570715011,-2.3223755,-7.5225816,-3.0023289,-0.7467731,-0.50921196,-0.25141007,2.6384103,0.22505496,0.37828386
1570715011,-1.436521,-7.1730285,-3.2082303,-0.33876443,-0.19281875,-0.50708133,3.4572272,0.58418524,0.24899697
1570715011,-1.7860745,-7.920019,-1.9153614,0.05113425,-0.019175345,-0.7648832,2.9640217,-0.076614454,1.5610195
1570715011,-3.8833952,-7.603985,-2.3989902,0.527322,-0.07350549,-1.0876682,0.641646,0.40222588,0.9911995
1570715011,-6.1770406,-6.6654577,-3.289633,0.6455699,-0.29721785,-1.3998002,-1.934515,1.5705963,-0.07182605
1570715011,-9.131485,-6.847417,-3.8498764,0.5283873,-0.6977695,-1.5617253,-5.2289367,1.6328455,-0.8523358
1570715011,-7.896077,-5.377377,-7.1490865,-0.37604982,-0.81175625,-0.5241261,-4.209007,3.2369606,-4.261679
1570715011,-7.1873937,-8.513782,-6.4260373,-0.5816521,-1.0035098,0.57206446,-3.3614593,0.019153614,-3.4715924
1570715011,-6.3206925,-8.992621,0.2825158,0.8309316,-0.88419646,-0.15020686,-3.1364043,-0.2873042,1.6567876
1570715011,0.33997664,-19.991585,-5.0134583,0.07457078,-0.5656727,-1.0855376,4.156334,-11.295844,-2.5617957
1570715011,2.3654714,-12.990938,-2.9017725,0.13635801,-0.19601464,-0.71481425,5.884948,-4.1706996,-0.45968673
1570715011,-5.023035,-6.0142345,-3.5817258,0.4548818,0.3100014,0.36220095,-1.4748282,2.825158,-1.2545617
1570715011,0.92895025,-11.640609,3.0023289,0.32171968,0.29934844,-0.03728539,4.501099,-2.7964275,5.2959743
1570715011,1.8004397,-12.095507,-4.3287168,0.04261188,0.6572882,-1.8131354,5.046977,-3.1364043,-2.006341
1570715011,0.8810662,-6.9862804,-6.301539,0.18429637,1.3017929,-1.7236505,4.1276035,1.2785037,-3.643975
1570715011,-0.33518824,-4.1419687,-4.3526587,0.84158456,1.6810386,-0.25567126,2.2505496,4.9320555,-3.4524388
1570715011,-0.0047884034,-9.160215,-0.22505496,0.8735435,1.7705235,0.26206306,2.3223755,0.110133275,1.9440918
1570715011,-2.4612393,-8.7532015,-3.667917,0.3504827,1.7705235,-0.29828313,-0.30166942,0.5746084,-1.5514427
1570715011,-3.596091,-8.403648,-3.9264908,0.22158176,1.5862272,-0.30467492,-1.1109096,1.0869676,-1.8818425
1570715011,-2.791639,-9.528923,-1.3359646,0.4218576,1.553203,-0.36646214,-0.6703765,-0.44532153,0.39743748
1570715011,-2.4037786,-8.872911,-1.1779473,0.8703476,0.9523755,-0.29934844,-0.7374141,0.58418524,0.80924016
1570715011,-2.7868507,-9.279925,-1.6807296,0.83306223,0.53264844,-0.2748466,-1.0965444,0.4309563,0.23942018
1570715011,-2.2170308,-10.955867,-1.8579005,0.63811284,0.3472868,-0.6317211,-0.91458505,-0.78050977,-0.20590134
1570715011,-1.6280571,-9.634268,-2.9640217,0.66900647,0.31745848,-0.9310695,-0.39743748,0.0047884034,-1.5466543
1570715011,-1.7238252,-8.298303,-3.98874,0.85010695,0.6317211,-0.8948494,-0.80445176,1.0534488,-2.72939
1570715011,-0.81881696,-6.4164605,-3.7588966,0.81282157,0.9662243,-0.6540923,-0.33997664,2.9783869,-2.96881
1570715011,-1.6232687,-7.2592196,-1.8770541,0.65622294,0.72333664,-0.035154797,-0.51714754,3.4141316,-1.364695
1570715011,-1.8004397,-10.1226845,-3.9456444,0.48044893,0.56673795,-0.22903883,-1.5275006,-0.110133275,-2.8203697
1570715012,-2.4372973,-9.083601,-4.6495395,0.10866029,0.574195,-0.31319728,-1.8100165,0.4357447,-4.4244847
1570715012,-1.9536686,-8.101978,-0.81881696,-0.5859133,-0.25886714,0.22264706,-1.8100165,1.5658079,-0.3878607
1570715012,-0.46926352,-5.0134583,-1.412579,-1.6512103,-0.9236124,0.77873206,-0.35434186,4.4101195,-0.48841715
1570715012,0.58897364,-7.4363904,-1.8052281,-1.9281875,-1.2794216,2.171075,1.7142484,3.3423057,-0.7565677
1570715012,-3.5673606,-18.995596,-4.2281604,-1.4232367,-1.3934084,3.648642,-0.038307227,-6.325481,-2.1643584
1570715012,-8.451532,-19.40261,1.8674773,-1.1686307,0.7329243,1.7747847,-5.9807158,-12.172121,1.5466543
1570715012,-4.5394063,-7.7907324,5.386954,-1.5191134,-1.8493555,0.38670278,-1.460463,-0.07182605,9.131485
1570715012,-4.367024,-6.622362,-1.9967642,-1.9058162,-2.992419,0.60402334,-1.043872,2.15957,0.82360536
1570715012,-2.3223755,-8.101978,-6.38773,-1.4669139,-0.94278777,1.366776,0.9624691,1.0965444,-3.4141316
1570715012,-0.770933,-8.183381,-2.4851813,-0.8852618,-0.25354066,1.5670518,3.3901896,0.062249243,0.80445176
1570715012,-1.0486604,-10.0987425,-1.6519991,-0.6967042,-1.0567746,1.3934084,3.5529952,-2.1212628,1.70946
1570715012,-3.2034419,-10.55843,-1.6903064,-0.7808626,-0.8618252,0.6317211,1.7286136,-2.791639,1.6998832
1570715012,-2.9113493,-8.259995,-2.777274,-0.71907544,-0.40055165,0.14274979,1.8483237,-0.9624691,1.0630256
1570715012,-1.6711528,-7.326257,-3.145981,-0.3142626,0.06285252,-0.24608359,3.3375173,0.30166942,0.4357447
1570715012,-2.054225,-7.40766,-2.087744,0.13103153,0.17896989,-0.67326766,2.8060043,0.30166942,1.5227122
1570715012,-4.0222588,-6.157887,-2.7629087,0.6253293,0.07457078,-1.0919293,0.60333884,1.7381904,0.7565677
1570715012,-6.7229185,-6.363788,-2.9496565,0.53904027,-0.3440909,-1.3199029,-2.3798366,1.757344,0.4165911
1570715012,-10.218452,-8.207323,-4.0797195,0.47938362,-0.9353307,-1.1249535,-6.105214,0.11492168,-0.92416185
1570715012,-8.341399,-6.8665705,-6.0142345,0.33663383,-0.5315832,-0.54649734,-5.233725,1.043872,-2.5474305
1570715012,-6.3302693,-8.307879,-5.257667,-0.22158176,-0.9246777,0.067113705,-2.2888567,0.12928689,-2.3175871
1570715012,-4.9895163,-12.138602,-0.91458505,0.8639558,-0.5986969,-0.31532788,-0.91937345,-3.643975,1.8243817
1570715012,-0.8571242,-19.709068,-2.873042,0.4527512,-0.067113705,-0.7957768,1.3455414,-10.778696,-0.89064306
1570715012,-0.9672575,-11.228806,-3.0693667,0.14061919,0.24608359,-0.2791078,4.477157,-3.5625722,0.009576807
1570715012,-3.1124623,-6.50744,0.45489833,0.5177343,0.39522517,0.18003519,-0.2681506,2.2505496,1.7525556
1570715012,1.9680338,-12.74673,-0.78529817,0.16299044,-0.04900366,-0.95557135,5.6407394,-3.9600096,1.5610195
1570715012,1.3263878,-9.600749,-4.7788267,0.04261188,0.93000424,-1.8024824,4.4915223,-1.4939818,-1.9728222
1570715012,0.80445176,-6.9862804,-6.0525417,0.49855897,1.1846102,-1.11217,3.7349546,1.2880806,-2.528277
1570715012,-0.89543146,-4.7261543,-2.9879637,0.81175625,1.7502829,0.045807768,1.5227122,4.7070007,-1.2689269
1570715012,-1.0295067,-9.02614,-0.8475474,0.63491696,1.6256431,0.22477765,1.8004397,0.5554548,1.3263878
1570715012,-2.432509,-9.586384,-2.7341783,0.43251055,1.7279116,-0.2077329,0.16280572,-0.37349546,0.10055647
1570715012,-3.7493198,-8.848969,-2.7246015,0.17790459,1.241071,-0.30680552,-1.5993267,0.23463176,-0.46447513
1570715012,-2.2170308,-9.246407,-1.3838485,0.44849002,1.2517239,-0.29828313,-0.37828386,0.110133275,0.6655881
1570715012,-2.719813,-8.853758,-1.3263878,0.9023065,0.83306223,-0.26632422,-0.48841715,-0.15322891,0.9816227
1570715012,-3.0023289,-8.987833,-1.6376339,0.78725445,0.4953631,-0.36326626,-1.13964,0.5267244,0.3878607
1570715013,-1.6376339,-9.89763,-2.0254946,0.6157416,0.35367858,-0.7244019,-0.272939,-0.7278373,-0.08140286
1570715013,-1.5370775,-9.26556,-3.3327289,0.79471153,0.45807767,-0.7936462,0.11492168,0.24420857,-1.6136919
1570715013,-1.508347,-8.781932,-4.098873,0.8298663,0.6785942,-0.82880104,-0.521936,0.6464345,-2.5570073
1570715013,-1.1444284,-7.551312,-3.7253778,0.77766675,0.96302843,-0.8522375,-0.25857377,1.6567876,-2.8060043
1570715013,-1.7429788,-6.8426285,-1.7669208,0.6785942,0.82880104,-0.3398297,-0.92895025,3.1747115,-1.0055647
1570715013,-1.8195933,-9.476251,-3.691859,0.49642837,0.74038136,-0.20347172,-1.3311762,0.41180268,-2.15957
1570715013,-2.2122424,-8.676587,-5.3678,0.12357444,0.85543346,-0.23436533,-1.2545617,1.1252748,-4.865018
1570715013,-3.2321723,-7.9248075,-1.1492168,-0.40694344,-0.15872924,0.3142626,-2.7006595,2.1021092,-0.6895301
1570715013,-1.3024458,-6.1530986,-1.4030021,-1.4765016,-0.89591473,0.78299326,-0.9816227,3.0933087,-0.4357447
1570715013,-0.22984336,-6.4739213,-1.9967642,-1.8472248,-1.434955,1.6948874,0.78529817,3.1651347,-0.50757074
1570715013,-3.691859,-17.592594,-4.084508,-1.3539925,-1.704475,3.5026963,-0.60812724,-5.463568,-1.6663644
1570715013,-6.679823,-19.938911,-0.6991069,-1.1068435,0.19494934,2.0847862,-3.9217024,-10.778696,1.4700398
1570715013,-3.347094,-9.294291,4.3622355,-1.2836828,-1.13028,0.8671517,-0.23942018,-0.32561144,6.83784
1570715013,-4.582502,-9.006987,-2.0494366,-1.9345793,-2.8645835,0.6935083,-1.1061212,-0.23463176,0.62249243
1570715013,-3.1555579,-6.339846,-5.00867,-1.7343034,-1.4978075,0.8905882,0.6703765,2.2026656,-2.0973208
1570715013,-1.3455414,-7.9248075,-3.2225955,-1.2059162,-0.40694344,1.277291,2.8443117,0.34476504,-0.033518825
1570715013,-1.6759412,-9.696517,-1.9201498,-0.82560515,-1.1132354,1.1750225,2.896984,-1.6807296,1.3934253
1570715013,-2.8682537,-11.252748,-2.0638018,-0.8724782,-1.0684928,0.46553475,2.0111294,-3.4332852,1.2785037
1570715013,-3.0119057,-7.9248075,-2.384625,-0.868217,-0.65089643,-0.04793836,1.982399,-0.21547815,1.0486604
1570715013,-1.7477672,-7.345411,-3.0885203,-0.409074,-0.31745848,-0.31319728,3.241749,0.32561144,0.4213795
1570715013,-1.7381904,-7.575254,-2.2361844,0.019175345,-0.12677033,-0.64663523,3.1555579,0.15322891,1.283292
1570715013,-2.8203697,-7.0341644,-2.6671407,0.37285393,-0.18003519,-0.9395919,2.2457612,0.5363012,1.0869676
1570715013,-5.133168,-6.4308257,-3.0933087,0.43890235,-0.25567126,-1.2687687,-0.6703765,1.6519991,0.21068975
1570715013,-8.020576,-7.517793,-3.3279405,0.54649734,-0.6572882,-1.3795595,-3.083732,1.0390835,0.320823
1570715013,-8.63828,-8.145074,-5.439626,0.32171968,-0.6551576,-1.0759499,-4.912902,-0.062249243,-2.2697031
1570715013,-6.1770406,-7.2544312,-6.2345014,-0.23010413,-0.89591473,0.043677174,-2.2601264,1.2689269,-3.371036
1570715013,-5.6551046,-7.929596,-3.8498764,0.09800732,-0.79151565,0.08735435,-1.8674773,0.7326257,-1.8914193
1570715013,-4.0940847,-15.255854,0.24420857,0.9694202,-0.204537,-0.46553475,-0.545878,-4.7884035,3.0693667
1570715013,2.801216,-18.104954,-1.0965444,0.60189277,0.05113425,-0.98753023,5.81791,-11.587936,1.067814
1570715013,-5.90889,-7.5082164,-4.9559975,0.57739097,0.61361104,0.22584295,-1.2306197,0.24899697,-3.265691
1570715013,0.18195933,-7.690176,2.3750482,0.09800732,0.6785942,0.22903883,2.4851813,2.4277205,3.6056678
1570715013,1.9776106,-13.158532,-1.8100165,-0.092680834,0.13209683,-1.4157796,6.469133,-5.094861,1.8674773
1570715013,-1.5562311,-7.675811,-3.6104562,0.4527512,1.4786321,-1.4211061,1.5370775,0.61770403,-2.135628
1570715014,-0.39264908,-6.2728086,-5.305551,0.44422883,0.9960526,-0.67646354,2.2266076,2.6431987,-2.896984
1570715014,0.56982,-7.40766,-2.681506,0.5262567,1.4051267,0.06285252,2.9113493,2.5761611,-0.7038953
1570715014,-1.6232687,-9.356541,-1.8914193,0.57206446,1.4296285,0.08735435,1.3455414,0.023942016,0.63206923
1570715014,-2.7341783,-9.069236,-2.9400797,0.49749365,1.4594568,-0.29189137,-0.19632454,-0.023942016,-0.81402856
1570715014,-3.0454245,-9.097966,-2.4420857,0.44103295,1.2336138,-0.2418224,-1.1492168,0.5793968,-0.51235914
1570715014,-1.5035586,-9.840169,-0.8810662,0.6881818,1.2623769,-0.20134112,0.37828386,-0.16280572,1.0869676
1570715014,-2.4756045,-9.691729,-2.030283,0.8724782,0.82560515,-0.28336897,-0.37349546,-0.047884032,-0.21068975
1570715014,-2.6384103,-9.490616,-1.7286136,0.8042992,0.58378273,-0.5859133,-0.9528923,-0.009576807,-0.21068975
1570715014,-2.2649148,-9.241618,-2.5953147,0.77340555,0.5134731,-0.8298663,-0.7230489,-0.545878,-1.0151415
1570715014,-2.384625,-8.75799,-4.3047748,0.7563608,0.65089643,-0.9246777,-1.1109096,0.7182605,-2.7964275
1570715014,-1.733402,-7.216124,-4.2904096,0.6988348,0.94704896,-0.8820659,-1.0965444,2.3750482,-3.3183637
1570715014,-1.6089035,-6.7851677,-2.5330653,0.54330146,0.8564987,-0.4154658,-0.6655881,3.3087866,-1.8387469
1570715014,-1.6663644,-9.097966,-2.681506,0.3398297,0.39629045,0.092680834,-1.0103531,0.6943185,-1.1540052
1570715014,-2.4612393,-10.031705,-5.9567738,0.12357444,0.48151422,0.1043991,-0.9864111,0.7086837,-5.1140146
1570715014,-3.3375173,-8.207323,-2.336741,-0.36113566,-0.14061919,0.3771151,-2.5953147,1.532289,-1.4891934
1570715014,-2.1547816,-7.0581064,-1.2449849,-1.3582536,-0.7925809,0.9790079,-1.1875241,2.6384103,-0.1436521
1570715014,-1.1252748,-6.622362,-1.8243817,-1.7811764,-1.5116564,1.5244399,-0.37828386,3.5338416,-0.02873042
1570715014,-5.3486466,-17.041927,-3.5673606,-1.3539925,-1.1750225,2.988158,-2.0111294,-6.3589997,-2.2361844
1570715014,-6.7324953,-17.434576,1.2306197,-1.5702477,-0.06604841,1.8717268,-3.7732618,-8.355764,3.4715924
1570715014,-3.7828386,-12.411542,2.9352913,-1.5585294,-1.434955,1.0748847,-0.9576807,-4.31914,5.5641246
1570715014,-2.4899697,-7.7811556,-4.5441947,-1.7002139,-2.6930707,0.57632565,0.8379706,0.90021986,-1.6376339
1570715014,-2.0015526,-5.5880666,-5.085284,-1.8514861,-1.162239,0.79045033,2.0685902,2.858677,-2.2170308
1570715014,-1.2497733,-8.135497,-2.6288335,-1.2059162,-0.7638179,1.1931325,3.1603463,0.038307227,0.50757074
1570715014,-1.8100165,-9.485827,-2.1691468,-0.91722065,-1.2027203,1.1185617,3.1794999,-1.2114661,1.0486604
1570715014,-3.514688,-10.989386,-1.9393034,-1.0450563,-0.8735435,0.43890235,1.5658079,-3.2752678,1.3551182
1570715014,-3.2609026,-8.408437,-2.1883004,-0.95557135,-0.42824936,0.040481284,1.6184803,-1.1923125,1.340753
1570715014,-2.0829554,-7.6470804,-2.7724855,-0.5187996,-0.26632422,-0.28763017,3.0262709,-0.2681506,0.7661445
1570715014,-2.0446482,-7.2592196,-1.5705963,0.015979454,-0.21518998,-0.7638179,2.9975405,0.35913026,1.982399
1570715014,-3.3375173,-6.4068837,-2.6527755,0.40800872,-0.3440909,-1.1675655,1.5035586,1.3934253,0.79008657
1570715014,-5.1810527,-6.0285997,-2.920926,0.43996763,-0.4175964,-1.4200408,-0.095768064,1.9249382,0.25378537
1570715014,-8.576031,-7.4124484,-4.477157,0.42505348,-0.72014076,-1.4956769,-3.7445314,1.0055647,-0.58418524
1570715014,-8.087613,-6.727707,-5.659893,0.08735435,-0.54330146,-1.1196271,-4.4675803,1.13964,-2.384625
1570715014,-6.090849,-7.872135,-6.339846,-0.5134731,-0.9236124,0.21305938,-2.0685902,0.5554548,-3.3518825
1570715015,-6.5505357,-8.671799,-1.7669208,0.33876443,-0.82453984,-0.018110048,-2.633622,0.23463176,-0.033518825
1570715015,-3.9743748,-16.156073,-2.8107927,0.839454,-0.5688686,-0.61787224,-0.8331822,-6.1770406,0.8523358
1570715015,2.6288335,-14.729129,-2.9496565,0.07350549,-0.21732058,-0.94704896,6.4739213,-7.8912888,-0.25857377
1570715015,-4.8027687,-8.394072,-4.132392,0.351548,0.5646074,0.18642697,-0.5554548,-0.5554548,-2.801216
1570715015,0.16280572,-9.643845,3.4476504,0.30254433,0.31745848,0.057526033,3.1842883,0.2873042,5.57849
1570715015,0.45968673,-12.176909,-3.083732,0.070309594,0.30041373,-1.2346791,4.477157,-4.156334,0.49799395
1570715015,0.81402856,-8.288726,-4.4005427,0.117182665,1.1505207,-1.7481523,3.7732618,0.23942018,-1.7812861
1570715015,-0.521936,-5.1666875,-5.9902925,0.74464256,1.3635801,-0.4431635,2.5953147,3.514688,-3.7493198
1570715015,-0.10055647,-7.704541,-0.9624691,0.7350549,1.6725162,0.21305938,2.6144683,2.2409728,0.60812724
1570715015,-2.0207062,-8.872911,-1.8818425,0.67646354,1.7449564,-0.08735435,0.82360536,0.21547815,0.50757074
1570715015,-3.7493198,-8.66701,-3.4715924,0.39948636,1.4562609,-0.25460598,-0.92416185,0.46447513,-1.5849615
1570715015,-2.5570073,-9.346964,-1.6711528,0.49216717,1.2815522,-0.30360964,-1.2018893,0.20590134,0.16759412
1570715015,-2.336741,-9.284714,-1.541866,0.7307937,1.1590431,-0.24821419,0.35434186,-0.61770403,0.6703765
1570715015,-2.6910827,-9.303867,-1.8435353,0.986465,0.8309316,-0.2418224,-0.7374141,0.02873042,0.1436521
1570715015,-2.5378537,-9.121908,-1.7429788,0.81601745,0.5912398,-0.59656626,-0.92895025,0.51235914,0.18195933
1570715015,-2.27928,-8.7771435,-3.016694,0.72759783,0.5347791,-0.85117227,-0.6991069,0.21068975,-1.0821792
1570715015,-1.8387469,-8.269572,-4.271256,0.7542302,0.7563608,-0.8905882,-0.56982,1.115698,-2.7485435
1570715015,-1.1971009,-6.3829417,-4.0078936,0.7638179,0.9662243,-0.7936462,-0.21068975,3.2944214,-2.7964275
1570715015,-1.3742718,-6.9767036,-1.9680338,0.56354207,0.8692823,-0.25247538,-0.32561144,3.2130187,-1.4460979
1570715015,-2.2122424,-10.572795,-2.1308396,0.4527512,0.5827174,-0.122509144,-1.4748282,-0.8331822,-1.2258313
1570715015,-1.8866309,-9.696517,-4.7165775,0.1747087,0.6999001,-0.43783703,-1.2641385,0.05267244,-3.892972
1570715015,-2.695871,-8.24563,-2.4468741,-0.22584295,0.12677033,-0.03089361,-2.1404164,1.5035586,-1.5753847
1570715015,-1.9728222,-6.7324953,-1.436521,-1.1846102,-0.7339896,0.47405714,-1.3215994,2.9879637,-0.34955344
1570715015,-0.46447513,-4.745308,-2.0398598,-1.8642696,-1.1878061,1.0674275,-0.0047884034,4.783615,-0.35434186
1570715015,-0.40701428,-9.749189,-3.0885203,-1.6544062,-1.5148523,3.1522136,1.2641385,-0.29688102,-1.0582372
1570715015,-5.023035,-22.438457,-4.084508,-1.0844723,-0.4218576,3.0765777,-3.2561142,-13.297397,-1.7717092
1570715015,-5.410896,-14.121001,4.232949,-1.3209682,0.5305179,1.1356065,-3.3183637,-7.52737,5.2385135
1570715015,-5.3725886,-7.8912888,-0.02873042,-1.8461596,-2.335131,0.6839206,-1.9440918,0.80924016,2.9113493
1570715015,-4.582502,-5.401319,-4.9799395,-1.7225852,-1.8397678,0.8735435,-0.78050977,2.8395233,-1.0247183
1570715015,-3.347094,-7.603985,-4.8602295,-1.2677033,-0.5262567,1.2932705,0.33518824,0.8858546,-1.958457
1570715015,-1.6280571,-9.059659,-1.5227122,-0.6839206,-1.1185617,1.2740952,2.9735985,-1.1492168,1.9967642
1570715015,-1.7621324,-10.773908,-2.2936451,-0.6913777,-1.1696961,0.7989727,3.265691,-3.0454245,0.93852705
1570715015,-2.231396,-8.695741,-2.0446482,-0.6935083,-0.7052266,0.12677033,2.6431987,-1.4652514,1.4221559
1570715015,-1.4269443,-7.3071036,-3.2944214,-0.26845482,-0.22584295,-0.32598087,3.6391866,0.25857377,0.2777274
1570715016,-1.8339585,-7.503428,-2.858677,0.046873067,0.08522376,-0.67752886,3.1411927,0.14844051,0.7230489
1570715016,-3.2609026,-7.16824,-2.681506,0.43464115,0.20347172,-0.96089786,1.9728222,0.5363012,0.8475474
1570715016,-6.2967505,-6.8665705,-2.1978772,0.6956389,-0.09587672,-1.2474627,-1.13964,1.1109096,1.2641385
1570715016,-10.907983,-6.71813,-3.490746,0.6903124,-0.9246777,-1.2911398,-6.042965,1.6232687,0.1340753
1570715016,-8.528147,-6.588843,-5.9902925,0.0031958907,-0.6903124,-0.6658106,-5.281609,1.5658079,-2.7485435
1570715016,-6.4164605,-8.647857,-5.90889,-0.30360964,-0.8437152,0.19175345,-2.3702598,0.22026655,-3.2369606
1570715016,-5.2863975,-10.745177,-1.0534488,0.7084225,-0.7542302,-0.06604841,-0.90021986,-1.5370775,1.5275006
1570715016,-1.6184803,-19.009962,-3.0310593,0.18855755,-0.16725162,-0.68498594,0.7278373,-9.878476,-1.2162545
1570715016,-0.37828386,-11.999739,-3.3375173,0.088419646,0.243953,-0.38883337,5.3821654,-4.7644615,0.1340753
1570715016,-3.1986535,-6.301539,-0.59855044,0.51666903,0.25993246,0.11505207,-0.2681506,2.207454,1.5514427
1570715016,0.9672575,-11.161768,0.24899697,0.15020686,0.0063917814,-0.6668759,4.745308,-1.3982137,3.8594532
1570715016,1.292869,-9.323022,-4.951209,-0.0074570784,0.98113847,-1.7588053,4.6830587,-1.0342951,-2.3080103
1570715016,0.5793968,-8.197746,-5.4539914,0.53797495,1.2922052,-1.043991,4.0414124,-0.01436521,-2.6623523
1570715016,-1.460463,-5.0374002,-3.1268275,0.9108289,1.6884956,0.054330144,1.340753,4.6686935,-1.4413095
1570715016,-0.6703765,-8.911219,-0.44532153,0.907633,1.6799732,0.1725781,2.1452048,0.6512229,2.135628
1570715016,-1.8387469,-9.112331,-3.0119057,0.4239882,1.6352308,-0.24714889,1.043872,-0.24899697,0.15801731
1570715016,-3.8786068,-8.78672,-3.7301662,0.23969181,1.3603842,-0.21305938,-1.4652514,0.4213795,-1.3790601
1570715016,-2.5761611,-9.461885,-1.0199299,0.5262567,1.366776,-0.3451562,-0.5602432,-0.22026655,1.067814
1570715016,-2.7724855,-9.165004,-1.6998832,0.86289054,0.95024484,-0.23223473,-0.6991069,0.15322891,0.5363012
1570715016,-3.1364043,-9.385271,-1.364695,0.88952297,0.5923051,-0.26738954,-1.1731589,0.0047884034,0.6512229
1570715016,-2.6288335,-10.271125,-1.9440918,0.71481425,0.3781804,-0.6072193,-0.8283938,-0.80445176,-0.11492168
1570715016,-1.6998832,-9.667787,-4.0222588,0.6615494,0.47618774,-0.8660864,-0.1388637,-0.12449849,-2.3654714
1570715016,-0.94331545,-6.4020953,-4.074931,0.8341275,1.0216198,-0.760622,0.08619126,2.504335,-3.0071173
1570715016,-1.283292,-5.6551046,-3.2944214,0.85117227,0.89698005,-0.5219955,-0.2681506,4.012682,-2.0159178
1570715016,-2.1452048,-7.7572136,-1.9153614,0.71907544,0.7265325,-0.16405573,-1.1731589,2.7485435,-0.91937345
1570715016,-1.5370775,-11.066,-4.5441947,0.4506206,0.7797974,-0.49962425,-0.7230489,-1.3359646,-3.6104562
1570715016,-2.8443117,-8.892065,-4.7309427,0.22158176,0.6295905,-0.3792457,-2.2026656,0.8523358,-3.8642416
1570715016,-3.1555579,-7.809886,-1.412579,-0.2428877,-0.16618632,0.18749227,-2.5139117,1.934515,-0.521936
1570715016,-2.054225,-6.315904,-1.4460979,-1.1579778,-0.7723403,0.6317211,-1.6472107,3.0071173,-0.39743748
1570715016,-0.6512229,-4.745308,-1.8674773,-1.8142006,-1.3316212,1.3774289,0.14844051,4.9081135,-0.2777274
1570715016,-1.4939818,-12.832921,-2.8538885,-1.5382888,-1.678908,3.2331762,0.50757074,-3.442862,-0.8523358
1570715016,-6.0238113,-21.930887,-3.9743748,-1.3145764,-0.46553475,2.648328,-2.566584,-12.559982,-1.9680338
1570715016,-6.191406,-10.55843,5.0182467,-1.553203,-0.27165073,0.7041613,-3.0550013,-2.954445,6.981492
1570715017,-4.2760444,-10.539276,-0.91937345,-1.6916915,-2.8933465,0.5219955,-0.7086837,-1.8722657,1.9776106
1570715017,-4.0797195,-6.0477533,-5.770026,-1.678908,-2.0975697,0.85543346,-0.06703765,3.016694,-2.087744
1570715017,-2.1308396,-7.062895,-3.9743748,-1.1665001,-0.4452941,1.1718266,1.6089035,1.1444284,-1.4939818
1570715017,-1.6567876,-8.37013,-1.8962077,-0.64663523,-1.043991,1.1238883,3.074155,-0.25857377,1.3934253
1570715017,-2.3080103,-10.58716,-1.9728222,-0.6594188,-1.09406,0.6626147,3.0214825,-3.2561142,1.2880806
1570715017,-2.1787236,-7.6949644,-2.6671407,-0.721206,-0.44209823,0.22797355,2.6671407,-0.40222588,0.9528923
1570715017,-1.4221559,-6.95755,-3.5817258,-0.41866168,-0.036220096,-0.057526033,3.6870706,0.51235914,-0.10055647
1570715017,-1.4748282,-7.273585,-2.1452048,-0.040481284,0.30041373,-0.36326626,3.6008794,0.41180268,1.2449849
1570715017,-3.371036,-7.177817,-2.3415294,0.41013932,0.25567126,-0.6572882,1.8962077,0.40222588,1.3263878
1570715017,-5.899313,-6.205771,-3.4237084,0.50495076,0.04793836,-0.8735435,-0.78050977,1.7477672,0.16759412
1570715017,-8.815451,-7.2113357,-4.0222588,0.33556855,-0.29508725,-1.1185617,-3.8163576,1.0869676,-0.48362875
1570715017,-9.552865,-7.800309,-4.3766007,0.26206306,-0.7638179,-1.022685,-5.5641246,0.37349546,-1.1923125
1570715017,-7.608773,-8.75799,-6.181829,0.20347172,-1.1036476,-0.36326626,-3.9025488,0.023942016,-3.217807
1570715017,-6.363788,-14.66688,-4.1659107,0.50282013,-1.0876682,0.35580918,-2.4995465,-5.109226,-1.436521
1570715017,-0.545878,-17.678785,-1.8435353,0.80323386,-0.43037996,0.37178862,1.982399,-10.0508585,0.24420857
1570715017,1.316811,-10.022128,-5.2863975,0.47938362,0.11824796,-0.5347791,6.540959,-3.6104562,-2.111686
1570715017,0.019153614,-4.486734,-0.80445176,0.11505207,1.1941979,-0.77447087,4.1515455,4.223372,0.45489833
1570715017,-0.91937345,-9.940725,1.0630256,0.7009654,0.60615396,-1.1451942,3.5242648,-0.80445176,4.1276035
1570715017,-4.5394063,-9.543288,-4.1180267,0.37604982,1.1547819,-1.172892,-0.6655881,-1.2258313,-2.2026656
1570715017,-0.9528923,-7.2304893,-2.4660277,0.85117227,0.60615396,-0.7627526,1.6663644,1.1971009,-0.2633622
1570715017,0.15801731,-5.971139,-2.7150247,0.7339896,1.0748847,-0.36007038,3.064578,3.3997664,-0.92416185
1570715017,-1.9776106,-6.981492,-2.2840683,0.5156037,1.2740952,-0.2769772,1.4413095,1.9919758,-0.47405192
1570715017,-4.7309427,-7.7428484,-2.1978772,0.52093023,1.1526513,-0.21518998,-2.054225,1.4796166,-0.22505496
1570715017,-4.146757,-10.5919485,-1.8339585,0.5614115,0.9065677,-0.32917675,-2.3511062,-1.2018893,-0.095768064
1570715017,-1.1540052,-9.26556,-1.9536686,0.5486279,0.7595567,-0.44849002,1.2306197,0.06703765,-0.12449849
1570715017,-2.0590134,-8.987833,-2.8299465,0.7169448,0.36539686,-0.49855897,0.15322891,0.41180268,-1.1348516
1570715017,-2.456451,-9.758766,-1.2737153,0.8224092,0.33876443,-0.65196174,-0.45489833,0.062249243,0.11971009
1570715017,-2.3511062,-10.553641,-2.3558946,0.7648832,0.26952013,-0.8383887,-0.5363012,-1.0007763,-1.0726024
1570715017,-1.4987702,-8.00621,-5.4061074,0.5944357,0.7542302,-1.1089741,0.23463176,1.6184803,-4.2904096
1570715017,-0.36870706,-5.813122,-4.5537715,0.6402435,1.104713,-0.82880104,0.81881696,3.86903,-3.572149
1570715017,-0.58897364,-6.0142345,-2.3798366,0.58484805,0.8905882,-0.24821419,0.63206923,3.7445314,-1.8243817
1570715017,-2.3463178,-9.739613,-4.0653543,0.47618774,0.18216577,-0.08735435,-1.316811,-0.009576807,-3.3758245
1570715017,-2.0638018,-9.217676,-4.9703627,0.12463974,0.13422741,-0.09374613,-0.90979666,0.49320555,-4.3239284
1570715018,-2.834735,-7.7572136,-1.6041151,-0.77447087,-0.72014076,0.05113425,-1.8004397,1.958457,-0.80924016
1570715018,-2.111686,-6.0142345,-0.58897364,-1.7982212,-1.230418,0.36007038,-1.388637,3.4763808,0.51714754
1570715018,0.0,-7.872135,-1.9967642,-2.3596327,-1.6512103,1.6597326,1.0869676,2.4995465,-0.23463176
1570715018,-3.2465374,-22.132,-4.486734,-1.8269843,-1.2325486,3.2416985,-0.7422025,-12.923901,-2.207454
1570715018,-5.8226986,-15.049952,3.1842883,-1.3902125,-0.039415985,1.122823,-2.7246015,-6.129156,5.8322754
1570715018,-6.05733,-8.379706,3.8355112,-1.678908,-1.815266,0.8820659,-2.6671407,0.1436521,7.393295
1570715018,-4.0222588,-4.548983,-3.4620156,-1.7321728,-2.5567126,0.6945736,-0.14844051,3.9073372,-0.35913026
1570715018,-3.0454245,-6.7612257,-5.861006,-1.8919674,-0.8767394,1.2964664,0.7517793,2.9113493,-2.873042
1570715018,-0.15322891,-8.714894,-2.384625,-0.8660864,-0.4836448,1.5073951,4.5058875,-0.8858546,1.2449849
1570715018,-1.1204864,-10.70687,-2.2744915,-0.6540923,-0.8138869,1.3156418,4.3622355,-2.6910827,1.436521
1570715018,-3.8594532,-10.773908,-1.2737153,-0.789385,-0.5550197,0.56780326,1.9057846,-4.012682,2.3080103
1570715018,-3.323152,-8.207323,-2.5905263,-0.71055305,-0.26419365,-0.05219955,1.7286136,-0.866701,1.4891934
1570715018,-2.111686,-7.4268136,-3.265691,-0.17790459,0.16299044,-0.43570644,3.0933087,-0.2681506,0.60812724
1570715018,-2.0925324,-7.3645644,-1.9632454,0.22264706,0.32491556,-0.868217,3.169923,-0.009576807,1.8722657
1570715018,-3.9456444,-6.191406,-2.5234885,0.4857754,0.03728539,-1.32736,1.3838485,1.0342951,1.4413095
1570715018,-8.010999,-6.555324,-2.8203697,0.60082746,-0.4506206,-1.4988728,-2.6719291,1.6663644,1.0390835
1570715018,-11.15698,-7.9583263,-5.4922986,0.44635943,-0.66368,-1.1547819,-7.091625,0.10055647,-1.436521
1570715018,-6.0764837,-5.7508726,-5.0661306,0.36646214,-0.55075854,-0.6700718,-2.5234885,2.135628,-1.7190368
1570715018,-5.0517654,-7.4603324,-5.57849,-0.09694202,-0.99392205,-0.020240642,-1.0151415,1.2258313,-2.4372973
1570715018,-5.0517654,-9.911995,-1.5801731,0.53371376,-0.5656727,-0.26632422,-0.91458505,-0.6512229,0.82360536
1570715018,-3.5817258,-21.868639,-4.620809,0.6796594,0.05539544,-0.9001759,-0.4261679,-11.678916,-0.59376204
1570715018,-0.47884035,-11.741165,-3.9360676,0.4836448,-0.11079088,-0.48151422,4.3526587,-5.7029886,0.2873042
1570715018,-3.217807,-5.185841,-1.4317327,0.64343935,0.82027864,0.116117366,-0.48841715,3.643975,-0.23463176
1570715018,2.9017725,-10.103531,2.9113493,0.23756121,0.7414467,-0.6359823,6.540959,-1.3742718,5.506664
1570715018,0.35434186,-10.443508,-6.215348,0.26206306,0.88845766,-1.618186,3.5769374,-1.5562311,-3.6104562
1570715018,-0.076614454,-5.861006,-4.381389,0.32598087,1.4306937,-0.78725445,2.6240451,3.0023289,-1.4317327
1570715018,-1.364695,-5.8945246,-4.1371803,0.6413088,1.9249916,0.2769772,0.9911995,3.8067808,-2.4660277
1570715018,-0.79487497,-9.80665,-1.292869,0.5358444,1.9281875,0.25567126,1.8052281,-0.63206923,1.2785037
1570715018,-2.7629087,-9.552865,-2.3750482,0.53264844,1.9420363,-0.22371235,-0.17717093,-0.5793968,0.21547815
1570715018,-4.146757,-8.939949,-2.7581203,0.40587813,1.356123,-0.22903883,-2.0207062,0.2681506,-0.1436521
1570715018,-2.8443117,-9.284714,-2.1883004,0.62213343,1.4988728,-0.043677174,-0.8523358,-0.023942016,0.36391866
1570715018,-2.0159178,-9.471462,-2.207454,0.7979074,1.241071,-0.0085223755,-0.12928689,-0.15322891,0.21547815
1570715018,-2.3989902,-9.11712,-2.3080103,0.87567407,0.9768773,-0.25886714,-0.62249243,0.2633622,-0.06703765
1570715018,-2.695871,-9.351752,-1.5035586,0.8469111,0.8319969,-0.43890235,-1.0821792,0.10055647,0.5410896
1570715019,-2.633622,-8.963891,-2.2984335,0.8085604,0.7297284,-0.4548818,-1.2785037,0.8379706,-0.090979666
1570715019,-2.9113493,-8.825027,-3.6583402,0.9310695,0.81175625,-0.556085,-1.4317327,0.7613561,-2.030283
1570715019,-1.4939818,-7.651869,-3.9312792,0.74464256,1.1164312,-0.8341275,-0.48362875,1.9967642,-2.5139117
1570715019,-0.8331822,-6.4020953,-2.6048915,0.6583535,0.95876724,-0.5646074,-0.08140286,3.2944214,-1.3599066
1570715019,-3.064578,-9.193734,-2.1787236,0.4847101,0.7254672,0.0063917814,-2.4037786,0.5267244,-1.0726024
1570715019,-2.801216,-8.542512,-4.0892963,0.43996763,0.6935083,-0.07989727,-2.3511062,1.5658079,-3.4045548
1570715019,-3.1507695,-7.043741,-4.984728,0.044742472,0.5262567,-0.018110048,-2.4468741,2.3989902,-4.1706996
1570715019,-2.801216,-5.4061074,-1.6663644,-0.8266704,-0.4538165,0.6839206,-1.6711528,4.6591167,-0.5602432
1570715019,-0.7757214,-3.7588966,-1.9201498,-1.6586673,-0.674333,1.2858135,-0.1388637,5.8466406,-0.4213795
1570715019,-0.2825158,-7.5800424,-2.60968,-1.8429637,-1.3891472,2.8432775,1.2641385,3.5482068,0.2825158
1570715019,-7.374141,-28.529308,-9.715671,-1.646949,-0.71161836,3.5314593,-3.040636,-17.448942,-5.391742
1570715019,-6.133945,-15.107412,8.317456,-1.7002139,1.0216198,0.8905882,-4.1706996,-10.251971,9.672575
1570715019,-5.45878,-10.04607,2.4660277,-1.5308317,-3.1969562,0.82560515,-2.15957,-1.934515,6.9527617
1570715019,-5.4300494,-2.1308396,-5.463568,-1.8717268,-2.7793598,0.7755362,-1.2497733,6.670246,-0.45489833
1570715019,-2.8778305,-6.5936313,-4.7884035,-1.6043372,-0.1384886,1.2847481,0.93373865,1.6232687,-2.3463178
1570715019,-0.7757214,-8.7292595,-1.685518,-0.87460876,-0.5923051,1.3763636,3.7684734,-0.50757074,1.8004397
1570715019,-1.0342951,-11.391612,-1.6280571,-0.7957768,-1.259181,0.88845766,4.486734,-3.3806129,2.231396
1570715019,-3.7924154,-8.250419,-2.408567,-0.9044371,-0.9438531,0.14701098,1.7429788,-1.508347,1.5275006
1570715019,-2.7485435,-7.1826053,-4.0701427,-0.6413088,-0.18642697,-0.27165073,2.4181437,-0.06703765,-0.22984336
1570715019,-1.8148049,-6.871359,-2.6623523,-0.16512102,0.23116943,-0.53797495,3.4332852,0.36870706,0.8714894
1570715019,-3.1268275,-7.1873937,-2.15957,0.39309457,0.13422741,-0.91295946,2.3894134,0.08140286,1.8579005
1570715019,-5.674258,-5.66947,-3.739743,0.51240784,-0.08522376,-1.1931325,-0.25378537,1.7525556,0.18195933
1570715019,-7.28795,-5.9998693,-3.572149,0.57206446,-0.49429777,-1.4232367,-2.6431987,1.8291701,0.07182605
1570715019,-9.423578,-7.053318,-5.0182467,0.39842105,-0.8767394,-1.5553335,-4.9320555,1.091756,-1.7429788
1570715019,-8.384495,-5.837064,-5.305551,0.16405573,-0.88952297,-0.6828553,-4.2664676,2.4612393,-2.0829554
1570715019,-6.066907,-8.825027,-6.4499793,-0.08628905,-1.1899366,0.08735435,-1.910573,-0.49320555,-3.3566709
1570715019,-5.650316,-16.807297,-1.7142484,0.8905882,-0.2844343,-0.057526033,-1.5945383,-6.133945,1.2737153
1570715019,2.6479871,-13.201628,-1.3742718,0.10120321,-0.12890093,-0.83306223,6.4547677,-7.52737,1.8100165
1570715019,-3.323152,-9.433155,-5.645528,-0.026632423,0.22158176,-0.06178722,0.7038953,-0.90979666,-2.9352913
1570715019,-1.4317327,-10.395624,2.566584,0.54223615,0.7222713,0.14488038,2.566584,-1.8626889,5.2863975
1570715019,-0.45489833,-9.495404,-3.2609026,0.08415846,0.18110047,-1.2783563,3.8833952,-1.7286136,0.23942018
1570715019,0.20111294,-8.820239,-4.76925,0.09694202,1.0993865,-1.5340276,3.6104562,-0.02873042,-2.0685902
1570715019,0.7565677,-6.9048777,-5.1235914,0.77873206,1.668255,-0.73612016,4.036624,1.1923125,-2.552219
1570715020,-0.25378537,-5.554548,-2.4899697,0.9672896,1.8664002,-0.07989727,2.6144683,3.5529952,-0.47405192
1570715020,-1.6089035,-8.1881695,-1.4030021,0.82027864,1.7247157,0.05646074,1.0055647,0.90979666,1.1492168
1570715020,-2.2744915,-8.748413,-2.6767175,0.6274599,1.8418984,-0.07776668,0.521936,-0.10534488,0.39743748
1570715020,-3.016694,-9.14585,-3.4380736,0.2791078,1.4306937,-0.19494934,-0.7038953,0.04309563,-0.91458505
1570715020,-2.6910827,-9.23683,-1.5945383,0.63385165,1.4690444,-0.29082605,-0.5650316,0.0,0.90500826
1570715020,-2.96881,-8.916007,-1.388637,0.8767394,0.8618252,-0.23223473,-1.0007763,0.39743748,0.9576807
1570715020,-2.896984,-9.385271,-2.006341,0.70948774,0.49216717,-0.3206544,-1.0486604,0.0,0.15322891
1570715020,-2.7150247,-9.959879,-3.217807,0.6285252,0.39735577,-0.6231987,-1.0390835,-0.50757074,-1.2066777
1570715020,-2.6001031,-9.385271,-3.9025488,0.72333664,0.47299185,-0.7925809,-0.90979666,0.22505496,-1.7717092
1570715020,-2.2744915,-7.6470804,-4.0462008,0.78299326,0.75316495,-0.9001759,-1.1252748,1.9536686,-2.4133554
1570715020,-1.3982137,-5.7125654,-2.6719291,0.77873206,0.5688686,-0.61361104,-0.50278234,3.9456444,-1.2449849
1570715020,-2.207454,-7.675811,-2.0350714,0.5912398,0.19601464,-0.21625528,-1.043872,2.7150247,-0.6703765
1570715020,-1.9728222,-10.25676,-4.620809,0.36646214,0.2865649,-0.39309457,-1.2737153,-0.5363012,-3.5051112
1570715020,-2.504335,-8.154651,-4.572925,0.053264845,0.29721785,-0.31106672,-1.6376339,1.2545617,-3.940856
1570715020,-1.4796166,-6.3829417,-1.6280571,-0.68072474,-0.49749365,0.21518998,-1.3215994,2.9017725,-0.5363012
1570715020,0.35913026,-4.5681367,-1.9393034,-1.8450943,-0.8085604,0.9491796,0.90979666,5.0182467,-0.61770403
1570715020,0.1436521,-8.51857,-1.8243817,-1.8600085,-1.3358823,2.7101154,1.8722657,2.3223755,-0.47884035
1570715020,-6.172252,-24.420856,-6.133945,-1.4264326,-1.1526513,3.7754123,-2.456451,-13.034034,-2.5378537
1570715020,-8.341399,-16.49605,5.9519854,-1.266638,0.4495553,1.3081846,-6.181829,-10.85531,7.091625
1570715020,-6.0716953,-8.662222,3.1028855,-1.6437532,-2.7133112,0.73612016,-3.0023289,-0.35913026,7.6710224
1570715020,-4.390966,-2.0638018,-5.626374,-2.0293906,-2.648328,0.68179005,-0.842759,5.7604494,-0.9768343
1570715020,-2.207454,-8.054094,-4.984728,-1.5073951,-0.22371235,1.4200408,1.5801731,0.019153614,-2.4995465
1570715020,-0.81402856,-8.7053175,-1.9153614,-0.8064298,-0.6839206,1.5872924,3.715801,-0.36870706,1.9440918
1570715020,-2.3894134,-10.984597,-2.207454,-0.692443,-1.1579778,1.1899366,3.3758245,-3.217807,1.5227122
1570715020,-4.247314,-8.7771435,-2.0207062,-0.7808626,-0.70203066,0.40694344,1.1875241,-2.0015526,1.7429788
1570715020,-2.542642,-7.6710224,-3.787627,-0.47725302,-0.12463974,0.05646074,2.858677,-0.61770403,0.10534488
1570715020,-1.6663644,-7.177817,-2.585738,-0.046873067,0.2087982,-0.22584295,3.7541082,-0.16280572,0.9528923
1570715020,-2.552219,-7.2304893,-2.2457612,0.50282013,0.17044751,-0.64770055,2.9783869,0.04309563,1.6998832
1570715020,-4.8602295,-5.731719,-2.8682537,0.9353307,-0.068179004,-1.0652969,0.770933,1.5227122,0.93373865
1570715020,-7.311892,-5.568913,-2.4708161,1.0589051,-0.37604982,-1.3326864,-1.7429788,2.231396,0.7422025
1570715020,-11.597513,-6.38773,-4.261679,0.81069094,-0.6668759,-1.0876682,-6.469133,1.6950948,-0.56982
1570715020,-7.7572136,-6.5026517,-6.8522053,-0.116117366,-0.42611876,-0.03728539,-4.247314,2.303222,-3.8977604
1570715020,-7.019799,-8.925584,-4.8267107,-0.6029581,-0.70735717,0.3504827,-2.3750482,-0.80924016,-1.8579005
1570715021,-5.305551,-13.589489,-0.866701,0.84584576,-0.5582156,-0.33024204,-0.8283938,-4.050989,2.8491
1570715021,0.1340753,-18.693928,-1.8962077,0.50068957,-0.0074570784,-0.9736814,3.8594532,-11.453861,-0.60812724
1570715021,-5.023035,-9.591172,-4.7309427,0.68072474,0.32598087,0.033024207,0.2825158,-2.5234885,-2.3558946
1570715021,-2.0494366,-7.1969705,-0.110133275,0.4932325,0.87886995,-0.068179004,2.360683,1.5514427,1.757344
1570715021,1.9057846,-9.744401,0.8331822,0.36220095,0.15127216,-1.0077709,6.143522,-1.2354081,3.2369606
1570715021,-1.6184803,-8.810662,-4.951209,0.27165073,0.95131016,-1.4115185,2.231396,-0.11492168,-2.552219
1570715021,-2.528277,-8.288726,-2.7485435,0.39842105,1.5180482,-1.1878061,0.9911995,0.7422025,-0.81402856
1570715021,-0.34476504,-5.995081,-5.0757074,0.6231987,1.1068435,-0.46127358,3.0550013,2.7006595,-1.8722657
1570715021,-1.4652514,-8.111555,-2.3798366,0.5539544,1.5127217,0.1395539,1.5705963,0.89064306,0.033518825
1570715021,-2.8299465,-8.523358,-1.70946,0.60934985,1.4626527,-0.13209683,0.1436521,0.48362875,0.60333884
1570715021,-3.9935284,-9.452309,-1.8483237,0.42079228,1.2400056,-0.380311,-1.2449849,-0.33518824,0.50757074
1570715021,-3.4332852,-8.954314,-2.542642,0.38670278,0.9438531,-0.40374753,-0.866701,0.21547815,-0.19632454
1570715021,-2.5187001,-9.361329,-1.2162545,0.77340555,0.9246777,-0.29615256,-0.272939,0.023942016,1.0869676
1570715021,-3.0454245,-9.141062,-2.3942018,0.8522375,0.49429777,-0.39842105,-0.770933,0.17717093,-0.35434186
1570715021,-2.896984,-8.552089,-2.1452048,0.6935083,0.32385027,-0.6295905,-0.79966336,0.842759,-0.2873042
1570715021,-2.5617957,-8.465898,-2.360683,0.6168069,0.21305938,-0.77766675,-0.62249243,0.4165911,-0.1340753
1570715021,-2.1404164,-8.154651,-4.050989,0.7126837,0.28336897,-0.89698005,-0.59376204,1.0965444,-1.7381904
1570715021,-1.8866309,-7.7093296,-5.1762643,0.6615494,0.70735717,-0.9310695,-0.60812724,1.8674773,-3.8977604
1570715021,-0.7374141,-6.2871737,-3.0933087,0.56673795,0.7840586,-0.60189277,0.33518824,3.5098996,-2.1787236
1570715021,-1.934515,-8.959103,-3.3183637,0.32385027,0.47086126,-0.05646074,-0.5315128,1.3263878,-1.541866
1570715021,-2.6144683,-9.89763,-5.559336,0.40268224,0.4953631,-0.25886714,-1.7381904,-0.60333884,-4.309563
1570715021,-3.9312792,-7.699753,-3.5242648,0.12570503,0.04793836,-0.08415846,-3.107674,1.7429788,-3.2225955
1570715021,-2.15957,-7.16824,-1.1348516,-0.81921333,-0.8852618,0.3483521,-1.4748282,2.3702598,-0.023942016
1570715021,0.5793968,-6.8569937,-1.6711528,-1.7630664,-1.3944737,1.9995624,2.2457612,2.6288335,0.15801731
1570715021,0.39743748,-7.5848308,-1.9393034,-1.736434,-1.5414847,2.2829313,2.2457612,2.6288335,0.15801731
1570715021,-5.1762643,-20.69548,-4.735731,-1.2027203,-1.0418605,3.06699,-1.5131354,-9.251195,-2.4995465
1570715021,-8.130709,-17.884687,3.6966474,-1.5563989,-0.043677174,1.4754362,-5.631162,-10.462662,4.7500963
1570715021,-4.9559975,-10.405201,2.681506,-1.5297664,-2.8177104,0.74038136,-1.6663644,-2.2218192,7.062895
1570715021,-3.466804,-1.958457,-5.161899,-1.9718646,-2.7165072,0.47299185,0.45489833,5.48751,-0.90500826
1570715021,-2.4037786,-7.929596,-5.793968,-1.8099395,-0.46660006,1.1952631,1.6711528,0.5650316,-3.3997664
1570715021,-0.60333884,-8.935161,-1.8531121,-1.0493175,-0.85756403,1.3369477,3.940856,-0.51235914,1.3551182
1570715021,-2.0111294,-11.434708,-1.6280571,-1.0237503,-1.2240262,0.95131016,3.4811692,-3.3518825,1.9249382
1570715021,-3.4572272,-9.65821,-2.4516625,-1.0652969,-0.653027,0.26632422,1.7238252,-2.3654714,1.3263878
1570715021,-2.2697031,-7.5321584,-3.4524388,-0.7648832,-0.09374613,-0.10759499,3.1028855,-0.45489833,0.33518824
1570715022,-1.910573,-7.2592196,-2.6144683,-0.28869548,0.17683929,-0.43251055,3.4476504,0.05746084,0.9720459
1570715022,-3.0358477,-7.216124,-2.2026656,0.30680552,0.031958908,-0.8437152,2.5809495,-0.19632454,1.7860745
1570715022,-5.650316,-5.7987566,-3.2704794,0.57632565,-0.36433154,-1.1292148,-0.15801731,1.5370775,0.50278234
1570715022,-8.025364,-5.583278,-2.9352913,0.6210681,-0.75316495,-1.3369477,-3.193865,2.1691468,0.62728083
1570715022,-10.625467,-6.7229185,-4.501099,0.53371376,-0.818148,-1.4573262,-5.9902925,1.3215994,-1.340753
1570715022,-7.3310456,-6.5218053,-7.785944,-0.24927948,-0.85117227,-0.29721785,-3.715801,2.60968,-3.6870706
1570715022,-6.033388,-7.795521,-6.5218053,-0.31106672,-1.11217,0.3462215,-1.532289,0.35434186,-3.442862
1570715022,-5.530606,-10.817003,0.5650316,0.96302843,-0.40694344,-0.22690825,-0.9528923,-2.633622,3.4476504
1570715022,0.5410896,-21.059399,-2.5905263,0.3483521,0.14594568,-1.2495933,4.936844,-12.717999,0.10055647
1570715022,-1.5753847,-11.070788,-3.1316159,0.43251055,0.045807768,-0.36007038,4.6495395,-4.012682,0.7565677
1570715022,-3.241749,-6.9719152,-0.23942018,0.4570124,0.64343935,0.41226992,1.0007763,1.484405,2.3223755
1570715022,2.1643584,-13.192051,0.01436521,0.17151281,-0.24927948,-0.818148,6.3542113,-4.687847,2.5234885
1570715022,0.4213795,-8.312668,-5.109226,0.3845722,1.2400056,-1.4679792,4.2185836,0.36870706,-2.6001031
1570715022,-0.5554548,-7.704541,-5.841852,0.22051647,1.4573262,-1.1579778,2.9352913,0.8379706,-2.3798366
1570715022,-0.89064306,-6.6750345,-2.4995465,0.47405714,2.00915,-0.22477765,2.1643584,2.2457612,0.17717093
1570715022,-1.6711528,-9.3661175,-0.8379706,0.6285252,1.7481523,-0.014914157,1.2210429,-0.38307226,1.8387469
1570715022,-2.2170308,-8.432379,-2.1068976,0.74464256,1.736434,0.02130594,0.641646,0.21068975,1.1109096
1570715022,-2.9783869,-7.785944,-3.3279405,0.47938362,1.4903504,0.10972559,-0.59376204,1.5370775,-0.78050977
1570715022,-1.9632454,-9.830592,-1.9249382,0.4527512,1.6565367,-0.12144385,0.41180268,-0.7422025,0.521936
1570715022,-3.1411927,-9.126697,-2.0159178,0.8309316,1.1569124,-0.17151281,-0.36391866,-0.090979666,0.16759412
1570715022,-4.098873,-9.074024,-1.5179238,0.85117227,0.7638179,-0.30041373,-1.9440918,0.50278234,0.7517793
1570715022,-3.5482068,-9.610326,-2.2505496,0.84904164,0.51240784,-0.5592809,-1.316811,-0.22505496,0.33997664
1570715022,-3.1028855,-8.973468,-4.237737,0.81069094,0.5827174,-0.81282157,-0.9768343,0.7469909,-2.054225
1570715022,-1.364695,-7.062895,-4.405331,0.8607599,0.9246777,-0.85117227,-0.10055647,1.9967642,-2.681506
1570715022,-0.090979666,-5.6215854,-3.265691,0.7925809,0.89165354,-0.5145384,1.3934253,4.223372,-1.9871874
1570715022,-2.705448,-9.677363,-3.0119057,0.6253293,0.54223615,-0.064983115,-1.1300632,0.61770403,-1.661576
1570715022,-3.040636,-9.495404,-3.107674,0.50068957,0.35474387,-0.2865649,-2.0398598,-0.17238252,-1.541866
1570715022,-3.9264908,-9.246407,-3.9073372,-0.09055024,0.13529271,-0.35687447,-2.3175871,0.79008657,-3.1316159
1570715022,-2.7724855,-7.824251,-2.111686,-0.7797974,-0.80323386,0.07350549,-2.0685902,1.4508862,-0.56982
1570715022,-1.0055647,-5.3486466,-3.0502129,-1.7087363,-1.0631664,0.7254672,-0.18195933,3.9695864,-1.4317327
1570715022,-0.08140286,-7.3166804,-2.6144683,-1.6714509,-1.3870167,2.3404574,1.5514427,2.6767175,-0.6847417
1570715022,-3.964798,-17.329231,-3.098097,-1.140933,-1.4360203,3.519741,-0.29688102,-6.397307,-1.9201498
1570715022,-8.1163435,-18.646044,2.0159178,-1.0599705,0.35793978,1.7204546,-5.2863975,-10.749966,1.9057846
1570715023,-5.645528,-9.749189,2.4612393,-1.521244,-1.7822418,0.78192794,-1.9680338,-1.3742718,6.229713
1570715023,-3.8402996,-6.2009826,-4.012682,-1.8120701,-2.317021,0.56673795,0.038307227,0.8762778,-0.22026655
1570715023,-3.040636,-6.9767036,-4.76925,-1.6299043,-0.81921333,1.2005897,1.0726024,1.8435353,-1.7286136
1570715023,-1.958457,-8.197746,-2.1164744,-1.1633042,-0.7009654,1.316707,2.896984,-0.15801731,1.2018893
1570715023,-2.1404164,-10.25676,-2.585738,-0.8383887,-1.172892,1.0450563,3.0933087,-2.7724855,0.9864111
1570715023,-3.620033,-9.428367,-1.8243817,-0.9065677,-0.75316495,0.3792457,1.8626889,-2.1404164,1.7812861
1570715023,-2.9592333,-7.503428,-3.1555579,-0.7840586,-0.35580918,-0.017044751,2.6048915,-0.33039984,0.5506664
1570715023,-2.3127987,-7.1826053,-2.8107927,-0.38883337,-0.1043991,-0.36433154,3.2704794,0.01436521,0.7278373
1570715023,-2.528277,-7.465121,-1.9680338,-0.02130594,-0.05646074,-0.6647453,2.9161377,-0.272939,1.8722657
1570715023,-4.0462008,-6.7324953,-2.7006595,0.5592809,-0.17683929,-1.0333381,1.2210429,0.6368576,1.043872
1570715023,-5.985504,-5.741296,-3.3662477,0.62639457,-0.25886714,-1.2740952,-0.9528923,1.8818425,0.20590134
1570715023,-8.825027,-5.827487,-4.3718123,0.5102772,-0.61467636,-1.4637179,-4.0701427,2.0590134,-0.9959879
1570715023,-8.853758,-5.841852,-5.2959743,0.15979454,-0.4548818,-1.1771531,-4.381389,2.2744915,-2.0925324
1570715023,-6.483498,-8.09719,-6.4643445,-0.65089643,-0.7009654,0.054330144,-2.4947581,0.6991069,-3.5434184
1570715023,-7.8529816,-7.7811556,-3.4380736,-0.06604841,-1.1185617,0.20027582,-3.3327289,0.10055647,-1.1971009
1570715023,-5.2863975,-15.500062,-2.0685902,0.8852618,-0.35793978,-0.7851238,-0.01436521,-7.297527,0.7661445
1570715023,1.9632454,-18.124107,-2.1308396,0.46020827,-0.57632565,-1.1036476,6.2728086,-9.734824,0.5554548
1570715023,-5.923255,-7.2687964,-6.090849,0.5646074,0.15340276,-0.050068956,0.12928689,0.23942018,-3.0502129
1570715023,0.6847417,-8.039729,3.5194764,0.27165073,0.624264,0.063917816,4.8985367,0.4357447,6.0621185
1570715023,2.1164744,-12.411542,-0.6464345,0.28763017,0.17790459,-1.0599705,6.789956,-3.9264908,3.8259344
1570715023,-1.3263878,-7.8865004,-3.821146,0.3206544,1.5372235,-1.406192,2.2361844,0.8762778,-1.2545617
1570715023,-1.0773908,-5.707777,-5.3965306,0.49216717,0.9694202,-0.6956389,2.2505496,2.5713725,-1.541866
1570715023,-0.7038953,-8.360553,-1.1204864,0.51666903,1.9431016,0.27058542,2.408567,0.5746084,1.4460979
1570715023,-1.532289,-9.552865,-2.1021092,0.653027,1.6884956,-0.08415846,2.0590134,-1.0486604,0.8523358
1570715023,-3.7301662,-8.240842,-2.7150247,0.4538165,1.5233747,-0.29508725,-0.6512229,0.4357447,0.023942016
1570715023,-4.5633483,-8.882488,-2.3511062,0.45807767,1.1388024,-0.175774,-2.054225,0.44532153,-0.18195933
1570715023,-2.006341,-9.332599,-1.4221559,0.6402435,1.1941979,-0.23969181,0.24899697,-0.5554548,1.1013328
1570715023,-2.6719291,-8.561666,-2.3511062,0.8948494,0.77873206,-0.14594568,0.19153613,0.8810662,0.16280572
1570715023,-2.882619,-9.303867,-1.7142484,0.800038,0.6295905,-0.33876443,-0.79487497,0.22026655,0.39743748
1570715023,-2.9017725,-9.873688,-2.2840683,0.81495214,0.5891092,-0.60508865,-0.92416185,-0.47884035,-0.01436521
1570715023,-2.3989902,-8.48984,-3.6870706,0.82560515,0.6668759,-0.6913777,-0.45010993,0.94810385,-1.8818425
1570715023,-0.9959879,-7.7189064,-4.8458643,0.6935083,1.0631664,-0.73931605,0.25857377,2.111686,-3.5625722
1570715023,0.46447513,-6.703765,-3.7493198,0.64237404,1.1696961,-0.64663523,1.910573,2.8778305,-2.255338
1570715024,-3.193865,-9.045294,-3.5625722,0.4548818,0.8064298,-0.045807768,-1.2258313,1.0534488,-2.2984335
1570715024,-4.697424,-9.600749,-4.4340615,0.4911019,0.50495076,-0.122509144,-3.2704794,-0.0047884034,-2.6479871
1570715024,-4.1946416,-7.9487495,-6.8186865,0.2759119,0.4857754,-0.15553336,-3.074155,1.0199299,-5.410896
1570715024,-3.6631286,-4.4101195,-1.9440918,-0.18003519,-0.22051647,0.26952013,-2.4756045,5.0134583,-1.7812861
1570715024,-2.528277,-3.845088,-1.0486604,-1.4722403,-1.2229608,0.88952297,-1.2976574,5.6982,0.22984336
1570715024,-0.79966336,-5.8945246,-1.6376339,-1.8163313,-1.6533408,2.019803,1.1731589,4.486734,-0.05267244
1570715024,-2.6384103,-17.51119,-5.1140146,-1.9164692,-1.1931325,3.3610117,0.038307227,-8.331821,-2.920926
1570715024,-8.240842,-22.658726,-1.5610195,-1.8557472,0.6359823,2.1220715,-4.76925,-13.88637,1.1204864
1570715024,-5.592855,-10.721235,2.944868,-1.6927568,-2.160422,0.7840586,-1.7764976,-2.9592333,6.5936313
1570715024,-4.606444,-7.651869,-2.944868,-1.9558852,-3.232111,0.6029581,-0.6895301,-0.18195933,0.6464345
1570715024,-4.7548847,-3.2992098,-4.6255975,-2.0922432,-0.96409374,1.0269462,-0.110133275,4.6495395,-1.2449849
1570715024,-3.0262709,-6.9479733,-1.7908629,-1.3188376,-0.5646074,1.2389404,1.9440918,0.6560113,1.8914193
1570715024,-1.1300632,-10.869676,-2.7629087,-0.886327,-1.3135111,1.0013791,4.003105,-2.7006595,1.13964
1570715024,-1.6280571,-11.391612,-2.920926,-1.1633042,-1.1025823,0.36539686,4.012682,-4.309563,0.8379706
1570715024,-2.1930888,-8.09719,-2.3702598,-0.95663667,-0.5891092,-0.27271602,3.5338416,-1.1348516,1.4939818
1570715024,-2.1787236,-7.2304893,-3.2225955,-0.38883337,-0.26419365,-0.6785942,3.4859576,-0.25378537,0.7038953
1570715024,-3.098097,-7.297527,-2.6001031,0.22051647,-0.089484945,-1.1494554,2.6048915,-0.21547815,1.2737153
1570715024,-5.0996494,-6.4404025,-2.6479871,0.51666903,-0.34089503,-1.4583915,0.12449849,0.92895025,1.1587936
1570715024,-8.925584,-5.305551,-3.5482068,0.47299185,-0.8607599,-1.5681171,-3.9743748,2.3558946,0.047884032
1570715024,-11.286267,-6.0381765,-5.932832,0.29934844,-0.8426499,-1.3944737,-6.622362,2.1164744,-2.1643584
1570715024,-6.3589997,-5.81791,-6.0621185,0.092680834,-0.67220235,-0.7595567,-2.480393,2.1739352,-2.6910827
1570715024,-5.48751,-7.2304893,-5.482722,-0.025567126,-1.0876682,-0.054330144,-0.9528923,1.1300632,-2.8874073
1570715024,-6.019023,-13.426683,-0.45968673,0.818148,-0.17044751,-0.24501829,-1.0965444,-3.3566709,1.9297266
1570715024,0.37349546,-21.993137,-0.7182605,0.6114804,0.36220095,-0.82560515,2.8443117,-15.222335,0.22026655
1570715024,-5.171476,-5.391742,-5.779603,0.35687447,0.33663383,0.19494934,-0.8331822,2.9783869,-3.074155
1570715024,-0.90979666,-8.274361,1.6519991,0.35367858,0.9097636,0.2865649,2.27928,1.3263878,2.6719291
1570715024,1.6807296,-13.259089,-2.1164744,0.3100014,0.37072334,-1.1398677,6.4020953,-5.5401826,2.4372973
1570715024,-1.4796166,-7.762002,-4.175488,0.39522517,1.6085984,-1.4189755,2.3511062,0.6703765,-1.9632454
1570715024,-0.94810385,-6.38773,-6.2632318,0.42079228,1.4828933,-0.8724782,2.3127987,1.733402,-3.107674
1570715024,-0.35913026,-7.1730285,-2.1452048,0.7542302,2.0229988,-0.06604841,2.6527755,2.1068976,-0.31603462
1570715024,-2.6671407,-7.991845,-1.7477672,0.77340555,1.7034098,0.054330144,0.6895301,0.9576807,1.6663644
1570715024,-3.2273839,-7.9487495,-2.8778305,0.5784562,1.5798354,-0.06178722,-0.320823,0.94810385,0.320823
1570715024,-4.10845,-9.059659,-3.1555579,0.3483521,1.3007276,-0.113986775,-1.5466543,0.320823,-0.7134721
1570715024,-2.6479871,-9.452309,-1.6041151,0.5976316,1.3539925,-0.22690825,-0.2873042,-0.47405192,1.0869676
1570715025,-3.643975,-8.494628,-1.934515,0.8309316,0.77340555,-0.120378554,-1.1492168,0.6847417,0.62249243
1570715025,-3.6391866,-9.442732,-1.6376339,0.78299326,0.5592809,-0.31106672,-1.3503298,-0.21547815,0.770933
1570715025,-2.7581203,-10.223241,-2.657564,0.72333664,0.419727,-0.60828453,-0.7230489,-1.0007763,-0.34476504
1570715025,-2.7102363,-9.80665,-4.3478703,0.83306223,0.487906,-0.85543346,-0.93852705,-0.5506664,-2.1499932
1570715025,-1.7764976,-8.121132,-5.2528787,0.9715508,0.975812,-1.0141627,-0.60812724,0.7086837,-3.5482068
1570715025,-0.545878,-4.951209,-3.040636,0.96302843,0.9736814,-0.75742614,0.7613561,4.0318356,-1.7956513
1570715025,-2.657564,-8.24563,-2.7150247,0.61787224,0.6455699,-0.14061919,-1.2785037,2.2840683,-1.3982137
1570715025,-2.6288335,-8.882488,-4.232949,0.42718408,0.5496932,-0.15659864,-1.8195933,0.6607997,-2.7724855
1570715025,-2.8060043,-7.9583263,-3.9504328,-0.0021305939,0.27058542,-0.09374613,-1.8052281,1.7190368,-2.743755
1570715025,-1.8387469,-6.26802,-1.340753,-1.1196271,-0.6327864,0.30041373,-1.0869676,2.930503,0.038307227
1570715025,-0.81402856,-5.1571107,-1.7046716,-1.9185997,-0.82027864,0.88845766,0.4213795,4.405331,0.076614454
1570715025,-1.5179238,-10.036493,-3.1794999,-1.9058162,-1.7609358,2.648328,0.6655881,0.5746084,-0.06703765
1570715025,-6.3781533,-21.231781,-5.363012,-1.2858135,-1.1643696,3.2310457,-3.6104562,-12.196063,-2.7246015
1570715025,-6.105214,-12.53604,6.244078,-1.2527891,-0.18536167,0.9790079,-3.1890767,-6.3302693,8.106767
1570715025,-6.05733,-9.5385,2.480393,-1.4988728,-2.6717646,0.74464256,-2.3319526,-1.0103531,5.5737014
1570715025,-4.2281604,-3.6056678,-5.2528787,-1.7982212,-2.077329,0.6029581,-0.10534488,4.213795,-1.6950948
1570715025,-2.5905263,-7.4507556,-4.783615,-1.5659865,-0.5230608,1.1068435,1.8722657,0.56982,-1.340753
1570715025,-0.90021986,-8.312668,-2.4181437,-1.0056403,-0.81069094,1.2176344,3.9073372,-0.58418524,1.2354081
1570715025,-0.9959879,-10.093954,-2.5905263,-0.9044371,-1.1995244,0.98859555,4.285621,-2.2505496,1.1779473
1570715025,-3.2800562,-9.227253,-2.1739352,-0.907633,-0.6967042,0.26525894,2.0494366,-1.9536686,1.5753847
1570715025,-2.7150247,-7.455544,-3.4476504,-0.6604841,-0.08522376,-0.05113425,2.7246015,-0.272939,0.4165911
1570715025,-2.3127987,-7.4363904,-3.122039,-0.37391922,0.11824796,-0.22158176,3.040636,-0.24420857,0.5554548
1570715025,-2.528277,-7.690176,-1.9967642,0.14488038,0.14488038,-0.5486279,2.9161377,-0.47884035,1.8866309
1570715025,-4.6591167,-6.1387334,-2.6240451,0.6594188,-0.16512102,-0.8980453,0.91458505,1.067814,1.508347
1570715025,-6.694188,-5.4779334,-3.2848446,0.64450467,-0.36965802,-1.0951252,-1.3934253,2.0829554,0.45010993
1570715025,-10.280702,-7.2927384,-5.2863975,0.7180101,-0.4868407,-1.2005897,-5.6359506,0.6368576,-1.8626889
1570715025,-8.135497,-6.679823,-6.1195793,0.3898987,-0.37285393,-0.6658106,-4.4580035,1.2497733,-2.6431987
1570715025,-6.4308257,-8.054094,-5.7987566,-0.24927948,-0.8096257,0.117182665,-1.7908629,0.6799533,-2.944868
1570715025,-6.2632318,-13.340492,-0.6655881,0.84158456,-0.33130735,0.054330144,-1.532289,-3.7205894,2.2122424
1570715025,-0.7661445,-18.981232,-1.0726024,0.56354207,0.36646214,-0.53264844,1.8291701,-12.061988,0.79487497
1570715025,-3.9217024,-7.9391727,-4.9176903,0.11824796,0.2119941,-0.05113425,1.8195933,-0.25857377,-1.9297266
1570715025,-2.0398598,-8.384495,1.8148049,0.4452941,0.7638179,0.113986775,1.5370775,0.90979666,3.572149
1570715025,0.1340753,-11.947066,-1.316811,0.25034478,-0.035154797,-1.1281495,4.745308,-3.7493198,3.241749
1570715026,-0.7661445,-8.418014,-4.534618,0.15766394,1.1558472,-1.5819659,3.0023289,0.01436521,-2.0494366
1570715026,-0.20590134,-6.066907,-5.7604494,0.57632565,1.4296285,-0.9662243,3.4332852,1.8626889,-2.5761611
1570715026,-0.33997664,-6.0477533,-2.207454,0.67752886,1.9878441,0.022371236,2.815581,3.442862,-0.6512229
1570715026,-2.1883004,-8.121132,-1.0199299,0.78725445,1.5883577,0.12783563,1.3790601,0.92416185,1.7812861
1570715026,-3.4859576,-8.882488,-3.1028855,0.54117084,1.6576021,-0.08202787,-0.31124622,-0.019153614,-0.34955344
1570715026,-2.944868,-9.375694,-2.8682537,0.380311,1.3177723,-0.21518998,-1.2545617,-0.5410896,-0.34476504
1570715026,-1.8914193,-9.193734,-1.5945383,0.61787224,1.2730298,-0.33130735,0.36870706,-0.5793968,1.043872
1570715026,-3.1794999,-8.552089,-1.70946,0.98539966,0.84584576,-0.21625528,-0.79008657,0.45489833,0.7278373
1570715026,-3.040636,-9.332599,-1.7860745,0.8852618,0.5901745,-0.35367858,-0.94331545,0.090979666,0.7661445
1570715026,-2.3989902,-10.007763,-2.873042,0.907633,0.5582156,-0.63491696,-0.12928689,-0.48841715,-0.4213795
1570715026,-2.2984335,-9.208099,-4.175488,1.0109668,0.66794115,-0.7851238,-0.6751649,-0.1388637,-2.0254946
1570715026,-1.2976574,-7.062895,-4.5681367,0.99818325,1.1143006,-0.839454,0.2633622,2.1547816,-3.1316159
1570715026,-1.4460979,-5.329493,-2.657564,0.90869826,0.9395919,-0.42824936,0.2633622,4.381389,-1.5466543
1570715026,-3.643975,-9.227253,-2.2984335,0.6647453,0.6572882,-0.022371236,-2.3942018,1.067814,-0.94331545
1570715026,-2.8682537,-9.576807,-4.237737,0.4868407,0.63811284,-0.26206306,-1.685518,0.08619126,-3.083732
1570715026,-2.60968,-7.441179,-3.217807,-0.08415846,0.39309457,-0.14594568,-1.4891934,2.0638018,-2.801216
1570715026,-2.207454,-6.5505357,-1.8579005,-0.87886995,-0.36113566,0.46873066,-1.0773908,3.107674,-0.59855044
1570715026,-1.1013328,-4.2664676,-2.1212628,-1.7406952,-0.7584914,1.1196271,0.29209262,5.2959743,-0.46447513
1570715026,-2.1547816,-7.762002,-1.958457,-1.8877062,-1.5915536,2.622761,-0.14844051,1.5993267,0.16280572
1570715026,-8.312668,-22.811954,-5.683835,-1.3784943,-0.9949873,3.3780565,-5.267244,-13.814544,-3.2321723
1570715026,-6.349423,-15.279796,6.2488666,-1.2155038,0.17044751,1.2261568,-2.72939,-6.588843,9.006987
1570715026,-5.463568,-8.322245,1.2976574,-1.5350928,-2.988158,0.7052266,-1.484405,0.15322891,4.19943
1570715026,-3.7062242,-4.271256,-6.6846113,-2.0762637,-2.4214199,0.49642837,0.6560113,3.9791632,-3.6870706
1570715026,-2.3989902,-7.967903,-1.6280571,-1.2506586,-0.60082746,1.191002,2.5234885,-0.22505496,1.8291701
1570715026,-2.15957,-8.939949,-1.4030021,-1.1633042,-0.95450604,1.1441289,2.882619,-1.292869,2.1068976
1570715026,-1.934515,-11.348516,-2.0733786,-1.1846102,-1.3230988,0.6583535,3.4476504,-3.964798,1.4891934
1570715026,-2.9352913,-8.738836,-2.5953147,-1.2080467,-1.036534,0.011718267,2.6288335,-1.532289,1.043872
1570715026,-2.0254946,-6.909666,-3.5817258,-0.74570787,-0.4868407,-0.28123838,3.5865142,0.21547815,0.1388637
1570715026,-2.135628,-7.469909,-2.719813,-0.27165073,-0.14381509,-0.5017549,3.41892,-0.32561144,1.0582372
1570715026,-2.9735985,-7.771579,-2.111686,0.20134112,-0.120378554,-0.85010695,2.4420857,-0.51235914,1.6424223
1570715026,-4.951209,-6.2871737,-2.8538885,0.5219955,-0.2844343,-1.2123079,0.25378537,1.1827357,0.7757214
1570715026,-7.967903,-6.009446,-3.4332852,0.6413088,-0.71055305,-1.5830313,-3.0310593,1.7429788,-0.01436521
1570715026,-10.031705,-5.6790466,-5.2720323,0.49216717,-0.5731298,-1.453065,-5.401319,2.360683,-2.0925324
1570715027,-6.9479733,-6.679823,-7.752425,-0.56354207,-0.74890375,-0.045807768,-2.4181437,1.436521,-4.6351743
1570715027,-7.489063,-8.288726,-5.104438,-0.32278496,-1.1931325,0.34089503,-2.7389667,-0.16759412,-3.0119057
1570715027,-6.14831,-15.50485,-0.866701,0.92680836,-0.42824936,-0.44635943,-1.4269443,-7.374141,1.9297266
1570715027,0.40222588,-21.088129,-1.6041151,0.3494174,-0.28869548,-0.9012412,3.2273839,-14.015656,0.34476504
1570715027,-5.377377,-8.154651,-4.2281604,0.2780425,0.14914156,0.0074570784,0.5602432,-0.79487497,-1.685518
1570715027,0.05746084,-8.422802,3.2130187,0.09055024,0.27271602,-0.11824796,3.2800562,0.94331545,4.6495395
1570715027,-0.4357447,-11.319786,-3.4955344,0.088419646,0.15872924,-1.2858135,4.55856,-3.3518825,0.7086837
1570715027,-0.36391866,-8.1163435,-3.9456444,0.23756121,1.384886,-1.5223093,3.4763808,0.21547815,-1.4796166
1570715027,-0.45010993,-5.0374002,-6.7947445,0.6210681,1.1995244,-0.52945256,3.1890767,2.96881,-3.8259344
1570715027,-0.8283938,-7.321469,-0.9624691,0.63811284,1.6245779,0.29508725,2.5234885,2.4947581,0.8331822
1570715027,-2.3798366,-9.390059,-1.5993267,0.85010695,1.6299043,0.033024207,1.163582,-0.48841715,1.1683705
1570715027,-3.3518825,-8.652645,-3.107674,0.5496932,1.5745089,-0.1395539,-0.023942016,-0.02873042,-0.45968673
1570715027,-3.6870706,-9.016563,-2.5570073,0.42611876,1.4072572,-0.19921052,-1.0486604,0.4261679,-0.46926352
1570715027,-2.6671407,-9.428367,-1.2210429,0.7797974,1.3092499,-0.29295665,0.23463176,-0.8571242,1.2689269
1570715027,-3.6870706,-9.107543,-1.7908629,1.0035098,0.7084225,-0.28549957,-0.7613561,0.34476504,0.47884035
1570715027,-3.7780502,-9.835381,-1.8770541,0.91295946,0.36752746,-0.56780326,-1.7142484,-1.2641385,0.24420857
1570715027,-2.2840683,-9.083601,-3.1890767,0.89698005,0.2759119,-0.89591473,-0.2633622,-0.521936,-0.9672575
1570715027,-1.7860745,-8.403648,-4.5298295,0.8937841,0.39735577,-0.99392205,0.21547815,1.0390835,-2.8107927
1570715027,-0.272939,-6.0285997,-4.3047748,0.8703476,0.95024484,-0.721206,0.9911995,3.7014358,-3.3423057
1570715028,-1.163582,-6.871359,-3.3183637,0.65089643,0.8618252,-0.08415846,1.0199299,3.4763808,-2.2266076
1570715028,-1.163582,-6.871359,-3.3183637,0.65089643,0.8618252,-0.08415846,1.0199299,3.4763808,-2.2266076
1570715028,-1.163582,-6.871359,-3.3183637,0.65089643,0.8618252,-0.08415846,1.0199299,3.4763808,-2.2266076
1570715028,-1.163582,-6.871359,-3.3183637,0.65089643,0.8618252,-0.08415846,1.0199299,3.4763808,-2.2266076
1570715028,-1.163582,-6.871359,-3.3183637,0.65089643,0.8618252,-0.08415846,1.0199299,3.4763808,-2.2266076
1570715028,-1.163582,-6.871359,-3.3183637,0.65089643,0.8618252,-0.08415846,1.0199299,3.4763808,-2.2266076
1570715028,-1.163582,-6.871359,-3.3183637,0.65089643,0.8618252,-0.08415846,1.0199299,3.4763808,-2.2266076
1570715028,-1.163582,-6.871359,-3.3183637,0.65089643,0.8618252,-0.08415846,1.0199299,3.4763808,-2.2266076
1570715028,-1.163582,-6.871359,-3.3183637,0.65089643,0.8618252,-0.08415846,1.0199299,2.5091233,-1.7429788
1570715028,-1.5562311,-7.091625,-3.016694,0.5997622,0.8053645,-0.0074570784,-0.038307227,2.5091233,-1.7429788
1570715028,-2.1499932,-7.809886,-2.9113493,0.56673795,0.7180101,0.06604841,-0.038307227,2.5091233,-1.7429788
1570715028,-2.1499932,-7.809886,-2.9113493,0.56673795,0.7180101,0.06604841,-0.038307227,2.5091233,-1.7429788
1570715028,-2.1499932,-7.809886,-2.9113493,0.56673795,0.7180101,0.06604841,-0.038307227,2.5091233,-1.7429788
1570715028,-2.1499932,-7.809886,-2.9113493,0.56673795,0.7180101,0.06604841,-0.038307227,2.5091233,-1.7429788
1570715028,-2.1499932,-7.809886,-2.9113493,0.56673795,0.7180101,0.06604841,-0.038307227,2.5091233,-1.7429788
1570715028,-2.1499932,-7.809886,-2.9113493,0.56673795,0.7180101,0.06604841,-0.038307227,2.5091233,-1.7429788
1570715028,-3.7062242,-9.600749,-3.371036,0.5177343,0.33663383,-0.07563608,-2.2361844,0.02873042,-1.8962077
1570715028,-3.4572272,-9.131485,-5.650316,0.18003519,0.21625528,-0.23223473,-1.8243817,0.30645782,-4.261679
1570715028,-3.9504328,-5.861006,-2.384625,-0.33343795,-0.3494174,0.120378554,-2.4612393,3.3806129,-2.3654714
1570715028,-2.303222,-3.9456444,-1.0726024,-1.5095258,-1.2133732,0.5550197,-0.9959879,5.2480903,0.15801731
1570715028,-0.36870706,-3.9312792,-2.2936451,-2.124202,-1.3998002,1.2836828,1.508347,5.530606,-0.5315128
1570715028,-0.6512229,-15.47612,-6.0285997,-2.030456,-1.8376372,3.357816,2.0159178,-6.3063273,-3.787627
1570715028,-8.882488,-24.665066,-4.9320555,-1.3305559,0.031958908,2.697332,-5.257667,-15.935806,-2.3127987
1570715028,-6.05733,-9.682152,5.1140146,-1.6714509,-1.5904883,0.70948774,-2.1260512,-2.0925324,8.552089
1570715028,-5.731719,-7.469909,-0.49320555,-2.00915,-3.2097397,0.5475626,-1.3982137,0.7517793,2.6288335
1570715028,-4.912902,-4.2760444,-6.7851677,-1.9846482,-1.765197,0.81601745,-0.19153613,3.6631286,-3.4955344
1570715028,-2.528277,-7.85777,-3.394978,-1.3252294,-0.13209683,1.1260189,2.4851813,-0.22984336,0.18674773
1570715028,-1.6232687,-9.643845,-1.3982137,-0.9321348,-0.95450604,1.1185617,3.7062242,-2.3080103,2.3319526
1570715028,-2.4851813,-11.386824,-1.8291701,-0.93000424,-1.2559851,0.49642837,3.1555579,-4.285621,1.9009962
1570715028,-3.6104562,-8.207323,-2.5953147,-0.8564987,-0.9715508,-0.06178722,2.2409728,-2.078167,1.388637
1570715028,-2.528277,-7.1586633,-3.3327289,-0.42824936,-0.064983115,-0.4175964,3.2225955,-0.18195933,0.46447513
1570715028,-2.4612393,-7.536947,-2.1930888,0.019175345,0.20027582,-0.70203066,3.1555579,-0.48362875,1.661576
1570715028,-3.3901896,-7.0341644,-2.4468741,0.40268224,0.060721926,-0.9992485,2.4037786,-0.12449849,1.5370775
1570715028,-6.1626754,-5.592855,-3.3327289,0.5219955,-0.2801731,-1.374233,-1.0055647,1.8962077,0.33518824
1570715028,-9.208099,-5.3247046,-4.5058875,0.380311,-0.83306223,-1.5446806,-4.960786,2.3942018,-1.0295067
1570715028,-9.414001,-5.602432,-5.4300494,0.09055024,-0.7254672,-1.1878061,-5.315128,2.255338,-1.958457
1570715028,-6.7324953,-6.0046577,-6.7468605,-0.2056023,-0.96409374,-0.23862651,-2.2936451,2.3558946,-3.5242648
1570715028,-5.875371,-8.863335,-2.6671407,0.2769772,-0.9534408,-0.17683929,-1.1731589,-0.8331822,0.4357447
1570715028,-6.3542113,-17.975666,-2.7724855,0.54543203,-0.2844343,-0.54543203,-1.8483237,-7.015011,0.8283938
1570715028,0.34476504,-14.791378,-1.6280571,0.3813763,-0.1747087,-0.46446946,4.721366,-10.366894,1.5945383
1570715028,-4.5777135,-6.564901,-3.5529952,0.41226992,0.24501829,0.22051647,-0.32561144,1.7046716,-1.1731589
1570715028,0.6847417,-11.554418,2.8634653,0.14807628,0.31958908,-0.2428877,4.783615,-2.111686,4.7979803
1570715028,-0.6607997,-10.6398325,-4.381389,0.29082605,0.4548818,-1.3017929,4.122815,-3.1603463,-0.5315128
1570715028,-1.0247183,-7.9631147,-4.189853,0.3206544,1.2826176,-1.4807627,2.566584,0.33997664,-1.4269443
1570715028,-0.34476504,-4.9799395,-5.6982,0.67220235,1.4946116,-0.4133352,3.169923,3.5625722,-3.6152446
1570715028,-0.21068975,-7.8625584,-1.1348516,0.6881818,1.6416225,0.28549957,3.2704794,1.7621324,1.4700398
1570715028,-3.2561142,-9.255983,-1.7908629,0.70735717,1.7854377,0.13529271,0.39743748,-0.06703765,0.90979666
1570715028,-4.3718123,-8.825027,-3.0119057,0.487906,1.5020686,-0.11505207,-1.1061212,-0.009576807,-0.095768064
1570715029,-3.3806129,-9.050082,-2.6048915,0.46979594,1.3934084,-0.21518998,-0.8523358,-0.062249243,-0.320823
1570715029,-2.4851813,-9.059659,-2.0350714,0.8298663,1.2005897,-0.18962285,0.32561144,-0.062249243,0.60333884
1570715029,-3.3854012,-8.78672,-2.2218192,1.0770152,0.82134396,-0.22477765,-0.6847417,0.22026655,0.16759412
1570715029,-3.3854012,-9.758766,-2.1739352,0.9438531,0.63491696,-0.54543203,-0.89064306,-0.023942016,0.29688102
1570715029,-2.4708161,-8.599973,-3.169923,0.8724782,0.60615396,-0.7371855,-0.22505496,1.3263878,-1.1587936
1570715029,-2.111686,-7.896077,-4.098873,0.9790079,0.7755362,-0.7329243,-0.50278234,1.0247183,-2.528277
1570715029,-0.9768343,-7.1490865,-4.405331,0.9726161,0.9704855,-0.6210681,0.5506664,2.2266076,-3.016694
1570715029,-1.3263878,-7.067683,-3.0933087,0.9332001,0.9353307,-0.36646214,0.2825158,2.5091233,-1.757344
1570715029,-3.667917,-8.652645,-3.3279405,0.62213343,0.64876586,-0.12677033,-1.7764976,1.3694834,-1.7142484
1570715029,-3.4045548,-9.141062,-4.6112323,0.3494174,0.556085,-0.30147904,-1.958457,0.50278234,-3.5769374
