time,ax,ay,az,gx,gy,gz,la_x,la_y,la_z,fox,foy,foz
1570714986,-4.645279,4.0321503,9.666779,0.025115967,0.8159332,0.38200378,-1.2142787,0.40033937,0.5989561
1570714986,-3.0710907,3.015808,9.651215,0.11672974,0.7115326,0.41716003,0.6876917,-0.8234937,0.8054352
1570714986,-4.3591614,3.853775,9.022736,-0.113357544,0.45587158,0.26481628,0.05138111,0.19022417,-0.0048122406
1570714986,-4.830826,2.778778,8.0890045,-0.6726227,0.18209839,0.84858704,-0.82243896,-0.4166541,0.13701248
1570714986,-4.471695,3.3378296,9.67157,-1.2766266,0.44415283,1.7135773,-0.56861424,-0.46415472,-0.25604534
1570714986,-4.9062347,3.623932,8.8958435,0.78678894,-0.5507965,2.967392,-1.5835624,6.7806244E-4,0.17564583
1570714986,-1.9984894,3.0972137,8.806061,1.7774811,-0.2163086,3.537323,1.0254345,-1.3278632,-0.30182076
1570714986,-4.7111053,1.1950073,6.517212,1.0967712,-3.774292,2.4741821,-3.3202274,-3.267385,-2.3315887
1570714986,-6.2326355,5.232834,4.7562714,0.8166046,-9.497955,2.5050812,-7.262493,0.02290392,-2.923294
1570714986,10.118576,6.0971375,1.0871582,-1.7027435,-1.9249878,2.5135956,8.206633,1.781487,-13.132232
1570714986,0.64711,3.1247406,9.142456,0.8166046,1.5861206,-1.2233582,0.3933301,-2.3880162,0.16427612
1570714986,-0.68525696,4.197342,4.25589,-0.65452576,1.4604187,-1.5333405,-0.11600624,-0.10330963,-4.3365507
1570714986,-1.1916351,2.4902802,7.37912,-0.54159546,3.5302277,-3.6095428,-0.031140327,-2.783255,-1.3827572
1570714986,-4.1089783,7.0452423,13.180267,0.029388428,1.8268738,-4.453232,-1.7384269,1.6767297,4.1766825
1570714986,-4.415436,7.1278534,7.419815,0.3287201,0.9256592,-2.5421448,-2.0872731,2.2943249,-1.1262436
1570714986,-5.496414,7.0655975,7.2869415,-0.1687622,0.954422,-0.4915161,-1.6793966,3.6924038,-1.2602568
1570714986,-1.6896362,3.7292786,7.425812,-0.42121887,0.7456207,0.038986206,2.0503962,-0.2099638,-0.66910267
1570714986,-3.3284607,3.0852356,6.664444,-0.24119568,1.8822632,-0.6619568,0.98958254,-1.447886,-1.6865015
1570714987,-5.1576385,4.478668,5.7175446,-0.85691833,2.9571075,-0.6608887,-0.22064877,0.3071313,-2.2512712
1570714987,-7.241791,5.414795,7.035553,-0.8920746,2.375473,-0.53092957,-1.6080523,1.6900599,-0.7774234
1570714987,-3.0220032,1.4655609,8.486435,-0.32322693,1.2558899,-0.8451843,2.9034557,-2.1146526,1.1664948
1570714987,-5.259384,3.469513,7.3803253,0.57266235,0.8063507,-0.7397156,1.3875313,-0.08411026,0.66930246
1570714987,-1.0455933,4.1195374,1.6869049,-0.6364136,0.511261,-0.62680054,5.4166026,0.6828308,-5.3700233
1570714987,2.204544,-1.0315857,-0.3002777,-3.0630798,1.7128906,-1.5461273,9.165647,-3.7357013,-6.9814043
1570714987,-5.0870056,-3.1085663,0.8417511,-5.553665,2.9102478,-3.2388306,2.6848087,-4.1038733,-6.3928156
1570714987,-13.886887,-4.6109314,10.556229,-4.3616333,3.0679016,-3.0151215,-5.6922455,-4.2471113,4.435293
1570714987,-9.0877075,-4.3858643,3.7914124,-1.9914246,2.2178192,-2.5123138,-0.6550751,-2.699975,-1.13376
1570714987,-12.925613,-4.6671906,0.35214233,-2.9363098,1.3901062,-2.6912842,-4.175023,-1.9290292,-4.3789706
1570714987,-13.554092,-5.4488983,1.3469238,-3.9653625,0.9863739,-1.9754333,-5.090458,-1.6646085,-2.6534119
1570714987,-11.129974,-5.554245,3.024063,-4.167755,0.9671936,-1.540802,-2.6536293,-0.8061266,-0.33881378
1570714987,-9.914917,-5.5434723,3.8835907,-3.688385,1.1738586,-1.4875336,-1.67169,-0.18092537,1.6007004
1570714987,-9.489944,-5.5410767,2.9630127,-2.8138123,1.1120758,-1.8635712,-1.2184935,0.2142024,1.9674664
1570714987,-10.48114,-4.819214,1.829361,-2.4676056,1.51474,-1.9360199,-2.642067,1.7122931,0.9663797
1570714987,-11.131165,-4.855133,1.8521118,-2.0329742,1.4721375,-1.8358765,-3.6456232,1.9915824,1.7458218
1570714987,-11.48671,-6.7932434,0.7447815,-1.2159119,1.2484283,-1.6324158,-4.329148,0.51067924,1.45071
1570714987,-12.017014,-6.416153,0.14863586,-1.2819519,1.1333771,-1.2510529,-5.1135907,1.1384225,1.0505393
1570714987,-10.609222,-6.2437744,-3.6150513,-0.43721008,1.8268738,-1.1189575,-4.1478677,1.7825246,-2.3006725
1570714987,-7.7086487,-5.7589417,-0.61750793,-1.1583862,0.9171295,-0.07392883,-1.5958586,2.0896726,1.4599516
1570714987,-6.5127563,-5.842743,4.051178,-0.97836304,0.8564148,-0.38072205,-0.019791603,2.0150657,5.5268626
1570714987,-5.7466125,-5.705078,-0.028533936,0.32125854,0.8063507,-0.34451294,0.21486044,2.2099695,2.7058432
1570714987,-8.757309,-7.3941803,-4.16333,0.09010315,0.44947815,-0.62254333,-2.7192335,0.5792327,-1.4637482
1570714987,-9.410934,-8.342285,-2.8776398,-0.46383667,-0.71058655,-0.62680054,-3.603788,-0.28854656,-0.5577543
1570714987,-8.04863,-7.39299,-1.0341034,-0.039855957,-1.1398926,-0.5319977,-3.7262344,1.0846739,2.600124
1570714987,-8.32756,-8.746902,-0.74679565,-0.2976532,-0.6424103,-0.8015137,-2.7021928,-0.5752535,1.8392036
1570714987,-7.3794556,-6.5047455,-1.1502228,-0.7269592,-1.6277924,-0.80895996,-1.5562644,1.5867186,1.0491705
1570714987,-7.0825653,-8.743317,-2.2635193,-0.6140442,-1.5681305,-0.89738464,-0.8268075,-0.5629816,0.20082998
1570714987,-9.753296,-8.357849,2.129837,0.24668884,0.8553467,-0.5639496,-8.495878,-0.63389206,3.3835838
1570714987,-7.0670013,-7.801193,0.92555237,-0.32002258,0.22151184,0.3127594,-1.6504683,0.47035122,2.7877119
1570714987,-6.0386963,-7.3630524,-1.7978516,0.040039062,-0.67012024,0.2861328,-0.36859846,1.0498333,0.51518106
1570714987,-5.535919,-5.5925446,-1.7523651,-0.06542969,-1.3305817,0.41290283,0.101629734,2.6648073,0.2359941
1570714987,-5.1851654,-5.076599,-1.743988,0.062408447,-0.6658478,0.5023804,0.8132982,3.0500126,0.2170105
1570714988,-2.1361542,-4.5833893,0.22045898,-0.2987213,-1.1899567,0.4650879,4.0697136,3.168375,2.3754435
1570714988,1.5102234,-3.8411865,-2.6106873,-0.58314514,-2.1881104,-0.490448,9.781228,3.0886183,-1.6663389
1570714988,-1.3101501,-5.9804077,-2.2575378,-0.4233551,-1.8983612,-0.30828857,5.6332994,2.4405775,-1.7902156
1570714988,1.4300079,-6.1898956,0.22045898,0.4554901,-0.33668518,-1.5045776,7.372771,1.7813511,0.82361317
1570714988,-4.5004272,-8.028641,1.4103699,0.96788025,-1.2144623,-1.9370728,1.3852444,0.4020214,2.058679
1570714988,-6.7461853,-9.158707,0.04208374,0.9188843,-1.5681305,-1.6814117,-2.337037,-0.005443573,0.36566076
1570714988,-4.717102,-8.258484,-0.12550354,0.82299805,-1.3572083,-2.2992706,0.5603452,0.7255039,-0.42138332
1570714988,-10.385376,-3.0271606,17.228867,1.122345,0.07662964,-2.527237,-4.8068476,5.084935,9.961896
1570714988,-2.5659027,-17.899948,-3.9945374,0.7548218,-0.19926453,-2.8478851,4.0624647,-7.718321,-7.1582727
1570714988,-7.0011597,-9.425659,-1.3824615,0.6120758,-3.0808105,-0.68751526,-7.6121836,-0.24100494,-7.6691155
1570714988,1.3988953,-12.041336,-0.097976685,1.0009003,0.2758484,0.79852295,4.5851316,-3.4814587,-0.835441
1570714988,1.0553284,-10.9878845,1.2044678,0.024047852,0.511261,0.8656311,3.3630025,-0.7500334,-5.3369207
1570714988,-2.2881775,-11.276382,-2.0061493,-0.39033508,-2.0304565,-0.1463623,2.5238733,-1.781395,-3.3093793
1570714988,-0.9869385,-5.4728394,1.6318359,-0.5149689,-0.98010254,-0.21881104,1.471066,4.1236725,-0.18855202
1570714988,-0.75109863,-6.673523,2.0005493,-0.23161316,-1.0791779,-0.14743042,1.7828066,2.8901863,-0.05587709
1570714988,-1.1293945,-7.258911,3.2790527,0.46400452,-1.5393677,-0.42866516,1.5096185,2.6976604,1.2499409
1570714988,-1.7028046,-6.728592,6.039566,0.9337921,-1.4200592,-0.699234,0.35210872,2.1829157,3.603355
1570714988,-3.4697266,-7.443268,5.3979187,0.743103,-0.539093,-0.019607544,-1.5719367,1.9643469,2.6496296
1570714988,-1.7674408,-5.669159,4.2618713,0.885849,-0.80114746,0.42141724,-0.08197498,2.8169937,0.81886053
1570714988,-2.946579,2.5896301,4.1637115,0.4118042,0.08302307,0.89971924,-0.9470289,12.018168,0.7437122
1570714988,-1.5543518,-8.730148,2.011322,-0.98687744,-0.027755737,1.4461975,0.6097548,1.5598106,-1.6191783
1570714988,-2.091858,-5.570999,2.339325,-1.1573181,0.7861023,0.45443726,0.5908706,1.907011,-0.46999955
1570714988,4.8393555,-11.332642,2.0041351,-0.6193695,1.8630829,-1.7527924,7.1602182,-3.6783056,-2.3181777
1570714988,3.382492,-7.641983,-2.0540314,-1.9775696,0.9128723,-1.4129639,5.66238,1.3889599,-4.1082954
1570714988,-0.7187805,-11.033371,-6.026016,-2.8830566,1.4028931,-1.970108,0.85376,-1.7266035,-7.8093677
1570714988,-1.4095154,-18.696014,-9.313248,-2.2023468,0.70513916,-2.609253,-0.03941858,-8.670626,-10.015171
1570714988,-12.303131,-11.373352,0.7220459,-2.0223236,-2.8709564,-1.4459839,-10.051296,-7.406044,-0.49744138
1570714988,-8.183899,-10.792755,1.6210632,-0.78448486,1.3570862,0.82196045,-8.198597,-0.56511116,2.3583562
1570714988,2.0321503,-11.654663,-0.91200256,-0.19859314,2.037796,1.1063843,2.2772086,-1.8271132,-0.41551095
1570714988,3.2675629,-10.801132,3.3365173,-0.021759033,1.3783875,0.33512878,4.64295,-0.9400606,4.071523
1570714988,0.05455017,-9.722549,-1.3633118,-0.07608032,-0.5923462,-0.3189392,1.46486,0.09173107,0.31558233
1570714988,-2.7813873,-5.361511,-5.2514954,-0.30937195,0.077697754,-0.45635986,-1.7497731,4.115279,-4.2889514
1570714988,-3.230301,-7.2565155,-2.0935364,-0.32855225,1.0438995,-0.030258179,-2.7065918,3.3272324,-1.2195022
1570714989,-1.2048035,-6.076172,-1.7954559,-0.76423645,1.1227264,0.07946777,-0.83784693,3.0684958,-0.70017266
1570714989,1.7771759,-7.15477,-1.2424011,-0.75891113,1.0513611,-0.052627563,2.383677,2.6774359,-0.042945266
1570714989,1.7783661,-7.6431885,-2.8967896,-0.7983246,0.7871704,-0.3423767,2.3985567,2.0947533,-1.1014597
1570714989,0.15270996,-7.6204376,-2.3700714,-1.0561218,0.5357666,-0.52027893,0.741875,2.048808,-0.34673703
1570714989,-1.7279358,-8.828308,-1.3716888,-1.1381531,0.59436035,-0.6704712,-1.1585475,1.0564384,0.6964879
1570714989,-3.1153717,-9.726135,0.16299438,-1.0753021,0.72857666,-0.65663147,-2.9579103,-0.07089424,2.5920498
1570714989,-1.9170837,-9.920074,1.3265839,-0.82922363,0.733902,-0.361557,-2.3819304,-0.62650585,3.982249
1570714989,-3.0986176,-11.874939,-0.8976288,0.124191284,0.52723694,-0.6672821,-2.9117632,-1.9603825,2.5525892
1570714989,-4.9840546,-12.41124,0.16299438,-0.010040283,0.4526825,-0.45635986,-5.762142,-3.341568,2.58077
1570714989,-1.7889862,-11.216522,2.8433075,0.32765198,0.7829132,-0.16235352,-2.6337209,-1.5199223,5.3466396
1570714989,-5.219879,-12.921204,2.1741333,0.9987793,-0.98435974,-0.5607605,-5.4223228,-3.4499664,4.653776
1570714989,-3.954544,-11.414047,4.6353607,1.870163,-1.0695801,0.03579712,-5.271668,-1.7964392,6.3374243
1570714989,3.3010864,-9.566925,1.8760529,3.2166595,-1.1473541,0.50131226,2.0573862,-0.2151537,4.3427725
1570714989,2.8785095,-10.680222,-1.6158905,3.3636627,-1.3508148,0.5300751,2.6563692,-0.0163517,-1.0937245
1570714989,-0.27824402,-15.554825,-4.5691376,3.1985474,-0.5465393,0.3830719,-0.3982165,-5.258499,-4.8257027
1570714989,-3.144104,-11.926407,-4.7510986,2.5561829,0.054260254,0.64938354,-2.20471,-2.9234552,-5.955406
1570714989,-0.44584656,-10.124771,-0.48104858,2.0448608,-0.09913635,1.3801575,-0.45247787,-0.4940405,-3.0183768
1570714989,1.4958496,-10.298355,0.6562042,1.809433,-0.8661194,1.6304932,1.9796383,-0.65016747,-1.8577876
1570714989,-1.3819733,-9.569321,-0.5217438,1.8914642,-1.9942322,1.359909,0.07020849,-0.28390503,-2.9602306
1570714989,-0.47218323,-8.247711,-1.2986603,1.7572327,-1.9175415,1.3130493,0.16892064,0.6910744,-5.25692
1570714989,0.9224396,-7.5330505,-1.4459076,1.520752,-2.0964966,1.0786896,2.0218341,1.3424673,-5.331035
1570714989,1.532959,-6.16716,-2.7818756,0.965744,-2.228592,0.8283539,2.7076802,2.0554018,-7.0566797
1570714989,2.6127472,-3.5407104,-3.51091,0.3841095,-1.9963684,0.75590515,3.6024585,4.890584,-8.110632
1570714989,2.3649445,-1.6995697,-3.364853,-0.32962036,-1.162262,0.59825134,3.3757317,6.638424,-8.052324
1570714989,1.591629,-0.8963165,-1.917572,-1.2095184,-0.24507141,0.32661438,2.5678687,7.6635513,-6.3273177
1570714989,-0.4051361,-2.1652527,1.1326447,-2.0329742,0.45906067,0.19558716,0.84667706,6.825281,-3.2054777
1570714989,-2.7909698,-9.853027,10.466446,-2.5187378,0.46759033,0.1401825,-1.0325274,1.2672892,4.20952
1570714989,-3.7833557,-25.234573,17.79509,-0.57463074,0.21299744,-0.40522766,-2.280324,-14.46585,15.284126
1570714989,-2.5060577,-14.975418,12.669113,0.56307983,-1.4136658,-4.272461E-4,-2.1773186,-7.885968,10.587052
1570714989,0.017440796,-3.8890686,1.8963928,-0.033462524,-1.9452362,0.88053894,0.66141915,4.2102947,0.20975637
1570714989,8.603043,-15.882828,3.3652344,-0.88249207,-0.058654785,0.14657593,9.705197,-6.2547264,-0.83394814
1570714989,-6.6731567,-13.661011,-0.19374084,0.24456787,0.40792847,-0.72480774,-2.5696616,-6.2263327,-2.576683
1570714989,-3.2590332,-1.1704559,-7.5535126,0.32125854,1.9078217,0.33087158,-2.8193283,7.711197,-10.65833
1570714989,5.973007,-2.7554169,-5.593857,-1.8092651,-0.20672607,0.04219055,7.1758366,6.731058,-8.034517
1570714990,1.9747009,-11.021393,-7.7426605,-2.1533508,1.034317,-0.88246155,3.625741,0.43062687,-10.3269615
1570714990,-5.8268127,-15.1549835,-0.996994,-2.3067474,2.5842743,-0.78019714,-3.786446,-5.6097927,-3.8396187
1570714990,-3.1501007,-9.218567,2.229187,-0.9709015,0.30140686,-0.13677979,-3.693873,-0.5265856,3.5850525
1570714990,0.49746704,-7.091324,-3.558792,-1.4950104,1.434845,0.07946777,1.214267,2.3691778,-3.7840438
1570714990,1.2241058,-8.009491,-2.5173187,-1.4193726,2.2284698,-0.48512268,2.0530403,1.7617979,-2.6817365
1570714990,-1.6106262,-10.163086,0.88365173,-1.058258,0.6827698,-0.47872925,-0.26226097,-0.13494587,1.1856725
1570714990,-2.0906525,-9.358627,0.21687317,-0.82496643,1.050293,-0.28910828,-1.5017619,0.21806145,1.0107303
1570714990,-2.2570496,-7.926895,-1.3154297,-0.6364136,0.85214233,-0.17832947,-1.8179443,1.6575575,-0.3755386
1570714990,-0.4733734,-8.201035,0.12709045,-0.78448486,1.3901062,-0.13464355,-0.33071822,1.5034456,0.15328276
1570714990,0.46875,-7.7628937,-1.1107178,-0.8143158,0.5773163,-0.2358551,0.8116336,1.785985,0.262169
1570714990,0.03538513,-7.31398,-1.8732758,-0.83773804,0.65400696,-0.40948486,0.27510798,2.1616697,-0.2683618
1570714990,-0.8720093,-7.594101,-1.3968201,-1.1583862,0.731781,-0.47233582,-0.7716887,1.9081745,0.46689475
1570714990,-2.0152435,-8.24054,-1.1897278,-1.3192444,0.4611969,-0.5469055,-2.1000404,1.1241713,0.9013028
1570714990,-0.92826843,-9.460373,2.0807495,-1.1466675,0.47505188,-0.39883423,-1.3131206,-0.25552177,4.495652
1570714990,-1.9841156,-11.224915,-0.73602295,-0.38180542,1.1898346,-0.5223999,-1.1004179,-1.1648407,2.7124453
1570714990,-4.365158,-12.348984,-0.80426025,-0.19113159,0.42285156,-0.37860107,-5.388178,-3.8836842,1.669919
1570714990,0.83984375,-10.031403,4.205612,-0.13360596,1.8492432,0.06135559,0.013853192,-0.76784706,6.7862854
1570714990,-4.219101,-14.702484,3.1701202,1.0094299,-0.3196411,-0.806839,-2.7855852,-4.3750486,6.3807254
1570714990,-7.2525635,-12.960709,5.3224945,1.9958649,-0.0043182373,0.023010254,-8.318821,-3.635332,7.168184
1570714990,3.366928,-10.837051,1.7120514,3.381775,-0.6104584,1.068039,2.2069793,-1.4858503,3.3189127
1570714990,5.2667236,-11.797119,-2.4490814,3.4456787,-1.2112732,0.8634949,4.9351473,-1.8632822,-2.0813067
1570714990,2.0477142,-15.307022,-5.2634583,3.065384,0.4888916,0.592926,1.6856568,-5.642931,-5.8407345
1570714990,-1.3915558,-11.836624,-2.222824,2.3719025,0.52723694,0.6834717,-1.2161635,-2.3110704,-3.8497596
1570714990,-1.5423889,-10.476715,-0.7779236,2.189743,-0.079956055,1.2075806,-1.4518974,-0.9652128,-2.8430252
1570714990,-0.23994446,-10.325882,-0.4044342,1.999054,-1.0237885,1.3247681,0.2570879,-1.0008745,-2.826649
1570714990,-0.32852173,-8.7313385,-1.898407,2.0214233,-1.9186096,0.9529877,0.41523343,0.33558846,-4.9869514
1570714990,-0.51527405,-7.464813,-1.9822083,1.7519073,-2.053894,0.9902649,0.23583156,1.4605532,-5.6876345
1570714990,0.03538513,-6.941681,-1.977417,1.1564331,-2.0475006,1.101059,0.72377294,1.6606131,-6.0084753
1570714990,1.9124451,-5.0706177,-2.7196198,0.6067505,-2.0624084,0.97428894,2.6372666,3.4073057,-6.9518194
1570714990,2.5110016,-2.4609375,-3.4618225,-0.044128418,-1.8067474,0.76123047,3.1231189,5.571065,-7.716851
1570714990,2.556488,-1.020813,-3.079956,-0.7397461,-0.8128662,0.526886,3.3472173,7.4100018,-7.3498087
1570714990,0.88414,-1.163269,-0.95988464,-1.4321594,-0.21418762,0.16468811,1.7830362,7.5337,-5.119197
1570714990,-0.54042053,-4.681549,4.6928253,-2.1341705,-0.058654785,0.07093811,0.29191047,4.2728825,0.8930981
1570714991,-2.4090881,-16.786636,18.440338,-1.3661194,-0.31645203,-0.13145447,-1.5531645,-7.200349,15.083403
1570714991,-3.6133728,-22.744614,14.249283,0.4224701,-0.7414856,0.03579712,-3.2108288,-14.390489,11.369607
1570714991,0.24249268,-6.535858,5.9940796,0.84750366,-2.16362,0.64619446,1.0756176,0.87118816,3.7400305
1570714991,-0.5894928,1.8139191,0.7902832,0.04748535,-1.355072,0.84858704,-0.076022446,10.495662,-2.5788722
1570714991,2.5732422,-1.6540833,-8.006012,-1.5290985,-1.5404358,0.27441406,2.9060392,7.5847273,-10.494872
1570714991,9.628952,-27.91249,1.5252991,-2.4644012,1.1749268,-1.2425232,9.977657,-15.31879,-5.067382
1570714991,-8.331146,-13.787903,0.09954834,0.7740021,0.011657715,-0.47979736,-8.424253,-10.656291,2.7344892
1570714991,-1.6094208,2.739273,-9.908218,-0.16448975,-0.4442749,0.09437561,-1.6588539,11.695028,-12.153391
1570714991,1.1977844,-2.9840698,-8.963699,-2.2939606,1.7150116,0.3607025,1.0004301,7.918562,-11.812367
1570714991,0.019836426,-13.746002,-3.6473694,-1.9232483,2.405304,-0.3892517,0.47921276,-3.8371115,-5.343123
1570714991,-6.057846,-14.358917,4.1206055,-1.3970032,1.0843811,-0.21881104,-5.8284,-6.273926,2.823754
1570714991,0.046173096,-7.9244995,0.40361023,-1.2148438,1.3304596,0.2424469,0.16242331,1.4231758,0.1235891
1570714991,3.9535065,-6.8291473,-3.5647736,-1.2851562,2.4298096,0.07093811,4.2307177,2.777791,-3.9848464
1570714991,3.4758606,-9.037811,-0.32661438,-1.1903534,1.5413818,-0.28059387,4.545815,0.5044584,-0.38543954
1570714991,-3.1488953,-9.3550415,-0.7563782,-0.8643799,0.7083435,-0.57673645,-2.6233966,0.072485924,-0.0763126
1570714991,-5.9417267,-7.72818,-1.3070374,-0.78767395,1.2281952,-0.17726135,-5.866713,1.6782665,-0.4895509
1570714991,-0.783432,-8.280045,-0.66300964,-1.0305634,1.7395172,0.28720093,-1.3737197,1.1455307,-0.007644415
1570714991,2.2500305,-7.8933716,0.41079712,-0.84306335,0.84576416,-0.07606506,2.2900264,1.3921938,2.0077274
1570714991,0.06651306,-7.1775055,-2.4095764,-0.9155121,0.35679626,-0.4212036,0.38287774,2.0650797,-0.65622044
1570714991,-1.2706451,-8.397354,-1.2172546,-1.2595825,0.66893005,-0.5096283,-1.3261385,1.2270794,0.45684755
1570714991,-1.5340118,-8.350662,0.32699585,-1.2649078,0.32591248,-0.48831177,-1.8727854,0.6392021,2.1896684
1570714991,-0.92826843,-9.674667,0.769928,-0.97836304,0.6060791,-0.4169464,-1.5222844,-0.52393436,3.3107562
1570714991,-0.78222656,-9.994293,1.1015167,-0.51283264,1.1408386,-0.3935089,-1.1555761,-0.9185915,3.8420923
1570714991,-5.768158,-13.048096,-0.60913086,0.009140015,0.19168091,-0.40309143,-6.3472834,-4.073984,1.9574409
1570714991,-2.230713,-11.460739,2.5631866,0.14656067,1.1685333,0.14871216,-3.4227474,-2.5309477,4.7229643
1570714991,-1.9015198,-13.034927,3.6740875,0.86135864,-0.30046082,-0.12187195,-2.4415398,-3.8300543,6.0500536
1570714991,-1.3951416,-12.335815,6.043152,1.8296814,-0.90127563,-0.026000977,-2.380591,-3.263404,7.8891897
1570714991,2.082428,-10.521011,2.7415466,3.4542084,-0.5007324,0.13485718,0.8755848,-1.5336599,5.3086715
1570714991,1.8166809,-11.221313,-3.258316,3.4669952,-1.0461578,0.4576416,1.3474865,-1.0758848,-2.3658583
1570714991,1.5114136,-15.891205,-5.0036926,2.9918823,0.5219116,0.702652,1.0229329,-6.2715855,-5.3394866
1570714991,-1.0204468,-11.587631,-2.3138123,2.3164978,0.87557983,0.6877289,-0.5873517,-2.6626062,-3.7298117
1570714991,-1.3556366,-9.462769,-1.3226013,2.0363464,-0.2919464,1.1820221,-1.4554764,-0.27581978,-3.3028972
1570714991,-1.5052795,-10.094849,2.4003754,1.969223,-1.2528076,1.2363434,-1.1578047,-0.7250767,0.07533693
1570714992,-1.0060883,-8.915695,-1.31781,2.0991974,-2.181717,1.0914764,-0.7040392,-0.14675617,-4.10921
1570714992,1.0050507,-7.6228333,-1.1777496,1.9905396,-1.8387146,0.96577454,1.4861627,1.1745043,-4.7146616
1570714992,2.038147,-7.238556,-1.4183807,1.6869354,-2.2722778,0.8432617,2.709556,1.260169,-5.374739
1570714992,1.7807617,-6.6603546,-2.2743073,1.3705444,-2.181717,0.67282104,2.228449,1.4885025,-6.4697285
1570714992,2.0848236,-4.151245,-3.182907,0.66108704,-1.9676056,0.54818726,2.4643419,3.6536493,-7.802401
1570714992,1.8466034,-1.7953491,-2.692093,-0.3125763,-1.09729,0.5545807,2.1077592,6.124812,-7.4658194
1570714992,2.0560913,-0.6940155,-1.4064026,-1.2318878,-0.2205658,0.33512878,2.2636695,7.388794,-6.0621696
1570714992,0.41007996,-1.5690918,1.1015167,-2.0180511,0.52937317,0.081604004,0.7504363,6.884016,-3.0434723
1570714992,-1.1473389,-9.790787,11.777267,-2.4175262,0.9373779,-0.003616333,-0.75853574,0.26054573,6.6207943
1570714992,-3.4816895,-26.896149,17.786713,-0.40312195,-0.8916931,-0.36688232,-1.8473486,-16.404982,15.55408
1570714992,-0.8839874,-15.248367,10.829163,0.9007721,-1.1803741,0.22221375,-0.9413341,-7.04996,7.9787283
1570714992,0.90808105,-4.063843,4.817322,0.7601471,-2.101822,0.702652,1.3571525,3.3117723,2.152171
1570714992,3.9223785,-1.546341,-2.0540314,-0.53414917,-0.9193878,0.5833435,2.423086,9.420528,-4.0724115
1570714992,9.611008,-24.530685,5.5715027,-1.37677,-0.13534546,-1.046524,10.3337,-15.251586,2.141991
1570714992,-5.472473,-12.961899,-2.5843506,0.5577545,0.82232666,-0.6161499,-5.8767815,-5.281725,-4.8139358
1570714992,-0.49491882,0.7891998,-6.808914,-0.9442749,-0.08528137,0.22007751,-0.8645326,9.5914135,-9.847932
1570714992,0.21017456,-1.8946991,-7.6720276,-2.2950287,1.1877136,0.20516968,0.2701296,7.802535,-10.322229
1570714992,-1.8165283,-12.226883,-6.491684,-2.3482819,3.2319489,-0.361557,-1.8583685,-1.210144,-9.687351
1570714992,-6.555847,-16.729172,5.6971893,-1.9914246,2.3637543,-0.29870605,-6.1510987,-8.453148,3.8170466
1570714992,-0.333313,-8.31955,0.4658661,-0.9527893,-0.1342926,0.31915283,-1.054075,0.4610033,0.8385408
1570714992,3.0413055,-6.404175,-2.0348816,-1.37677,0.99916077,0.003829956,3.0552297,2.8936033,-2.4404495
1570714992,2.0393372,-7.858658,-0.9431305,-1.472641,2.2401886,-0.28271484,2.5708082,1.8941374,-0.8123058
1570714992,-2.1122131,-10.585648,0.41677856,-1.2052612,1.2803802,-0.361557,-1.3868682,-0.93834496,0.6150505
1570714992,-3.6480865,-9.29039,0.11630249,-0.8686371,0.6572113,-0.2166748,-3.6740625,-0.49546242,0.64792114
1570714992,-2.1684723,-7.9759827,-1.8265839,-0.9112549,0.9725189,0.048568726,-2.2269747,1.3250551,-0.9253578
1570714992,1.181015,-8.342285,-0.9036255,-1.1455994,0.97465515,0.06349182,0.51957566,0.8264923,-0.56063986
1570714992,1.7580261,-7.822754,0.16299438,-1.1125793,0.56559753,-0.26141357,1.7686137,1.3597412,1.6924751
1570714992,-0.012496948,-7.688675,-2.4299164,-1.0838165,0.54748535,-0.47659302,-0.10752112,1.4281721,-0.6140809
1570714992,-1.4202881,-8.056183,-1.0173492,-1.3991394,0.651886,-0.47340393,-1.420012,1.5256901,0.47463894
1570714992,-1.4202881,-8.056183,-1.0173492,-1.3991394,0.651886,-0.47340393,-1.420012,1.5256901,0.47463894
1570714992,-1.4202881,-8.056183,-1.0173492,-1.3991394,0.651886,-0.47340393,-1.420012,1.5256901,0.47463894
1570714992,-1.4202881,-8.056183,-1.0173492,-1.3991394,0.651886,-0.47340393,-1.420012,1.5256901,0.47463894
1570714992,-1.4202881,-8.056183,-1.0173492,-1.3991394,0.651886,-0.47340393,-1.420012,1.5256901,0.47463894
1570714992,-1.4202881,-8.056183,-1.0173492,-1.3991394,0.651886,-0.47340393,-1.420012,1.5256901,0.47463894
1570714993,-1.4202881,-8.056183,-1.0173492,-1.3991394,0.651886,-0.47340393,-1.420012,1.5256901,0.47463894
1570714993,-1.4202881,-8.056183,-1.0173492,-1.3991394,0.651886,-0.47340393,-1.420012,1.5256901,0.47463894
1570714993,-1.4202881,-8.056183,-1.0173492,-1.3991394,0.651886,-0.47340393,-1.420012,1.5256901,0.47463894
1570714993,-1.4202881,-8.056183,-1.0173492,-1.3991394,0.651886,-0.47340393,-1.420012,1.5256901,0.47463894
1570714993,-1.4202881,-8.056183,-1.0173492,-1.3991394,0.651886,-0.47340393,-1.420012,1.5256901,0.47463894
1570714993,-2.4725342,-9.750076,1.6054993,-1.3991394,0.651886,-0.47340393,-1.420012,1.5256901,0.47463894
1570714993,-0.9354553,-9.778809,1.3816528,1.9788208,-0.18861389,1.2885437,-0.94311273,-0.34603977,-1.0738484
1570714993,-1.6609039,-10.6323395,-0.3182373,2.30159,-2.165741,1.0861359,-1.2286228,-1.586668,-1.973239
1570714993,-0.14537048,-8.525452,-2.2958527,2.284546,-2.1039581,0.79852295,-0.013462454,0.1148262,-5.6491413
1570714993,1.5245819,-7.238556,-1.9762268,1.9756165,-2.306366,0.71969604,1.8376414,1.356349,-5.6566987
1570714993,1.9818726,-6.8183746,-2.5340729,1.553772,-2.306366,0.68133545,2.195191,1.482851,-6.468725
1570714993,2.4511414,-4.9161835,-3.4151306,0.8570862,-2.056015,0.6014404,2.628099,3.0146198,-7.7385607
1570714993,1.9758911,-2.1820068,-3.7419434,-0.06010437,-1.5106049,0.55244446,2.0786731,5.7103424,-8.134366
1570714993,1.6143646,-0.881958,-2.7986298,-1.05719,-0.459198,0.49066162,1.7912904,7.2277145,-7.249388
1570714993,0.29756165,-1.1967926,-0.12550354,-1.9520111,0.4878235,0.3085022,0.69023675,7.314659,-4.446674
1570714993,0.3789673,-6.7549286,9.013168,-2.459076,0.70513916,0.29785156,0.66056836,2.7821045,4.13443
1570714993,0.53578186,-24.920944,20.596313,-0.7972717,-0.068237305,-0.19644165,0.45572683,-13.03239,18.6667
1570714993,-2.965744,-18.767838,12.543411,0.803833,-1.1548157,-0.061141968,-3.6475298,-12.723351,11.056675
1570714993,0.58366394,-3.4820557,5.2243347,0.899704,-2.1220703,0.7069092,1.1207619,3.7448797,2.959424
1570714993,2.4906464,3.3486023,0.15820312,-0.22840881,-0.67970276,0.72288513,1.7766465,12.176436,-3.3397148
1570714993,10.814087,-17.753891,-2.6023102,-1.9104614,-0.28448486,-0.32000732,10.55244,-5.1384563,-6.412485
1570714993,-6.0602417,-23.788483,5.4362335,0.061340332,1.8993073,-0.9740753,-3.2291167,-16.60243,3.2108314
1570714993,-0.9007416,-1.3464355,-4.2950134,-0.21456909,-0.5188446,0.06668091,-1.7173816,5.836748,-6.79205
1570714993,1.4168396,-0.78019714,-10.8658905,-2.0436249,-0.016036987,0.15722656,1.4586073,9.157942,-13.247784
1570714993,-0.48893738,-13.062454,-5.681244,-2.303543,3.0529785,-0.57247925,-0.2885493,-1.2791948,-8.944196
1570714993,-5.804062,-15.219635,4.700012,-1.8753052,1.1706696,-0.22306824,-4.5717254,-8.537334,2.4866338
1570714993,-0.5392151,-8.145966,-0.31105042,-1.2947388,0.7722473,0.5673523,-1.2838788,0.7576542,0.11402595
1570714993,3.805069,-7.170334,-3.7311707,-1.7315063,2.631134,0.14978027,3.6739905,2.0537777,-4.57637
1570714993,3.6757812,-8.634384,1.0081482,-1.4023285,1.8321991,-0.16447449,3.9642906,0.81553173,0.90582836
1570714993,-1.2107849,-8.8498535,0.66937256,-1.0465393,0.9661255,-0.65237427,-0.30625302,0.53096485,1.5585661
1570714993,-6.2565765,-8.673889,-1.8469391,-0.88461304,0.61779785,-0.3413086,-6.1835017,0.49071884,-0.84611124
1570714993,-3.5403442,-8.3159485,-1.7080688,-1.1424103,0.87664795,0.23500061,-4.761176,0.9935026,-0.9321213
1570714993,1.1834106,-8.451218,0.90878296,-1.1860809,1.54776,0.23072815,0.34998786,0.6351204,2.1399636
1570714994,2.564865,-8.069351,-0.50857544,-0.9389496,0.57199097,-0.22839355,2.5818217,0.9462757,1.8849227
1570714994,0.7333069,-7.700638,-1.3118286,-1.0955353,0.124572754,-0.49790955,0.9225247,1.3598852,0.41020763
1570714994,-1.6668854,-8.605652,-0.36013794,-1.2063293,-0.11936951,-0.5650177,-1.5562575,0.31590557,1.7695954
1570714994,-2.7059631,-9.080902,0.09475708,-1.1264343,0.11073303,-0.46061707,-3.202179,-1.335144E-5,2.7024384
1570714994,0.24847412,-10.153503,1.4319305,-0.76530457,0.80314636,-0.103759766,-0.95010465,-1.0281992,4.2888603
1570714994,-1.9685516,-12.064072,-0.43196106,-0.21456909,0.87345886,-0.2624817,-2.235695,-3.0122519,2.4834876
1570714994,-0.31176758,-10.934006,2.5021362,0.024047852,1.1269836,-0.038772583,-2.1133554,-2.8063126,4.5090113
1570714994,0.13235474,-12.915207,4.952591,0.6259308,0.3600006,-0.4126892,-0.04515642,-2.9712934,7.8061695
1570714994,-5.654434,-12.4232025,3.60466,1.870163,-0.5561371,-0.5660858,-5.972167,-4.3018417,5.94605
1570714994,-2.479721,-11.07048,2.591919,3.1175842,-0.36437988,0.32234192,-5.0522823,-2.2933187,4.850548
1570714994,3.1047516,-11.279968,-2.7579346,3.398819,-0.8810425,0.688797,2.5632524,-0.9283247,-1.1176643
1570714994,2.6247253,-16.835724,-4.8624268,3.1250458,0.34402466,0.82514954,1.7030423,-6.9254704,-4.689573
1570714994,1.0637054,-11.757614,-3.1350098,2.17482,1.5296631,0.8134308,1.3036847,-4.0211487,-4.652472
1570714994,-1.3101501,-9.007874,-0.87249756,1.9330139,0.103271484,1.1127777,-1.0089871,-0.0015459061,-2.5135727
1570714994,-0.42788696,-9.78479,2.0939178,2.1013184,-0.92684937,1.1681671,-0.026330382,-0.45440006,-0.034888625
1570714994,-0.15853882,-9.671066,-1.6972961,2.3665771,-2.4437714,0.6749573,0.17657307,-1.0306988,-3.9772365
1570714994,-0.13699341,-7.9436493,-1.740387,2.238739,-2.6568298,0.50450134,-0.15380004,0.6288233,-4.7575283
1570714994,1.2456665,-7.616852,-1.9055939,2.0895996,-2.6174164,0.513031,1.2154397,0.98961353,-5.5208783
1570714994,2.0285645,-6.673523,-3.0188904,1.5889282,-2.4405823,0.513031,1.7881767,1.3158684,-6.84621
1570714994,2.3865051,-3.9429474,-3.364853,0.74949646,-2.070938,0.4427185,2.16156,3.6348696,-7.673619
1570714994,2.0800476,-1.8791351,-3.1302338,-0.2188263,-1.000351,0.49066162,1.8106819,5.9132767,-7.552085
1570714994,1.627533,-1.6540833,-1.577591,-1.104065,0.030838013,0.3447113,1.2422011,6.5964966,-6.0001645
1570714994,1.8106995,-3.1492615,0.55804443,-1.9807739,0.92352295,0.11141968,1.7200848,5.7107563,-3.9919167
1570714994,0.78956604,-9.116806,10.027115,-2.3078156,1.0854492,-0.003616333,0.9505979,0.91736984,4.3976803
1570714994,-1.1210022,-20.512009,16.60997,-0.804718,-1.1079407,-0.30296326,-0.09652677,-9.690533,14.773234
1570714994,-1.1365662,-15.827759,11.670731,0.14442444,-1.1015472,0.19984436,-2.8827202,-9.256314,10.196785
1570714994,0.9332123,-3.9872284,4.49411,0.3383026,-1.2070007,0.57162476,0.9018324,3.5935068,2.1931555
1570714994,8.680847,-10.6957855,-1.9798126,-0.6971283,0.07450867,0.43099976,5.966419,1.6772718,-5.096876
1570714994,4.9734344,-19.911072,12.531448,-0.45637512,-1.3305817,-0.8899231,7.966046,-11.462699,9.279894
1570714994,-6.760544,-3.6951447,-10.771317,0.74842834,1.2132721,-0.5746002,-8.453784,1.3741875,-12.167997
1570714994,1.5748596,1.7133636,-7.7043457,-1.5951538,0.065979004,0.32022095,-1.0738322,12.331301,-11.885954
1570714994,-1.2311401,-7.930481,-4.858841,-2.2854462,1.3773193,-0.41481018,-0.2808576,3.0296621,-7.500742
1570714994,-5.527542,-17.49173,-0.28471375,-1.9914246,2.0484467,-0.08778381,-5.072236,-8.548194,-3.239902
1570714995,-5.9956055,-12.896057,4.789795,-1.4481354,0.6039429,0.10823059,-6.9854765,-5.850933,2.2642498
1570714997,-5.9956055,-12.896057,4.789795,-1.4481354,0.6039429,0.10823059,-6.9854765,-5.850933,2.2642498
1570714997,-5.9956055,-12.896057,4.789795,-1.4481354,0.6039429,0.10823059,-6.9854765,-5.850933,2.2642498
1570714997,-5.9956055,-12.896057,4.789795,-1.4481354,0.6039429,0.10823059,-6.9854765,-5.850933,2.2642498
1570714997,-5.9956055,-12.896057,4.789795,-1.4481354,0.6039429,0.10823059,-6.9854765,-5.850933,2.2642498
1570714997,-5.9956055,-12.896057,4.789795,-1.4481354,0.6039429,0.10823059,-6.9854765,-5.850933,2.2642498
1570714997,-5.9956055,-12.896057,4.789795,-1.4481354,0.6039429,0.10823059,-6.9854765,-5.850933,2.2642498
1570714997,-5.9956055,-12.896057,4.789795,-1.4481354,0.6039429,0.10823059,-6.9854765,-5.850933,2.2642498
1570714997,-5.9956055,-12.896057,4.789795,-1.4481354,0.6039429,0.10823059,-6.9854765,-5.850933,2.2642498
1570714997,-5.9956055,-12.896057,4.789795,-1.4481354,0.6039429,0.10823059,-6.9854765,-5.850933,2.2642498
1570714997,-5.9956055,-12.896057,4.789795,-1.4481354,0.6039429,0.10823059,-6.9854765,-5.850933,2.2642498
1570714997,-5.9956055,-12.896057,4.789795,-1.4481354,0.6039429,0.10823059,-6.9854765,-5.850933,2.2642498
1570714997,-5.9956055,-12.896057,4.789795,-1.4481354,0.6039429,0.10823059,-6.9854765,-5.850933,2.2642498
1570714997,-5.9956055,-12.896057,4.789795,-1.4481354,0.6039429,0.10823059,-6.9854765,-5.850933,2.2642498
1570714997,-5.9956055,-12.896057,4.789795,-1.4481354,0.6039429,0.10823059,-6.9854765,-5.850933,2.2642498
1570714997,-5.9956055,-12.896057,4.789795,-1.4481354,0.6039429,0.10823059,-6.9854765,-5.850933,2.2642498
1570714997,-5.9956055,-12.896057,4.789795,-1.4481354,0.6039429,0.10823059,-6.9854765,-5.850933,2.2642498
1570714997,-5.9956055,-12.896057,4.789795,-1.4481354,0.6039429,0.10823059,-6.9854765,-5.850933,2.2642498
1570714997,-5.9956055,-12.896057,4.789795,-1.4481354,0.6039429,0.10823059,-6.9854765,-5.850933,2.2642498
1570714997,-5.9956055,-12.896057,4.789795,-1.4481354,0.6039429,0.10823059,-6.9854765,-5.850933,2.2642498
1570714997,-5.9956055,-12.896057,4.789795,-1.4481354,0.6039429,0.10823059,-6.9854765,-5.850933,2.2642498
1570714997,-5.9956055,-12.896057,4.789795,-1.4481354,0.6039429,0.10823059,-6.9854765,-5.850933,2.2642498
1570714997,-5.9956055,-12.896057,4.789795,-1.4481354,0.6039429,0.10823059,-6.9854765,-5.850933,2.2642498
1570714997,-5.9956055,-12.896057,4.789795,-1.4481354,0.6039429,0.10823059,-6.9854765,-5.850933,2.2642498
1570714997,-5.9956055,-12.896057,4.789795,-1.4481354,0.6039429,0.10823059,-6.9854765,-5.850933,2.2642498
1570714997,-5.9956055,-12.896057,4.789795,-1.4481354,0.6039429,0.10823059,-6.9854765,-5.850933,2.2642498
1570714997,-5.9956055,-12.896057,4.789795,-1.4481354,0.6039429,0.10823059,-6.9854765,-5.850933,2.2642498
1570714997,-5.9956055,-12.896057,4.789795,-1.4481354,0.6039429,0.10823059,-6.9854765,-5.850933,2.2642498
1570714997,-5.9956055,-12.896057,4.789795,-1.4481354,0.6039429,0.10823059,-6.9854765,-5.850933,2.2642498
1570714997,-5.9956055,-12.896057,4.789795,-1.4481354,0.6039429,0.10823059,-6.9854765,-5.850933,2.2642498
1570714997,-5.9956055,-12.896057,4.789795,-1.4481354,0.6039429,0.10823059,-6.9854765,-5.850933,2.2642498
1570714997,-5.9956055,-12.896057,4.789795,-1.4481354,0.6039429,0.10823059,-6.9854765,-5.850933,2.2642498
1570714997,-5.9956055,-12.896057,4.789795,-1.4481354,0.6039429,0.10823059,-6.9854765,-5.850933,2.2642498
1570714997,-5.9956055,-12.896057,4.789795,-1.4481354,0.6039429,0.10823059,-6.9854765,-5.850933,2.2642498
1570714997,-5.9956055,-12.896057,4.789795,-1.4481354,0.6039429,0.10823059,-6.9854765,-5.850933,2.2642498
1570714997,-5.9956055,-12.896057,4.789795,-1.4481354,0.6039429,0.10823059,-6.9854765,-5.850933,2.2642498
1570714997,-5.9956055,-12.896057,4.789795,-1.4481354,0.6039429,0.10823059,-6.9854765,-5.850933,2.2642498
1570714997,-5.9956055,-12.896057,4.789795,-1.4481354,0.6039429,0.10823059,-6.9854765,-5.850933,2.2642498
1570714997,-5.9956055,-12.896057,4.789795,-1.4481354,0.6039429,0.10823059,-6.9854765,-5.850933,2.2642498
1570714997,-5.9956055,-12.896057,4.789795,-1.4481354,0.6039429,0.10823059,-6.9854765,-5.850933,2.2642498
1570714997,-5.9956055,-12.896057,4.789795,-1.4481354,0.6039429,0.10823059,-6.9854765,-5.850933,2.2642498
1570714997,-5.9956055,-12.896057,4.789795,-1.4481354,0.6039429,0.10823059,-6.9854765,-5.850933,2.2642498
1570714997,-5.9956055,-12.896057,4.789795,-1.4481354,0.6039429,0.10823059,-6.9854765,-5.850933,2.2642498
1570714997,-5.9956055,-12.896057,4.789795,-1.4481354,0.6039429,0.10823059,-6.9854765,-5.850933,2.2642498
1570714997,-5.9956055,-12.896057,4.789795,-1.4481354,0.6039429,0.10823059,-6.9854765,-5.850933,2.2642498
1570714997,-5.9956055,-12.896057,4.789795,-1.4481354,0.6039429,0.10823059,-6.9854765,-5.850933,2.2642498
1570714997,-5.9956055,-12.896057,4.789795,-1.4481354,0.6039429,0.10823059,-6.9854765,-5.850933,2.2642498
1570714997,-5.9956055,-12.896057,4.789795,-1.4481354,0.6039429,0.10823059,-6.9854765,-5.850933,2.2642498
1570714997,-5.9956055,-12.896057,4.789795,-1.4481354,0.6039429,0.10823059,-6.9854765,-5.850933,2.2642498
1570714997,-5.9956055,-12.896057,4.789795,-1.4481354,0.6039429,0.10823059,-6.9854765,-5.850933,2.2642498
1570714997,-5.9956055,-12.896057,4.789795,-1.4481354,0.6039429,0.10823059,-6.9854765,-5.850933,2.2642498
1570714997,-5.9956055,-12.896057,4.789795,-1.4481354,0.6039429,0.10823059,-6.9854765,-5.850933,2.2642498
1570714997,-5.9956055,-12.896057,4.789795,-1.4481354,0.6039429,0.10823059,-6.9854765,-5.850933,2.2642498
1570714997,-5.9956055,-12.896057,4.789795,-1.4481354,0.6039429,0.10823059,-6.9854765,-5.850933,2.2642498
1570714997,-5.9956055,-12.896057,4.789795,-1.4481354,0.6039429,0.10823059,-6.9854765,-5.850933,2.2642498
1570714997,-5.9956055,-12.896057,4.789795,-1.4481354,0.6039429,0.10823059,-6.9854765,-5.850933,2.2642498
1570714997,-5.9956055,-12.896057,4.789795,-1.4481354,0.6039429,0.10823059,-6.9854765,-5.850933,2.2642498
1570714997,-5.9956055,-12.896057,4.789795,-1.4481354,0.6039429,0.10823059,-6.9854765,-5.850933,2.2642498
1570714997,-5.9956055,-12.896057,4.789795,-1.4481354,0.6039429,0.10823059,-6.9854765,-5.850933,2.2642498
1570714997,-5.9956055,-12.896057,4.789795,-1.4481354,0.6039429,0.10823059,-6.9854765,-5.850933,2.2642498
1570714997,-5.9956055,-12.896057,4.789795,-1.4481354,0.6039429,0.10823059,-6.9854765,-5.850933,2.2642498
1570714997,-5.9956055,-12.896057,4.789795,-1.4481354,0.6039429,0.10823059,-6.9854765,-5.850933,2.2642498
1570714997,-5.9956055,-12.896057,4.789795,-1.4481354,0.6039429,0.10823059,-6.9854765,-5.850933,2.2642498
1570714997,-5.9956055,-12.896057,4.789795,-1.4481354,0.6039429,0.10823059,-6.9854765,-5.850933,2.2642498
1570714997,-5.9956055,-12.896057,4.789795,-1.4481354,0.6039429,0.10823059,-6.9854765,-5.850933,2.2642498
1570714997,-5.9956055,-12.896057,4.789795,-1.4481354,0.6039429,0.10823059,-6.9854765,-5.850933,2.2642498
1570714997,-5.9956055,-12.896057,4.789795,-1.4481354,0.6039429,0.10823059,-6.9854765,-5.850933,2.2642498
1570714997,-5.9956055,-12.896057,4.789795,-1.4481354,0.6039429,0.10823059,-6.9854765,-5.850933,2.2642498
1570714997,-5.9956055,-12.896057,4.789795,-1.4481354,0.6039429,0.10823059,-6.9854765,-5.850933,2.2642498
1570714997,-5.9956055,-12.896057,4.789795,-1.4481354,0.6039429,0.10823059,-6.9854765,-5.850933,2.2642498
1570714997,-5.9956055,-12.896057,4.789795,-1.4481354,0.6039429,0.10823059,-6.9854765,-5.850933,2.2642498
1570714997,-5.9956055,-12.896057,4.789795,-1.4481354,0.6039429,0.10823059,-6.9854765,-5.850933,2.2642498
1570714997,-5.9956055,-12.896057,4.789795,-1.4481354,0.6039429,0.10823059,-6.9854765,-5.850933,2.2642498
1570714997,-5.9956055,-12.896057,4.789795,-1.4481354,0.6039429,0.10823059,-6.9854765,-5.850933,2.2642498
1570714997,-5.9956055,-12.896057,4.789795,-1.4481354,0.6039429,0.10823059,-6.9854765,-5.850933,2.2642498
1570714997,-5.9956055,-12.896057,4.789795,-1.4481354,0.6039429,0.10823059,-6.9854765,-5.850933,2.2642498
1570714997,-5.9956055,-12.896057,4.789795,-1.4481354,0.6039429,0.10823059,-6.9854765,-5.850933,2.2642498
1570714997,-5.9956055,-12.896057,4.789795,-1.4481354,0.6039429,0.10823059,-6.9854765,-5.850933,2.2642498
1570714997,-5.9956055,-12.896057,4.789795,-1.4481354,0.6039429,0.10823059,-6.9854765,-5.850933,2.2642498
1570714997,-5.9956055,-12.896057,4.789795,-1.4481354,0.6039429,0.10823059,-6.9854765,-5.850933,2.2642498
1570714997,-5.9956055,-12.896057,4.789795,-1.4481354,0.6039429,0.10823059,-6.9854765,-5.850933,2.2642498
1570714997,-5.9956055,-12.896057,4.789795,-1.4481354,0.6039429,0.10823059,-6.9854765,-5.850933,2.2642498
1570714997,-5.9956055,-12.896057,4.789795,-1.4481354,0.6039429,0.10823059,-6.9854765,-5.850933,2.2642498
1570714997,-5.9956055,-12.896057,4.789795,-1.4481354,0.6039429,0.10823059,-6.9854765,-5.850933,2.2642498
1570714997,-5.9956055,-12.896057,4.789795,-1.4481354,0.6039429,0.10823059,-6.9854765,-5.850933,2.2642498
1570714997,-5.9956055,-12.896057,4.789795,-1.4481354,0.6039429,0.10823059,-6.9854765,-5.850933,2.2642498
1570714997,-5.9956055,-12.896057,4.789795,-1.4481354,0.6039429,0.10823059,-6.9854765,-5.850933,2.2642498
1570714997,-5.9956055,-12.896057,4.789795,-1.4481354,0.6039429,0.10823059,-6.9854765,-5.850933,2.2642498
1570714997,-5.9956055,-12.896057,4.789795,-1.4481354,0.6039429,0.10823059,-6.9854765,-5.850933,2.2642498
1570714997,-5.9956055,-12.896057,4.789795,-1.4481354,0.6039429,0.10823059,-6.9854765,-5.850933,2.2642498
1570714997,-5.9956055,-12.896057,4.789795,-1.4481354,0.6039429,0.10823059,-6.9854765,-5.850933,2.2642498
1570714997,-5.9956055,-12.896057,4.789795,-1.4481354,0.6039429,0.10823059,-6.9854765,-5.850933,2.2642498
1570714997,-5.9956055,-12.896057,4.789795,-1.4481354,0.6039429,0.10823059,-6.9854765,-5.850933,2.2642498
1570714997,-5.9956055,-12.896057,4.789795,-1.4481354,0.6039429,0.10823059,-6.9854765,-5.850933,2.2642498
1570714997,-5.9956055,-12.896057,4.789795,-1.4481354,0.6039429,0.10823059,-6.9854765,-5.850933,2.2642498
1570714997,-5.9956055,-12.896057,4.789795,-1.4481354,0.6039429,0.10823059,-6.9854765,-5.850933,2.2642498
1570714997,-5.9956055,-12.896057,4.789795,-1.4481354,0.6039429,0.10823059,-6.9854765,-5.850933,2.2642498
1570714997,-5.9956055,-12.896057,4.789795,-1.4481354,0.6039429,0.10823059,-6.9854765,-5.850933,2.2642498
1570714997,-5.9956055,-12.896057,4.789795,-1.4481354,0.6039429,0.10823059,-6.9854765,-5.850933,2.2642498
1570714997,-5.9956055,-12.896057,4.789795,-1.4481354,0.6039429,0.10823059,-6.9854765,-5.850933,2.2642498
1570714998,-5.9956055,-12.896057,4.789795,-1.4481354,0.6039429,0.10823059,-6.9854765,-5.850933,2.2642498
1570714998,-5.9956055,-12.896057,4.789795,-1.4481354,0.6039429,0.10823059,-6.9854765,-5.850933,2.2642498
1570714998,-5.9956055,-12.896057,4.789795,-1.4481354,0.6039429,0.10823059,-6.9854765,-5.850933,2.2642498
1570714998,-5.9956055,-12.896057,4.789795,-1.4481354,0.6039429,0.10823059,-6.9854765,-5.850933,2.2642498
1570714998,-5.9956055,-12.896057,4.789795,-1.4481354,0.6039429,0.10823059,-6.9854765,-5.850933,2.2642498
1570714998,-5.9956055,-12.896057,4.789795,-1.4481354,0.6039429,0.10823059,-6.9854765,-5.850933,2.2642498
1570714998,-5.9956055,-12.896057,4.789795,-1.4481354,0.6039429,0.10823059,-6.9854765,-5.850933,2.2642498
1570714998,-5.9956055,-12.896057,4.789795,-1.4481354,0.6039429,0.10823059,-6.9854765,-5.850933,2.2642498
1570714998,-5.9956055,-12.896057,4.789795,-1.4481354,0.6039429,0.10823059,-6.9854765,-5.850933,2.2642498
1570714998,-5.9956055,-12.896057,4.789795,-1.4481354,0.6039429,0.10823059,-6.9854765,-5.850933,2.2642498
1570714998,-5.9956055,-12.896057,4.789795,-1.4481354,0.6039429,0.10823059,-6.9854765,-5.850933,2.2642498
1570714998,-5.9956055,-12.896057,4.789795,-1.4481354,0.6039429,0.10823059,-6.9854765,-5.850933,2.2642498
1570714998,-5.9956055,-12.896057,4.789795,-1.4481354,0.6039429,0.10823059,-6.9854765,-5.850933,2.2642498
1570714998,-5.9956055,-12.896057,4.789795,-1.4481354,0.6039429,0.10823059,-6.9854765,-5.850933,2.2642498
1570714998,-5.9956055,-12.896057,4.789795,-1.4481354,0.6039429,0.10823059,-6.9854765,-5.850933,2.2642498
1570714998,-5.9956055,-12.896057,4.789795,-1.4481354,0.6039429,0.10823059,-6.9854765,-5.850933,2.2642498
1570714998,-5.9956055,-12.896057,4.789795,-1.4481354,0.6039429,0.10823059,-6.9854765,-5.850933,2.2642498
1570714998,-5.9956055,-12.896057,4.789795,-1.4481354,0.6039429,0.10823059,-6.9854765,-5.850933,2.2642498
1570714998,-5.9956055,-12.896057,4.789795,-1.4481354,0.6039429,0.10823059,-6.9854765,-5.850933,2.2642498
1570714998,-5.9956055,-12.896057,4.789795,-1.4481354,0.6039429,0.10823059,-6.9854765,-5.850933,2.2642498
1570714998,-5.9956055,-12.896057,4.789795,-1.4481354,0.6039429,0.10823059,-6.9854765,-5.850933,2.2642498
1570714998,-2.6880188,-8.391373,-1.4411163,-1.4481354,0.6039429,0.10823059,-6.9854765,-5.850933,2.2642498
1570714998,-2.6880188,-8.391373,-1.4411163,-1.4481354,0.6039429,0.10823059,-6.9854765,-5.850933,2.2642498
1570714998,-4.401062,-16.38681,-0.23324585,-1.7506714,1.8428497,-0.043045044,-4.6208677,-6.7633514,-2.473117
1570714998,-2.0439758,-11.422424,2.8121796,-1.1775665,0.42710876,0.5322113,-3.1989117,-3.191825,2.5845926
1570714998,3.090393,-7.3103943,-3.03685,-1.5397491,1.2090149,0.63552856,2.5314243,1.5121679,-3.06352
1570714998,4.3341827,-6.210251,-2.3952026,-1.9498749,2.7696228,0.09118652,4.1433253,3.018217,-2.8091772
1570714998,2.2859344,-9.039001,-1.2112732,-1.5120544,1.1344452,-0.3839264,2.8760717,0.5077143,-0.39408445
1570714998,-3.451767,-10.141525,-0.8461609,-1.1637115,0.591156,-0.54797363,-3.1022558,-1.3437624,0.02820909
1570714998,-5.2138977,-8.269272,-1.0927582,-1.1392212,1.3144684,0.06668091,-5.902273,0.710989,-0.022941351
1570714998,0.67463684,-8.347076,1.9836426E-4,-1.2478638,1.8961029,0.30529785,-0.34712633,0.5275116,1.3538074
1570714998,2.8497772,-8.114838,0.33537292,-1.0987396,0.70513916,-0.18258667,2.6089897,0.7927265,2.2859678
1570714998,0.03300476,-8.165115,-2.064804,-1.0657043,0.26412964,-0.490448,-0.069787145,0.58139896,0.19587326
1570714998,-1.3783875,-8.773239,-0.70370483,-1.3107147,0.68170166,-0.3977661,-1.9488323,0.24400616,1.4780312
1570714999,-1.7159729,-8.284821,1.07518,-1.2329559,0.22044373,-0.30189514,-2.4676864,0.30188274,3.7361777
1570714999,0.07369995,-9.571716,1.8712616,-1.0092468,0.7083435,-0.09629822,-1.2013172,-1.1179028,4.536294
1570714999,-1.2179718,-10.69339,0.04208374,-0.32962036,1.0939636,-0.37965393,-1.4843738,-1.9620905,3.6137395
1570714999,-3.0399628,-13.2647705,-0.23564148,0.065597534,0.30566406,-0.09629822,-4.528657,-5.260764,2.7496998
1570714999,-2.0978394,-13.089996,1.580368,0.2275238,0.79463196,0.19345093,-3.1708808,-4.464526,4.356288
1570714999,-2.5060577,-13.811844,2.9857635,1.1329956,-0.43894958,0.0070343018,-3.4634557,-5.1189804,5.88037
1570714999,1.928009,-11.404465,5.24588,2.254715,-1.0887604,0.19238281,0.08244878,-3.218382,7.663209
1570714999,3.4471283,-7.353485,0.5125427,3.5873718,-0.32177734,0.04751587,2.8297026,1.3178186,3.2373025
1570714999,1.2420654,-12.2651825,-2.559204,3.574585,-0.46131897,0.019805908,0.65987474,-2.074502,-1.7656224
1570714999,1.5293732,-15.12027,-4.510483,3.0462036,0.79463196,0.19664001,0.9244727,-6.2766323,-4.4850616
1570714999,-1.4969025,-11.026184,-2.7052612,2.302658,0.2609253,0.592926,-2.2805562,-2.1133137,-3.9841595
1570714999,0.50704956,-9.274826,-1.1993103,2.2589722,-0.05758667,0.721817,0.0041471124,-0.2673664,-3.4027035
1570714999,-1.001297,-11.108795,1.3409424,2.302658,-1.1015472,0.76123047,-1.1611955,-2.1793604,-1.0108368
1570714999,-2.0870667,-10.316315,-0.20690918,2.1865387,-1.7481537,0.9455261,-2.466661,-1.6756439,-2.8966904
1570714999,0.5010681,-8.281235,-1.1849365,2.2110443,-1.7023621,0.9966583,0.30819356,0.19339657,-4.6397123
1570714999,1.6107788,-7.1535645,-2.0384674,1.8115692,-2.085846,0.8922577,1.5061618,1.1121092,-5.9084997
1570714999,1.5317688,-5.5195312,-3.1565704,1.3076935,-2.1295319,0.735672,1.3501968,2.5041132,-7.2900057
1570714999,1.6562653,-2.7745667,-4.6278076,0.36280823,-1.7875824,0.6792145,1.3146663,5.0786257,-8.99254
1570714999,2.3793182,-0.92744446,-4.1501617,-0.60658264,-1.2613373,0.6834717,1.908277,6.816245,-8.479996
1570714999,3.1717987,-0.26664734,-2.1055145,-1.8028717,-0.4719696,0.5023804,2.8892329,7.820532,-6.151887
1570714999,2.0010376,-3.3898773,3.0731506,-2.5027466,-0.0053863525,0.28186035,1.8394417,5.029133,-0.4249103
1570714999,0.95596313,-10.882538,13.153931,-2.2481537,0.6284485,0.39797974,0.6531812,-1.7763386,9.586343
1570714999,1.4635315,-34.871246,20.91713,1.2736053,-0.57850647,-0.70137024,1.8762673,-26.190113,19.183632
1570714999,-1.2371216,-6.751343,6.3137054,0.99664307,-1.5798492,0.2935791,-1.6557374,1.1337099,3.3751519
1570714999,-1.8679962,1.4595795,1.5396576,0.32125854,-1.0685272,0.5961151,-2.310934,9.85206,-1.5170696
1570714999,8.963364,-14.424759,-1.9008026,-1.3085938,-0.5561371,0.18386841,8.196642,-4.683571,-5.7777042
1570714999,1.3809357,-20.359985,5.050766,0.27012634,1.751236,-1.0742188,1.2884538,-12.191518,2.3158348
1570714999,-1.5794983,-3.1025848,-5.049179,-0.3445282,-0.38781738,-0.021728516,-3.0102112,4.1195316,-8.675814
1570714999,-1.9242554,-0.58506775,-7.752228,-2.0564117,-0.11404419,0.41716003,-2.3165245,8.387411,-10.246396
1570714999,-2.3432465,-8.872604,-7.804901,-2.3088684,3.3853455,-0.16235352,-2.547494,0.36442184,-9.842212
1570714999,-2.4976807,-19.46695,5.3033447,-2.094757,2.4543,-0.6342621,-2.5740192,-10.663297,3.5516982
1570714999,-0.6613159,-8.47995,2.4937592,-1.0816956,-0.7042084,0.2424469,-1.093546,0.350502,2.0490744
1570714999,3.3298187,-6.783661,-3.7515259,-1.4310913,0.6199188,0.2584381,3.017782,2.2545853,-4.283901
1570715000,2.7839355,-7.6719055,-1.7368011,-1.9637299,2.5065002,-0.26994324,2.5210934,1.3347292,-1.5382822
1570715000,0.7763977,-8.758881,1.0727997,-1.3959503,1.4742584,-0.12399292,0.64805496,0.35040092,1.4158182
1570715000,-3.1632538,-9.64473,-0.58639526,-1.0539856,0.54641724,-0.3370514,-3.6726642,-0.56742096,0.05659467
1570715000,-5.0714417,-8.294403,-2.6322327,-1.1168365,0.6891632,-0.09950256,-5.5010357,0.69805336,-1.762947
1570715000,-0.5799103,-8.456009,0.03491211,-1.4161835,1.1557465,0.35643005,-1.1847771,0.45574474,1.2324679
1570715000,2.6821747,-7.5366364,-0.70729065,-1.3000641,0.79782104,0.016616821,2.1483693,1.2604656,1.1942341
1570715000,1.8753357,-7.722183,-1.5692139,-1.2904816,0.048934937,-0.361557,1.6767473,1.1870756,0.44525528
1570715000,-0.8205414,-9.426865,-0.090789795,-1.3863525,-0.018173218,-0.5096283,-1.2654632,-0.65334797,2.1562169
1570715000,-2.4066925,-9.778809,1.5384674,-1.2382812,0.12670898,-0.361557,-3.0515409,-1.0263805,4.229393
1570715000,0.7692108,-10.085266,3.0743408,-0.73228455,0.64656067,-0.05581665,-0.5932677,-1.5870571,5.7248096
1570715000,-1.9637604,-12.338211,-1.3010559,-0.06436157,0.5879669,-0.2944336,-2.644766,-3.618207,1.7763209
1570715000,-1.056366,-11.015411,0.6609955,0.05708313,1.0375061,0.14231873,-2.4559112,-3.0645523,3.0218165
1570715000,2.8545685,-9.205399,4.822113,0.0357666,1.3506927,0.10397339,1.821466,-0.5612726,7.4314013
1570715000,-1.7662506,-12.673401,4.5946655,1.1020966,-0.3111267,-0.80044556,-2.5731692,-3.8279037,7.175116
1570715000,-5.73703,-13.729248,4.2139893,2.4624481,-0.01071167,-0.4712677,-7.114472,-5.0933313,6.3842697
1570715000,-0.7080078,-12.505798,0.27911377,3.6193237,-0.90553284,0.20835876,-3.0851252,-3.8903618,2.4074483
1570715000,-0.7080078,-12.505798,0.27911377,3.6193237,-0.90553284,0.20835876,-3.0851252,-3.8903618,2.4074483
1570715003,-0.7080078,-12.505798,0.27911377,3.6193237,-0.90553284,0.20835876,-3.0851252,-3.8903618,2.4074483
1570715003,-0.7080078,-12.505798,0.27911377,3.6193237,-0.90553284,0.20835876,-3.0851252,-3.8903618,2.4074483
1570715003,-0.7080078,-12.505798,0.27911377,3.6193237,-0.90553284,0.20835876,-3.0851252,-3.8903618,2.4074483
1570715003,-0.7080078,-12.505798,0.27911377,3.6193237,-0.90553284,0.20835876,-3.0851252,-3.8903618,2.4074483
1570715003,-0.7080078,-12.505798,0.27911377,3.6193237,-0.90553284,0.20835876,-3.0851252,-3.8903618,2.4074483
1570715003,-0.7080078,-12.505798,0.27911377,3.6193237,-0.90553284,0.20835876,-3.0851252,-3.8903618,2.4074483
1570715003,-0.7080078,-12.505798,0.27911377,3.6193237,-0.90553284,0.20835876,-3.0851252,-3.8903618,2.4074483
1570715003,-0.7080078,-12.505798,0.27911377,3.6193237,-0.90553284,0.20835876,-3.0851252,-3.8903618,2.4074483
1570715003,-0.7080078,-12.505798,0.27911377,3.6193237,-0.90553284,0.20835876,-3.0851252,-3.8903618,2.4074483
1570715003,-0.7080078,-12.505798,0.27911377,3.6193237,-0.90553284,0.20835876,-3.0851252,-3.8903618,2.4074483
1570715003,-0.7080078,-12.505798,0.27911377,3.6193237,-0.90553284,0.20835876,-3.0851252,-3.8903618,2.4074483
1570715003,-0.7080078,-12.505798,0.27911377,3.6193237,-0.90553284,0.20835876,-3.0851252,-3.8903618,2.4074483
1570715003,-0.7080078,-12.505798,0.27911377,3.6193237,-0.90553284,0.20835876,-3.0851252,-3.8903618,2.4074483
1570715003,-0.7080078,-12.505798,0.27911377,3.6193237,-0.90553284,0.20835876,-3.0851252,-3.8903618,2.4074483
1570715003,-0.7080078,-12.505798,0.27911377,3.6193237,-0.90553284,0.20835876,-3.0851252,-3.8903618,2.4074483
1570715003,-0.7080078,-12.505798,0.27911377,3.6193237,-0.90553284,0.20835876,-3.0851252,-3.8903618,2.4074483
1570715003,-0.7080078,-12.505798,0.27911377,3.6193237,-0.90553284,0.20835876,-3.0851252,-3.8903618,2.4074483
1570715003,-0.7080078,-12.505798,0.27911377,3.6193237,-0.90553284,0.20835876,-3.0851252,-3.8903618,2.4074483
1570715003,-0.7080078,-12.505798,0.27911377,3.6193237,-0.90553284,0.20835876,-3.0851252,-3.8903618,2.4074483
1570715003,-0.7080078,-12.505798,0.27911377,3.6193237,-0.90553284,0.20835876,-3.0851252,-3.8903618,2.4074483
1570715003,-0.7080078,-12.505798,0.27911377,3.6193237,-0.90553284,0.20835876,-3.0851252,-3.8903618,2.4074483
1570715003,-0.7080078,-12.505798,0.27911377,3.6193237,-0.90553284,0.20835876,-3.0851252,-3.8903618,2.4074483
1570715003,-0.7080078,-12.505798,0.27911377,3.6193237,-0.90553284,0.20835876,-3.0851252,-3.8903618,2.4074483
1570715003,-0.7080078,-12.505798,0.27911377,3.6193237,-0.90553284,0.20835876,-3.0851252,-3.8903618,2.4074483
1570715003,-0.7080078,-12.505798,0.27911377,3.6193237,-0.90553284,0.20835876,-3.0851252,-3.8903618,2.4074483
1570715003,-0.7080078,-12.505798,0.27911377,3.6193237,-0.90553284,0.20835876,-3.0851252,-3.8903618,2.4074483
1570715003,-0.7080078,-12.505798,0.27911377,3.6193237,-0.90553284,0.20835876,-3.0851252,-3.8903618,2.4074483
1570715003,-0.7080078,-12.505798,0.27911377,3.6193237,-0.90553284,0.20835876,-3.0851252,-3.8903618,2.4074483
1570715003,-0.7080078,-12.505798,0.27911377,3.6193237,-0.90553284,0.20835876,-3.0851252,-3.8903618,2.4074483
1570715003,-0.7080078,-12.505798,0.27911377,3.6193237,-0.90553284,0.20835876,-3.0851252,-3.8903618,2.4074483
1570715003,-0.7080078,-12.505798,0.27911377,3.6193237,-0.90553284,0.20835876,-3.0851252,-3.8903618,2.4074483
1570715003,-0.7080078,-12.505798,0.27911377,3.6193237,-0.90553284,0.20835876,-3.0851252,-3.8903618,2.4074483
1570715003,-0.7080078,-12.505798,0.27911377,3.6193237,-0.90553284,0.20835876,-3.0851252,-3.8903618,2.4074483
1570715003,-0.7080078,-12.505798,0.27911377,3.6193237,-0.90553284,0.20835876,-3.0851252,-3.8903618,2.4074483
1570715003,-0.7080078,-12.505798,0.27911377,3.6193237,-0.90553284,0.20835876,-3.0851252,-3.8903618,2.4074483
1570715003,-0.7080078,-12.505798,0.27911377,3.6193237,-0.90553284,0.20835876,-3.0851252,-3.8903618,2.4074483
1570715003,-0.7080078,-12.505798,0.27911377,3.6193237,-0.90553284,0.20835876,-3.0851252,-3.8903618,2.4074483
1570715003,-0.7080078,-12.505798,0.27911377,3.6193237,-0.90553284,0.20835876,-3.0851252,-3.8903618,2.4074483
1570715003,-0.7080078,-12.505798,0.27911377,3.6193237,-0.90553284,0.20835876,-3.0851252,-3.8903618,2.4074483
1570715003,-0.7080078,-12.505798,0.27911377,3.6193237,-0.90553284,0.20835876,-3.0851252,-3.8903618,2.4074483
1570715003,-0.7080078,-12.505798,0.27911377,3.6193237,-0.90553284,0.20835876,-3.0851252,-3.8903618,2.4074483
1570715003,-0.7080078,-12.505798,0.27911377,3.6193237,-0.90553284,0.20835876,-3.0851252,-3.8903618,2.4074483
1570715003,-0.7080078,-12.505798,0.27911377,3.6193237,-0.90553284,0.20835876,-3.0851252,-3.8903618,2.4074483
1570715003,-0.7080078,-12.505798,0.27911377,3.6193237,-0.90553284,0.20835876,-3.0851252,-3.8903618,2.4074483
1570715003,-0.7080078,-12.505798,0.27911377,3.6193237,-0.90553284,0.20835876,-3.0851252,-3.8903618,2.4074483
1570715003,-0.7080078,-12.505798,0.27911377,3.6193237,-0.90553284,0.20835876,-3.0851252,-3.8903618,2.4074483
1570715003,-0.7080078,-12.505798,0.27911377,3.6193237,-0.90553284,0.20835876,-3.0851252,-3.8903618,2.4074483
1570715003,-0.7080078,-12.505798,0.27911377,3.6193237,-0.90553284,0.20835876,-3.0851252,-3.8903618,2.4074483
1570715003,-0.7080078,-12.505798,0.27911377,3.6193237,-0.90553284,0.20835876,-3.0851252,-3.8903618,2.4074483
1570715003,-0.7080078,-12.505798,0.27911377,3.6193237,-0.90553284,0.20835876,-3.0851252,-3.8903618,2.4074483
1570715003,-0.7080078,-12.505798,0.27911377,3.6193237,-0.90553284,0.20835876,-3.0851252,-3.8903618,2.4074483
1570715003,-0.7080078,-12.505798,0.27911377,3.6193237,-0.90553284,0.20835876,-3.0851252,-3.8903618,2.4074483
1570715003,-0.7080078,-12.505798,0.27911377,3.6193237,-0.90553284,0.20835876,-3.0851252,-3.8903618,2.4074483
1570715003,-0.7080078,-12.505798,0.27911377,3.6193237,-0.90553284,0.20835876,-3.0851252,-3.8903618,2.4074483
1570715003,-0.7080078,-12.505798,0.27911377,3.6193237,-0.90553284,0.20835876,-3.0851252,-3.8903618,2.4074483
1570715003,-0.7080078,-12.505798,0.27911377,3.6193237,-0.90553284,0.20835876,-3.0851252,-3.8903618,2.4074483
1570715003,-0.7080078,-12.505798,0.27911377,3.6193237,-0.90553284,0.20835876,-3.0851252,-3.8903618,2.4074483
1570715003,-0.7080078,-12.505798,0.27911377,3.6193237,-0.90553284,0.20835876,-3.0851252,-3.8903618,2.4074483
1570715003,-0.7080078,-12.505798,0.27911377,3.6193237,-0.90553284,0.20835876,-3.0851252,-3.8903618,2.4074483
1570715003,-0.7080078,-12.505798,0.27911377,3.6193237,-0.90553284,0.20835876,-3.0851252,-3.8903618,2.4074483
1570715003,-0.7080078,-12.505798,0.27911377,3.6193237,-0.90553284,0.20835876,-3.0851252,-3.8903618,2.4074483
1570715003,-0.7080078,-12.505798,0.27911377,3.6193237,-0.90553284,0.20835876,-3.0851252,-3.8903618,2.4074483
1570715003,-0.7080078,-12.505798,0.27911377,3.6193237,-0.90553284,0.20835876,-3.0851252,-3.8903618,2.4074483
1570715003,-0.7080078,-12.505798,0.27911377,3.6193237,-0.90553284,0.20835876,-3.0851252,-3.8903618,2.4074483
1570715003,-0.7080078,-12.505798,0.27911377,3.6193237,-0.90553284,0.20835876,-3.0851252,-3.8903618,2.4074483
1570715003,-0.7080078,-12.505798,0.27911377,3.6193237,-0.90553284,0.20835876,-3.0851252,-3.8903618,2.4074483
1570715003,-0.7080078,-12.505798,0.27911377,3.6193237,-0.90553284,0.20835876,-3.0851252,-3.8903618,2.4074483
1570715003,-0.7080078,-12.505798,0.27911377,3.6193237,-0.90553284,0.20835876,-3.0851252,-3.8903618,2.4074483
1570715003,-0.7080078,-12.505798,0.27911377,3.6193237,-0.90553284,0.20835876,-3.0851252,-3.8903618,2.4074483
1570715003,-0.7080078,-12.505798,0.27911377,3.6193237,-0.90553284,0.20835876,-3.0851252,-3.8903618,2.4074483
1570715003,-0.7080078,-12.505798,0.27911377,3.6193237,-0.90553284,0.20835876,-3.0851252,-3.8903618,2.4074483
1570715003,-0.7080078,-12.505798,0.27911377,3.6193237,-0.90553284,0.20835876,-3.0851252,-3.8903618,2.4074483
1570715003,-0.7080078,-12.505798,0.27911377,3.6193237,-0.90553284,0.20835876,-3.0851252,-3.8903618,2.4074483
1570715003,-0.7080078,-12.505798,0.27911377,3.6193237,-0.90553284,0.20835876,-3.0851252,-3.8903618,2.4074483
1570715003,-0.7080078,-12.505798,0.27911377,3.6193237,-0.90553284,0.20835876,-3.0851252,-3.8903618,2.4074483
1570715003,-0.7080078,-12.505798,0.27911377,3.6193237,-0.90553284,0.20835876,-3.0851252,-3.8903618,2.4074483
1570715003,-0.7080078,-12.505798,0.27911377,3.6193237,-0.90553284,0.20835876,-3.0851252,-3.8903618,2.4074483
1570715003,-0.7080078,-12.505798,0.27911377,3.6193237,-0.90553284,0.20835876,-3.0851252,-3.8903618,2.4074483
1570715003,-0.7080078,-12.505798,0.27911377,3.6193237,-0.90553284,0.20835876,-3.0851252,-3.8903618,2.4074483
1570715003,-0.7080078,-12.505798,0.27911377,3.6193237,-0.90553284,0.20835876,-3.0851252,-3.8903618,2.4074483
1570715003,-0.7080078,-12.505798,0.27911377,3.6193237,-0.90553284,0.20835876,-3.0851252,-3.8903618,2.4074483
1570715003,-0.7080078,-12.505798,0.27911377,3.6193237,-0.90553284,0.20835876,-3.0851252,-3.8903618,2.4074483
1570715003,-0.7080078,-12.505798,0.27911377,3.6193237,-0.90553284,0.20835876,-3.0851252,-3.8903618,2.4074483
1570715003,-0.7080078,-12.505798,0.27911377,3.6193237,-0.90553284,0.20835876,-3.0851252,-3.8903618,2.4074483
1570715003,1.512619,-10.941193,-2.6813202,3.6193237,-0.90553284,0.20835876,-3.0851252,-3.8903618,2.4074483
1570715003,4.4048157,-15.471024,-4.776245,3.6193237,-0.90553284,0.20835876,-3.0851252,-3.8903618,2.4074483
1570715003,-0.78222656,-11.001053,-0.6318817,3.6193237,-0.90553284,0.20835876,-3.0851252,-3.8903618,2.4074483
1570715003,-0.78222656,-11.001053,-0.6318817,3.6193237,-0.90553284,0.20835876,-3.0851252,-3.8903618,2.4074483
1570715003,-0.78222656,-11.001053,-0.6318817,3.6193237,-0.90553284,0.20835876,-3.0851252,-3.8903618,2.4074483
1570715003,-0.78222656,-11.001053,-0.6318817,3.6193237,-0.90553284,0.20835876,-3.0851252,-3.8903618,2.4074483
1570715003,-0.78222656,-11.001053,-0.6318817,3.6193237,-0.90553284,0.20835876,-3.0851252,-3.8903618,2.4074483
1570715003,0.89012146,-7.179901,-2.9554443,3.6193237,-0.90553284,0.20835876,-3.0851252,-3.8903618,2.4074483
1570715003,2.0920105,-3.5862122,-3.143402,-1.1828918,0.7690582,0.2339325,-3.0851252,-3.8903618,2.4074483
1570715003,1.018219,-1.7450714,0.7220459,-2.585846,0.8596039,0.6280823,-3.0851252,-3.8903618,2.4074483
1570715003,2.979065,-7.993927,10.567001,-2.9608154,1.512619,0.6877289,-3.0851252,-3.8903618,2.4074483
1570715003,5.98378,-29.560898,20.742355,-0.48727417,-1.099411,-0.1974945,-3.0851252,-3.8903618,2.4074483
1570715003,-0.9318695,-14.691711,10.762131,0.44802856,-1.017395,-0.3658142,-2.0684984,-9.268402,8.510412
1570715003,1.4874725,-1.7690125,4.4138947,0.7420502,-1.9058228,0.43206787,1.0681027,5.3708925,2.1774938
1570715003,9.014847,-5.921753,-3.9562225,-0.61083984,1.6585541,0.55670166,6.768514,4.171508,-7.873522
1570715003,4.4012146,-19.654892,9.209488,-1.2297668,-1.1196594,-0.5905762,5.64687,-9.586468,7.079585
1570715003,-9.160736,-7.902954,-10.103348,0.5534973,2.0846558,-0.33918762,-9.898705,-2.7657204,-12.120651
1570715003,2.7791443,-0.5072632,-5.6585083,-1.0784912,-0.5923462,0.29997253,1.4191679,8.101852,-8.074859
1570715003,0.28797913,-6.478409,-7.5439453,-2.4558868,1.6404419,-0.2401123,-0.03390616,3.3420696,-10.026723
1570715003,-2.5682983,-16.859665,-0.5780029,-2.5655975,3.104126,-0.54904175,-2.5442863,-7.071228,-3.8554244
1570715003,-2.6772308,-11.822266,4.917877,-1.3469391,0.18423462,0.20835876,-3.9660382,-4.3861113,4.4148455
1570715003,2.5505066,-6.7896423,-2.1282501,-1.2254944,0.03616333,0.33512878,0.89696956,1.2395201,-1.6884897
1570715003,3.466278,-6.827957,-2.300644,-2.1522827,1.8694763,-0.10908508,3.2168648,2.1957245,-2.9312618
1570715003,0.15270996,-8.371017,1.8018341,-1.6388245,2.0058289,-0.003616333,-0.16598761,0.63858604,1.789166
1570715003,-2.5718994,-9.266449,0.73161316,-1.2382812,0.31419373,-0.220932,-2.676504,-0.4439354,1.411734
1570715003,-4.270584,-8.299194,-0.17578125,-1.104065,1.0801086,-0.07925415,-4.6287775,0.41914463,1.116833
1570715003,-2.5024567,-8.392563,-0.40802002,-1.1605225,1.1557465,0.35110474,-3.365571,0.3801403,0.405051
1570715003,1.5257874,-8.111252,0.62628174,-1.1924744,0.6369629,0.22434998,0.82294685,0.59998703,1.8791318
1570715003,2.0944061,-8.009491,-1.3561249,-1.0529327,-0.07356262,-0.16873169,1.7809592,0.6724205,0.51843894
1570715003,0.45796204,-8.044205,-2.281479,-1.265976,-0.13215637,-0.41908264,0.27527618,0.5002508,-0.5005261
1570715003,-1.0910797,-9.185043,-0.9167938,-1.4982147,-0.089538574,-0.48512268,-1.5798731,-0.3314314,1.2828598
1570715003,-1.8751831,-9.292786,-0.37091064,-1.2617188,-0.021362305,-0.40629578,-2.5637016,-0.86539936,2.1303556
1570715004,1.0158234,-10.204971,1.8413391,-0.96876526,0.52830505,-0.11759949,-0.23689067,-1.8637524,4.4525332
1570715004,-1.3580322,-12.026962,-0.23443604,-0.2230835,0.9171295,-0.32852173,-1.7169652,-3.3201647,3.0394826
1570715004,-1.3747864,-11.769592,0.56163025,0.09222412,0.9437561,0.03791809,-2.7784066,-3.68357,3.175722
1570715004,0.19819641,-12.232864,3.6417694,0.3010254,0.8926239,0.053894043,-0.88828063,-3.4459572,6.1729527
1570715004,-3.3356476,-13.374893,3.228775,1.408905,-0.6296387,-0.490448,-3.7963295,-5.109954,5.6383204
1570715004,-0.84687805,-13.219284,4.4689636,2.5988007,-0.5454712,-0.12931824,-3.3437483,-4.9393635,6.436105
1570715004,6.4398804,-9.353836,-0.6067352,3.8323822,-0.36863708,-0.066467285,4.9285765,-1.0905762,1.8240663
1570715004,3.718872,-11.451157,-2.8261566,3.3913574,-0.8352356,-0.030258179,3.2128572,-1.6819592,-2.9343228
1570715004,0.25445557,-13.231247,-4.8803864,3.016388,1.2505646,0.1593628,-0.7294271,-4.4580507,-5.2219367
1570715004,-2.4438019,-11.277573,-3.1984558,2.3537903,1.1717224,0.8049164,-3.7564116,-2.719637,-4.5102434
1570715004,0.9344177,-10.121185,0.17855835,2.1961365,-0.40379333,0.87841797,0.05806905,-1.3619843,-2.6535342
1570715004,-0.6661072,-9.977524,0.79267883,2.2014618,-1.3699951,0.8113098,-0.859086,-1.3888435,-1.9806366
1570715004,-0.80018616,-9.13118,-1.8014526,2.3388672,-2.243515,0.8517914,-1.5363927,-0.8428526,-4.6730614
1570715004,1.3869171,-7.3702393,-2.0528412,1.9979858,-1.927124,0.95510864,0.545455,0.7276983,-5.543482
1570715004,2.1398926,-6.6483917,-2.2647247,1.471756,-1.7875824,0.8198242,1.6837665,1.342001,-6.0485315
1570715004,2.2608032,-5.344742,-2.9602356,0.8826599,-1.6501617,0.8006592,1.7381538,2.293604,-6.90512
1570715004,2.1877747,-2.4633331,-3.4342957,-0.030273438,-1.3508148,0.74632263,1.6976192,4.8616824,-7.525044
1570715004,2.493042,-1.1046143,-3.1326294,-0.9975281,-0.6456146,0.606781,1.8822057,6.573756,-7.1923113
1570715004,1.959137,-1.0591278,-1.3740845,-2.0180511,0.27157593,0.32980347,1.7328343,7.0803833,-5.284811
1570715004,0.5693054,-4.735428,4.6174164,-2.781845,0.49102783,0.3607025,0.41782486,4.2564087,0.46604872
1570715004,0.59085083,-22.93135,24.77539,-0.9463959,1.2494965,0.4065094,-1.1093471,-9.850102,19.611578
1570715004,-2.1816406,-18.101059,12.173508,0.6014252,-1.4658661,0.085861206,-3.5127504,-15.931001,12.218992
1570715004,-0.21121216,-4.0865936,7.138504,1.1031647,-1.8674774,0.48213196,-0.16737078,3.1340656,4.9847
1570715004,-0.9653778,1.9815063,0.074417114,0.091171265,-1.9377747,0.7452545,-1.5762935,10.22236,-2.4074833
1570715004,10.501648,-16.554398,-7.274597,-1.6782379,-0.3377533,-0.1889801,6.9592505,-1.353529,-9.12727
1570715004,6.4638214,-26.505905,11.2912445,0.1103363,1.069458,-1.3937988,7.1271157,-18.814852,7.417259
1570715004,-2.012848,-1.0244141,-7.5439453,-0.22840881,-1.9335175,-0.3178711,-2.6160622,4.7643785,-9.156052
1570715004,-3.4230347,-0.99328613,-8.720688,-2.3237915,-0.009643555,0.40437317,-4.028475,9.663493,-12.176007
1570715004,-3.0662994,-11.01062,-6.9884796,-2.203415,3.0178375,0.050704956,-4.438831,0.14594269,-9.599654
1570715004,-2.8125153,-18.017258,5.2267303,-1.8263092,2.723816,-0.3604889,-3.1548486,-9.318483,2.185937
1570715004,0.5800781,-8.502701,1.719223,-1.0720978,-0.5635834,0.5492554,-0.9959683,-0.68965626,3.281201
1570715004,4.08638,-6.321579,-4.393173,-1.3043365,0.8510895,0.34365845,3.241975,2.4228344,-4.233151
1570715004,3.6853485,-7.680298,-1.2711334,-1.6569366,2.2380524,0.12846375,3.7158995,1.915142,-2.4905279
1570715004,0.9523773,-8.493118,0.47903442,-1.280899,1.0790558,-0.16235352,1.5052338,0.39701462,1.189708
1570715005,-3.7857513,-9.19223,-0.25,-1.0827484,1.0215302,-0.17832947,-3.6035275,-0.25575066,0.014143825
1570715005,-4.717102,-8.338699,-2.1893005,-0.88887024,0.61247253,0.03152466,-5.311896,0.14617825,-1.3207304
1570715005,0.72132874,-8.542206,-0.4882202,-1.3970032,1.3773193,0.44485474,-0.93808734,0.15749836,-0.025820136
1570715005,3.4148102,-7.8766174,-0.43675232,-1.21698,0.63056946,-0.016403198,2.8701782,0.8039341,1.3942267
1570715005,1.0840454,-7.8885803,-1.9594574,-1.1764984,-0.15238953,-0.40841675,1.3174928,0.7324343,-0.050952435
1570715005,-1.6680756,-9.590866,-0.6905365,-1.5109863,0.11924744,-0.39883423,-1.823136,-0.6229973,1.3234363
1570715005,-2.1576996,-9.364609,1.3457336,-1.3980713,0.47077942,-0.24118042,-2.9634056,-0.8564882,3.3559153
1570715005,-1.7830048,-9.742889,2.0927277,-1.2862244,0.43669128,-0.18365479,-2.7127373,-1.0526772,4.251032
1570715005,-1.7830048,-9.742889,2.0927277,-1.2862244,0.43669128,-0.18365479,-2.7127373,-1.0526772,4.251032
1570715005,-1.7830048,-9.742889,2.0927277,-1.2862244,0.43669128,-0.18365479,-2.7127373,-1.0526772,4.251032
1570715005,-1.7830048,-9.742889,2.0927277,-1.2862244,0.43669128,-0.18365479,-2.7127373,-1.0526772,4.251032
1570715005,-1.7830048,-9.742889,2.0927277,-1.2862244,0.43669128,-0.18365479,-2.7127373,-1.0526772,4.251032
1570715005,-1.7830048,-9.742889,2.0927277,-1.2862244,0.43669128,-0.18365479,-2.7127373,-1.0526772,4.251032
1570715005,-1.7830048,-9.742889,2.0927277,-1.2862244,0.43669128,-0.18365479,-2.7127373,-1.0526772,4.251032
1570715005,-1.7830048,-9.742889,2.0927277,-1.2862244,0.43669128,-0.18365479,-2.7127373,-1.0526772,4.251032
1570715005,-1.7830048,-9.742889,2.0927277,-1.2862244,0.43669128,-0.18365479,-2.7127373,-1.0526772,4.251032
1570715005,-1.7830048,-9.742889,2.0927277,-1.2862244,0.43669128,-0.18365479,-2.7127373,-1.0526772,4.251032
1570715005,-1.7830048,-9.742889,2.0927277,-1.2862244,0.43669128,-0.18365479,-2.7127373,-1.0526772,4.251032
1570715005,-0.49372864,-9.751282,3.0647736,-1.2862244,0.43669128,-0.18365479,-4.1023474,-2.2806559,-4.4204435
1570715005,0.1946106,-8.848663,-2.392807,2.492279,-2.245636,0.7729492,-0.7136704,-0.90330124,-5.354769
1570715005,2.2619934,-6.985977,-2.5484314,2.2429962,-2.2882538,0.62701416,1.5282722,0.96595955,-6.186269
1570715005,2.1746063,-6.1013184,-2.605896,1.6762848,-2.0315247,0.6642914,1.753988,1.6065359,-6.422058
1570715005,1.9627228,-4.0542755,-3.2858582,0.7377777,-1.6991577,0.72821045,1.3475533,3.4401383,-7.6600738
1570715005,1.6718292,-1.9785004,-3.6617432,-0.20710754,-1.3092651,0.7537842,1.0339613,5.2476416,-8.056011
1570715005,2.1039886,-0.53359985,-3.2906342,-1.3330994,-0.45385742,0.6429901,1.406632,7.0902224,-7.6192727
1570715005,1.8956909,-1.4086761,-0.68574524,-2.3056793,0.7221832,0.29252625,1.5056766,6.9799523,-5.1295643
1570715005,2.3446045,-8.009491,8.17041,-2.7573547,1.0790558,0.16149902,1.8186877,2.2438154,2.44326
1570715005,2.1937714,-29.970306,20.117477,0.21899414,-1.7023621,-0.537323,5.012821,-17.31277,23.39489
1570715005,-0.704422,-11.703751,9.685928,0.6642761,-1.5201874,0.03152466,-2.8282437,-8.805306,7.9752893
1570715005,1.212143,-0.9334259,3.3796082,0.7068939,-0.9939575,0.53326416,0.90052485,6.230032,1.2511158
1570715005,5.9191437,-1.5367737,-3.186493,-0.71203613,0.008453369,0.6951904,3.6237297,8.2980585,-5.426293
1570715005,6.9809723,-19.511246,4.3696136,-1.7496033,-0.92578125,-0.6619568,9.665883,-7.9850683,-0.4303627
1570715005,-4.8451843,-17.84488,1.6210632,0.45655823,1.1387024,-0.33491516,-3.6883888,-12.618214,0.99573946
1570715006,1.2157288,-0.30615234,-6.587448,-0.74612427,-0.55400085,0.52049255,-0.6193674,5.3089933,-8.68631
1570715006,1.4000854,-1.0016632,-7.8252563,-2.300354,0.86813354,0.2584381,1.5619266,8.142416,-9.687744
1570715006,-1.6285706,-10.94957,-5.602234,-2.559204,2.7259521,-0.33491516,-1.9226495,0.9103613,-8.574509
1570715006,-6.9796143,-17.13739,4.6616974,-1.8454895,1.625534,-0.63105774,-5.987367,-9.4168215,2.251597
1570715006,-1.3484497,-8.760071,-0.5492859,-1.1498718,0.042541504,0.61743164,-2.6900535,-0.3121605,0.124682724
1570715006,2.7731628,-6.575363,-3.2714844,-1.7709198,1.5051575,0.15403748,2.3982792,2.4818745,-3.5569282
1570715006,2.758789,-7.875412,0.54008484,-1.5781097,1.6457672,0.33833313,2.4201422,1.5639343,0.7105118
1570715006,1.0924377,-9.673462,0.6502228,-1.1914062,1.0385742,0.018753052,1.2324073,-0.6959934,1.4605926
1570715006,-2.2833862,-9.090469,-0.6821594,-0.88887024,0.940567,-0.12612915,-2.1732302,-0.41732216,0.73433816
1570715006,-3.3547974,-8.55896,-1.6841278,-0.91763306,0.8340454,0.107162476,-3.8486784,0.29343796,-0.57104135
1570715006,-0.10107422,-8.52066,-0.10635376,-1.1136475,1.3869171,0.29678345,-1.0598195,0.16166401,0.9718319
1570715006,2.1782074,-7.9089355,-0.7815094,-0.9858093,0.44947815,-0.12612915,1.9536009,0.7497616,1.1251712
1570715006,0.089263916,-7.958023,-1.585968,-1.1093903,0.1831665,-0.32107544,-0.101688564,0.69797134,0.37406301
1570715006,-0.5428009,-9.578888,-0.9479065,-1.2840881,0.5368347,-0.34877014,-0.93126315,-0.2633028,0.9904089
1570715006,-1.5782928,-9.495102,0.89323425,-1.1328278,0.11073303,-0.33491516,-2.1288495,-1.0364513,3.4134204
1570715006,0.75245667,-9.419678,2.2986298,-0.7663727,0.511261,-0.0717926,-0.37274605,-1.0249634,5.009152
1570715006,-2.2726135,-11.30751,-0.91918945,-0.23905945,0.4878235,-0.23797607,-2.6563916,-2.4446917,2.3399503
1570715006,-1.8620148,-11.645096,-0.14704895,0.06666565,0.89157104,0.097579956,-3.1603725,-3.6585617,2.3619094
1570715006,1.959137,-10.43721,2.9977264,-0.043060303,1.3453674,0.17640686,0.93740666,-1.6317158,5.557723
1570715006,-2.1924133,-13.669388,3.8069763,1.0509644,-0.30578613,-0.490448,-2.4045,-5.1702166,6.278906
1570715006,-2.5958405,-11.77916,5.236313,2.0576477,-0.6306915,-0.2944336,-4.20497,-3.2824955,7.3000126
1570715006,2.9455414,-9.059357,1.4893799,3.4797668,-0.2685089,-0.028121948,0.5273391,-1.6291084,4.823901
1570715006,3.2855225,-11.02858,-3.0392456,3.5085297,-0.61364746,0.11462402,2.3511846,-1.2632036,-2.8089242
1570715006,2.074051,-15.945068,-4.4230957,2.9844208,1.2004852,0.41183472,0.889593,-6.744858,-4.902556
1570715006,-1.7458954,-12.884094,-3.4031677,2.2323456,0.7850342,0.6142273,-1.4268672,-4.742133,-4.168323
1570715006,-0.6900482,-10.635941,-0.3086548,2.2323456,0.17356873,0.9263458,-1.326839,-1.7776661,-2.3113875
1570715006,0.3538208,-10.759232,1.2595367,2.3335419,-1.5074158,0.9380646,0.1900008,-2.065175,-0.73977447
1570715006,-0.7056122,-9.5729065,-1.6075134,2.5508575,-2.4139557,0.65257263,-1.1099142,-1.2679615,-4.003996
1570715006,0.91166687,-7.3151703,-1.5763855,2.3995972,-2.308487,0.592926,0.48373532,0.8388939,-4.9199915
1570715006,1.5748596,-6.2916565,-2.4311218,2.0672302,-2.3361816,0.49812317,1.1034597,1.674489,-6.3136435
1570715006,2.4595184,-5.005966,-3.443863,1.364151,-1.9771881,0.55670166,1.6910896,2.6301055,-7.538185
1570715006,2.1997528,-2.514801,-4.1058655,0.325531,-1.7194061,0.4885254,1.5000303,4.9179826,-8.294156
1570715006,2.097992,-0.48571777,-3.4809723,-0.85691833,-0.7201843,0.43952942,1.3128086,7.1322937,-7.9200225
1570715007,1.5030365,-0.99328613,-1.4698486,-1.8806458,0.09048462,0.3330078,0.87647796,7.0452747,-5.564538
1570715007,0.9643402,-4.0159607,4.0068817,-2.6731873,0.6092682,0.37028503,0.26171404,4.7185383,-0.25481963
1570715007,3.7356262,-15.825363,18.862915,-2.060669,1.5584259,0.20516968,1.7292255,-2.164832,8.873224
1570715007,-2.87117,-27.942413,15.584045,0.39582825,-1.7684021,-0.67581177,-1.499675,-21.934534,14.43994
1570715007,0.16706848,-4.3236237,6.5794525,0.8208771,-1.4445648,0.30636597,-1.0757697,1.4789534,4.854019
1570715007,0.38734436,2.4555664,0.17497253,0.089035034,-0.8426819,0.7143707,-0.7898443,10.545452,-1.9886808
1570715007,12.68515,-15.356094,-1.8026428,-1.8316345,-0.13961792,0.018753052,11.466772,-3.6121016,-7.077267
1570715007,-5.246216,-23.549057,6.635727,-0.13146973,0.7818451,-0.8100281,-3.325624,-16.730251,4.0406437
1570715007,-1.401123,0.14634705,-6.4928894,0.51727295,1.0140686,0.55137634,-5.396429,5.287366,-8.760063
1570715007,3.9726562,2.8877106,-6.8963013,-1.8731842,-0.8671875,0.64086914,3.2444491,12.028845,-9.252835
1570715007,0.69140625,-8.417709,-6.5168304,-2.3386993,2.2700195,-0.60549927,0.68261385,1.9729528,-8.124799
1570715007,-4.3112793,-18.134567,2.9295044,-1.9626617,2.3307343,-0.82388306,-3.1660054,-9.799859,-1.1393237
1570715007,-3.2398834,-9.757263,2.339325,-0.9059143,-0.31324768,0.5322113,-5.7465243,-1.7206755,3.7284842
1570715007,2.7635803,-6.891403,-3.3672485,-1.2915497,0.2619934,0.5343323,1.3376771,1.6806879,-3.4716225
1570715007,3.0532837,-6.7776794,-3.5456238,-1.3618469,0.37916565,0.49491882,2.1075969,1.9403801,-3.7880528
1570715007,3.0532837,-6.7776794,-3.5456238,-1.3618469,0.37916565,0.49491882,2.1075969,1.9403801,-3.7880528
1570715007,3.0532837,-6.7776794,-3.5456238,-1.3618469,0.37916565,0.49491882,2.1075969,1.9403801,-3.7880528
1570715007,3.0532837,-6.7776794,-3.5456238,-1.3618469,0.37916565,0.49491882,2.1075969,1.9403801,-3.7880528
1570715007,3.0532837,-6.7776794,-3.5456238,-1.3618469,0.37916565,0.49491882,2.1075969,1.9403801,-3.7880528
1570715007,3.0532837,-6.7776794,-3.5456238,-1.3618469,0.37916565,0.49491882,2.1075969,1.9403801,-3.7880528
1570715007,3.0532837,-6.7776794,-3.5456238,-1.3618469,0.37916565,0.49491882,2.1075969,1.9403801,-3.7880528
1570715007,3.0532837,-6.7776794,-3.5456238,-1.3618469,0.37916565,0.49491882,2.1075969,1.9403801,-3.7880528
1570715007,3.0532837,-6.7776794,-3.5456238,-1.3618469,0.37916565,0.49491882,2.1075969,1.9403801,-3.7880528
1570715007,3.0532837,-6.7776794,-3.5456238,-1.3618469,0.37916565,0.49491882,2.1075969,1.9403801,-3.7880528
1570715007,0.74887085,-9.631561,0.100753784,-1.3618469,0.37916565,0.49491882,2.1075969,1.9403801,-3.7880528
1570715007,-2.5455627,-12.37413,0.23242188,0.077316284,0.5826416,-0.062210083,-3.5386577,-4.247018,2.8692973
1570715007,1.2001648,-9.838669,4.339676,0.16999817,1.6308594,0.22007751,-0.10589224,-1.1528063,6.495142
1570715007,-1.0731201,-14.038101,5.251877,1.2832031,0.12989807,-0.42652893,-1.2456304,-5.363244,7.7832894
1570715007,-3.333252,-12.5572815,5.7845764,2.750061,-0.47729492,-0.3189392,-4.848275,-3.8934498,7.947006
1570715007,2.1542664,-9.46756,0.17855835,3.8249207,-0.42190552,0.093322754,-0.14770055,-1.6723824,2.9373927
1570715007,2.4283905,-13.54129,-3.3337402,3.5639343,-0.5561371,0.31915283,1.5258671,-3.6526632,-2.985962
1570715007,1.7687988,-17.150558,-4.4266815,2.90773,1.7693481,0.46936035,1.1823564,-8.881566,-5.517041
1570715007,-2.2402954,-11.512207,-3.2044525,2.0139618,0.6550751,0.9625702,-2.993157,-3.1522818,-5.0346255
1570715007,-0.12261963,-9.768036,1.5240936,1.9905396,-0.574234,1.2427368,-1.2325641,-1.0740538,-1.6216061
1570715008,0.40649414,-10.507843,0.6178894,2.1663055,-1.9505615,1.1532593,0.32188368,-1.8216944,-1.699703
1570715008,0.86857605,-8.179489,-3.234375,2.3431396,-2.166809,0.67282104,0.49764553,0.0119075775,-5.9640455
1570715008,2.7516174,-6.005554,-2.2790833,2.0693665,-2.149765,0.43952942,2.537558,2.0819578,-5.6835184
1570715008,1.552124,-5.6081085,-2.7806702,1.5431213,-1.8269958,0.45976257,1.3730325,2.4822168,-6.694088
1570715008,1.4419861,-4.4289703,-3.2056427,0.6642761,-1.607544,0.5492554,1.1495327,3.2368708,-7.196051
1570715008,1.3928986,-2.6859894,-3.8484955,-0.23587036,-1.5201874,0.5215454,0.8226659,4.9538035,-7.987773
1570715008,1.998642,-1.4769135,-2.7806702,-1.2904816,-0.7872925,0.3596344,1.5167642,6.328802,-6.6461015
1570715008,0.9032898,-2.178421,-0.17936707,-2.1288452,0.04788208,0.2935791,0.6179271,6.290905,-4.1062794
1570715008,0.44958496,-10.529388,14.662277,-2.3546753,0.67211914,0.41716003,0.014966756,0.5328016,6.515931
1570715008,1.7532349,-28.082474,17.789108,0.21899414,-0.939621,-0.50323486,3.7227626,-19.365246,17.933466
1570715008,0.05455017,-10.959152,9.368698,0.6046295,-1.4616089,0.074142456,-1.1582685,-4.4385614,7.02826
1570715008,0.4627533,-1.7414703,3.3365173,0.7985077,-1.6970215,0.5822754,0.3568874,5.8860598,1.3621821
1570715008,-0.15016174,0.7784271,3.517273,-0.06542969,-2.0176697,0.46829224,-0.6749478,9.367115,1.4620197
1570715008,5.619873,-11.56488,-13.717392,-1.9871674,1.2377777,0.07521057,2.0953352,2.4086542,-19.425562
1570715008,6.5188904,-32.386063,17.827423,-1.3959503,1.7405853,-1.1189575,8.019761,-21.292267,9.5660515
1570715008,0.14552307,-4.364319,-4.028061,0.2775879,-1.3167267,0.35005188,-0.9209945,1.67173,-4.6859245
1570715008,0.7548523,2.394516,-8.666824,-1.3511963,-0.023498535,0.5087738,-0.28560883,11.251377,-11.108711
1570715008,0.3430481,-7.0075226,-6.3001556,-1.888092,2.0665436,-0.4712677,0.014549434,3.4193459,-8.628763
1570715008,-3.515213,-18.579895,1.2068634,-1.5621185,1.2782593,-0.8494415,-2.3324547,-8.67679,-4.124531
1570715008,-3.9557495,-10.001465,2.138214,-0.9623871,-0.52737427,0.8134308,-5.9414487,-1.5461273,2.3362815
1570715008,3.485443,-7.242157,-2.4766083,-1.3277588,1.6159515,0.6930542,2.2367206,1.6818562,-3.5657115
1570715008,4.9973755,-8.001114,-0.2715454,-1.6441498,2.6109009,0.20942688,4.619722,0.9733076,-0.8523879
1570715008,3.6889496,-8.391373,0.37010193,-1.0401459,1.2974243,-0.20176697,4.015471,0.43760204,0.62373644
1570715008,-3.554718,-9.060547,-2.6202698,-0.9346771,0.18103027,-0.3189392,-3.1712887,-0.060566902,-2.0202885
1570715008,-5.5838013,-8.556564,-0.6402588,-0.9985962,1.114212,0.048568726,-6.4973116,0.12960625,-0.572424
1570715008,-0.38119507,-8.2165985,-0.9467163,-1.1157837,1.4433746,0.4096985,-1.4907352,0.53639793,0.008424878
1570715008,2.1877747,-7.5761414,-0.75398254,-1.2041931,0.74349976,0.11569214,1.822501,1.0795908,0.78704476
1570715008,0.68421936,-6.910553,-1.8864441,-1.265976,0.37597656,-0.092041016,0.47553653,1.8049831,-0.27487898
1570715008,-0.16572571,-7.140396,-2.04805,-1.6271057,0.64974976,-0.2124176,-0.42420357,1.8032484,-0.2356143
1570715008,-0.8600464,-9.435242,-0.7264557,-1.6995392,0.1831665,-0.3466339,-1.2176938,-0.6379461,1.2543647
1570715008,-1.3700104,-10.152298,2.0256805,-1.4641266,0.41539,-0.27952576,-2.0346365,-1.3490353,4.6487093
1570715008,0.046173096,-11.554108,2.7092285,-0.9890137,1.0620117,-0.007888794,-0.88825387,-3.0405636,5.578473
1570715008,-2.3276825,-12.194565,1.1972961,-0.13893127,0.97572327,-0.07606506,-2.4753466,-3.7573261,4.636944
1570715009,-2.4066925,-12.587204,2.758316,0.2232666,1.1195374,0.08692932,-3.4784136,-3.716878,5.4102373
1570715009,-1.8093414,-14.743179,4.541992,0.92100525,-0.009643555,0.014480591,-2.6750765,-6.2771807,7.0234737
1570715009,-1.3197327,-13.318634,5.177658,2.2930756,-0.65626526,-0.16873169,-2.6916776,-5.0304165,7.33911
1570715009,4.0564575,-10.5329895,1.1805267,3.6363678,-0.5657196,-0.082458496,2.581736,-2.1605892,3.5280719
1570715009,4.647827,-11.263214,-3.325348,3.5894928,-0.49328613,-0.054748535,4.214752,-0.9105463,-2.3167374
1570715009,2.406845,-15.3992,-4.9522095,3.1005402,1.6628113,0.11248779,1.524605,-5.961298,-5.3057857
1570715009,-2.9370117,-11.403275,-2.9375,2.2621765,0.5389557,0.5034485,-2.923027,-3.6028795,-4.0678463
1570715009,-1.6908264,-9.317932,-1.2747192,2.318634,-0.14067078,0.77934265,-2.8037314,-0.4324541,-3.3967106
1570715009,-0.10586548,-10.5329895,0.6154938,2.5039978,-1.7534943,0.72714233,-0.6710273,-1.6286812,-0.89255214
1570715009,-1.9254608,-9.590866,-1.3369751,2.4816132,-2.2371216,0.5694885,-2.4281354,-1.1220951,-3.902287
1570715009,0.671051,-7.9233093,-1.2962646,2.1141052,-1.9441681,0.86883545,-0.23850062,0.23111725,-4.9010296
1570715009,1.4168396,-6.9907684,-2.2683105,1.8754883,-2.0720062,0.8336792,1.1347847,0.92112064,-6.08305
1570715009,1.7532349,-5.324402,-3.558792,1.2906494,-1.9217987,0.80810547,1.0778909,2.1309638,-7.604846
1570715009,2.0285645,-2.7111206,-3.8484955,0.30421448,-1.6256561,0.7814789,1.5307937,4.5403113,-8.084885
1570715009,2.3697357,-1.0902557,-3.6126556,-0.74612427,-0.98223877,0.7143707,1.7950673,6.4687653,-7.9187818
1570715009,1.5700684,-0.61021423,-2.1258545,-1.8476105,0.02017212,0.34684753,1.2712499,7.525603,-6.890932
1570715009,-0.041229248,-4.2470093,3.829712,-2.7168732,0.5027466,0.34259033,0.03385803,5.0302544,-1.5500939
1570715009,1.4060669,-19.28978,20.360489,-1.3831635,0.4377594,0.26908875,-0.090387866,-5.4793053,15.891025
1570715009,-2.1361542,-27.495895,14.655106,0.062408447,-1.671463,-0.035583496,-1.9771216,-21.185337,13.283848
1570715009,-2.1361542,-27.495895,14.655106,0.062408447,-1.671463,-0.035583496,-1.9771216,-21.185337,13.283848
1570715018,-2.1361542,-27.495895,14.655106,0.062408447,-1.671463,-0.035583496,-1.9771216,-21.185337,13.283848
1570715018,-2.1361542,-27.495895,14.655106,0.062408447,-1.671463,-0.035583496,-1.9771216,-21.185337,13.283848
1570715018,-2.1361542,-27.495895,14.655106,0.062408447,-1.671463,-0.035583496,-1.9771216,-21.185337,13.283848
1570715018,-2.1361542,-27.495895,14.655106,0.062408447,-1.671463,-0.035583496,-1.9771216,-21.185337,13.283848
1570715018,-2.1361542,-27.495895,14.655106,0.062408447,-1.671463,-0.035583496,-1.9771216,-21.185337,13.283848
1570715018,-2.1361542,-27.495895,14.655106,0.062408447,-1.671463,-0.035583496,-1.9771216,-21.185337,13.283848
1570715018,-2.1361542,-27.495895,14.655106,0.062408447,-1.671463,-0.035583496,-1.9771216,-21.185337,13.283848
1570715018,-2.1361542,-27.495895,14.655106,0.062408447,-1.671463,-0.035583496,-1.9771216,-21.185337,13.283848
1570715018,-2.1361542,-27.495895,14.655106,0.062408447,-1.671463,-0.035583496,-1.9771216,-21.185337,13.283848
1570715018,-2.1361542,-27.495895,14.655106,0.062408447,-1.671463,-0.035583496,-1.9771216,-21.185337,13.283848
1570715018,-2.1361542,-27.495895,14.655106,0.062408447,-1.671463,-0.035583496,-1.9771216,-21.185337,13.283848
1570715018,-2.1361542,-27.495895,14.655106,0.062408447,-1.671463,-0.035583496,-1.9771216,-21.185337,13.283848
1570715018,-2.1361542,-27.495895,14.655106,0.062408447,-1.671463,-0.035583496,-1.9771216,-21.185337,13.283848
1570715018,-2.1361542,-27.495895,14.655106,0.062408447,-1.671463,-0.035583496,-1.9771216,-21.185337,13.283848
1570715018,-2.1361542,-27.495895,14.655106,0.062408447,-1.671463,-0.035583496,-1.9771216,-21.185337,13.283848
1570715018,-2.1361542,-27.495895,14.655106,0.062408447,-1.671463,-0.035583496,-1.9771216,-21.185337,13.283848
1570715018,-2.1361542,-27.495895,14.655106,0.062408447,-1.671463,-0.035583496,-1.9771216,-21.185337,13.283848
1570715018,-2.1361542,-27.495895,14.655106,0.062408447,-1.671463,-0.035583496,-1.9771216,-21.185337,13.283848
1570715018,-2.1361542,-27.495895,14.655106,0.062408447,-1.671463,-0.035583496,-1.9771216,-21.185337,13.283848
1570715018,-2.1361542,-27.495895,14.655106,0.062408447,-1.671463,-0.035583496,-1.9771216,-21.185337,13.283848
1570715018,-2.1361542,-27.495895,14.655106,0.062408447,-1.671463,-0.035583496,-1.9771216,-21.185337,13.283848
1570715018,-2.1361542,-27.495895,14.655106,0.062408447,-1.671463,-0.035583496,-1.9771216,-21.185337,13.283848
1570715018,-2.1361542,-27.495895,14.655106,0.062408447,-1.671463,-0.035583496,-1.9771216,-21.185337,13.283848
1570715018,-2.1361542,-27.495895,14.655106,0.062408447,-1.671463,-0.035583496,-1.9771216,-21.185337,13.283848
1570715018,-2.1361542,-27.495895,14.655106,0.062408447,-1.671463,-0.035583496,-1.9771216,-21.185337,13.283848
1570715018,-2.1361542,-27.495895,14.655106,0.062408447,-1.671463,-0.035583496,-1.9771216,-21.185337,13.283848
1570715018,-2.1361542,-27.495895,14.655106,0.062408447,-1.671463,-0.035583496,-1.9771216,-21.185337,13.283848
1570715018,-2.1361542,-27.495895,14.655106,0.062408447,-1.671463,-0.035583496,-1.9771216,-21.185337,13.283848
1570715018,-2.1361542,-27.495895,14.655106,0.062408447,-1.671463,-0.035583496,-1.9771216,-21.185337,13.283848
1570715018,-2.1361542,-27.495895,14.655106,0.062408447,-1.671463,-0.035583496,-1.9771216,-21.185337,13.283848
1570715018,-2.1361542,-27.495895,14.655106,0.062408447,-1.671463,-0.035583496,-1.9771216,-21.185337,13.283848
1570715018,-2.1361542,-27.495895,14.655106,0.062408447,-1.671463,-0.035583496,-1.9771216,-21.185337,13.283848
1570715018,-2.1361542,-27.495895,14.655106,0.062408447,-1.671463,-0.035583496,-1.9771216,-21.185337,13.283848
1570715018,-2.1361542,-27.495895,14.655106,0.062408447,-1.671463,-0.035583496,-1.9771216,-21.185337,13.283848
1570715018,-2.1361542,-27.495895,14.655106,0.062408447,-1.671463,-0.035583496,-1.9771216,-21.185337,13.283848
1570715018,-2.1361542,-27.495895,14.655106,0.062408447,-1.671463,-0.035583496,-1.9771216,-21.185337,13.283848
1570715018,-2.1361542,-27.495895,14.655106,0.062408447,-1.671463,-0.035583496,-1.9771216,-21.185337,13.283848
1570715018,-2.1361542,-27.495895,14.655106,0.062408447,-1.671463,-0.035583496,-1.9771216,-21.185337,13.283848
1570715018,-2.1361542,-27.495895,14.655106,0.062408447,-1.671463,-0.035583496,-1.9771216,-21.185337,13.283848
1570715018,-2.1361542,-27.495895,14.655106,0.062408447,-1.671463,-0.035583496,-1.9771216,-21.185337,13.283848
1570715018,-2.1361542,-27.495895,14.655106,0.062408447,-1.671463,-0.035583496,-1.9771216,-21.185337,13.283848
1570715018,-2.1361542,-27.495895,14.655106,0.062408447,-1.671463,-0.035583496,-1.9771216,-21.185337,13.283848
1570715018,-2.1361542,-27.495895,14.655106,0.062408447,-1.671463,-0.035583496,-1.9771216,-21.185337,13.283848
1570715018,-2.1361542,-27.495895,14.655106,0.062408447,-1.671463,-0.035583496,-1.9771216,-21.185337,13.283848
1570715018,-2.1361542,-27.495895,14.655106,0.062408447,-1.671463,-0.035583496,-1.9771216,-21.185337,13.283848
1570715018,-2.1361542,-27.495895,14.655106,0.062408447,-1.671463,-0.035583496,-1.9771216,-21.185337,13.283848
1570715018,-2.1361542,-27.495895,14.655106,0.062408447,-1.671463,-0.035583496,-1.9771216,-21.185337,13.283848
1570715018,-2.1361542,-27.495895,14.655106,0.062408447,-1.671463,-0.035583496,-1.9771216,-21.185337,13.283848
1570715018,-2.1361542,-27.495895,14.655106,0.062408447,-1.671463,-0.035583496,-1.9771216,-21.185337,13.283848
1570715018,-2.1361542,-27.495895,14.655106,0.062408447,-1.671463,-0.035583496,-1.9771216,-21.185337,13.283848
1570715018,-2.1361542,-27.495895,14.655106,0.062408447,-1.671463,-0.035583496,-1.9771216,-21.185337,13.283848
1570715018,-2.1361542,-27.495895,14.655106,0.062408447,-1.671463,-0.035583496,-1.9771216,-21.185337,13.283848
1570715018,-2.1361542,-27.495895,14.655106,0.062408447,-1.671463,-0.035583496,-1.9771216,-21.185337,13.283848
1570715018,-2.1361542,-27.495895,14.655106,0.062408447,-1.671463,-0.035583496,-1.9771216,-21.185337,13.283848
1570715018,-2.1361542,-27.495895,14.655106,0.062408447,-1.671463,-0.035583496,-1.9771216,-21.185337,13.283848
1570715018,-2.1361542,-27.495895,14.655106,0.062408447,-1.671463,-0.035583496,-1.9771216,-21.185337,13.283848
1570715018,-2.1361542,-27.495895,14.655106,0.062408447,-1.671463,-0.035583496,-1.9771216,-21.185337,13.283848
1570715018,-2.1361542,-27.495895,14.655106,0.062408447,-1.671463,-0.035583496,-1.9771216,-21.185337,13.283848
1570715018,-2.1361542,-27.495895,14.655106,0.062408447,-1.671463,-0.035583496,-1.9771216,-21.185337,13.283848
1570715018,-2.1361542,-27.495895,14.655106,0.062408447,-1.671463,-0.035583496,-1.9771216,-21.185337,13.283848
1570715018,-2.1361542,-27.495895,14.655106,0.062408447,-1.671463,-0.035583496,-1.9771216,-21.185337,13.283848
1570715018,-2.1361542,-27.495895,14.655106,0.062408447,-1.671463,-0.035583496,-1.9771216,-21.185337,13.283848
1570715018,-2.1361542,-27.495895,14.655106,0.062408447,-1.671463,-0.035583496,-1.9771216,-21.185337,13.283848
1570715018,-2.1361542,-27.495895,14.655106,0.062408447,-1.671463,-0.035583496,-1.9771216,-21.185337,13.283848
1570715018,-2.1361542,-27.495895,14.655106,0.062408447,-1.671463,-0.035583496,-1.9771216,-21.185337,13.283848
1570715018,-2.1361542,-27.495895,14.655106,0.062408447,-1.671463,-0.035583496,-1.9771216,-21.185337,13.283848
1570715018,-2.1361542,-27.495895,14.655106,0.062408447,-1.671463,-0.035583496,-1.9771216,-21.185337,13.283848
1570715018,-2.1361542,-27.495895,14.655106,0.062408447,-1.671463,-0.035583496,-1.9771216,-21.185337,13.283848
1570715018,-2.1361542,-27.495895,14.655106,0.062408447,-1.671463,-0.035583496,-1.9771216,-21.185337,13.283848
1570715018,-2.1361542,-27.495895,14.655106,0.062408447,-1.671463,-0.035583496,-1.9771216,-21.185337,13.283848
1570715018,-2.1361542,-27.495895,14.655106,0.062408447,-1.671463,-0.035583496,-1.9771216,-21.185337,13.283848
1570715018,-2.1361542,-27.495895,14.655106,0.062408447,-1.671463,-0.035583496,-1.9771216,-21.185337,13.283848
1570715018,-2.1361542,-27.495895,14.655106,0.062408447,-1.671463,-0.035583496,-1.9771216,-21.185337,13.283848
1570715018,-2.1361542,-27.495895,14.655106,0.062408447,-1.671463,-0.035583496,-1.9771216,-21.185337,13.283848
1570715018,-2.1361542,-27.495895,14.655106,0.062408447,-1.671463,-0.035583496,-1.9771216,-21.185337,13.283848
1570715018,-2.1361542,-27.495895,14.655106,0.062408447,-1.671463,-0.035583496,-1.9771216,-21.185337,13.283848
1570715018,-2.1361542,-27.495895,14.655106,0.062408447,-1.671463,-0.035583496,-1.9771216,-21.185337,13.283848
1570715018,-2.1361542,-27.495895,14.655106,0.062408447,-1.671463,-0.035583496,-1.9771216,-21.185337,13.283848
1570715018,-2.1361542,-27.495895,14.655106,0.062408447,-1.671463,-0.035583496,-1.9771216,-21.185337,13.283848
1570715018,-2.1361542,-27.495895,14.655106,0.062408447,-1.671463,-0.035583496,-1.9771216,-21.185337,13.283848
1570715018,-2.1361542,-27.495895,14.655106,0.062408447,-1.671463,-0.035583496,-1.9771216,-21.185337,13.283848
1570715018,-2.1361542,-27.495895,14.655106,0.062408447,-1.671463,-0.035583496,-1.9771216,-21.185337,13.283848
1570715018,-2.1361542,-27.495895,14.655106,0.062408447,-1.671463,-0.035583496,-1.9771216,-21.185337,13.283848
1570715018,-2.1361542,-27.495895,14.655106,0.062408447,-1.671463,-0.035583496,-1.9771216,-21.185337,13.283848
1570715018,-2.1361542,-27.495895,14.655106,0.062408447,-1.671463,-0.035583496,-1.9771216,-21.185337,13.283848
1570715018,-2.1361542,-27.495895,14.655106,0.062408447,-1.671463,-0.035583496,-1.9771216,-21.185337,13.283848
1570715018,-2.1361542,-27.495895,14.655106,0.062408447,-1.671463,-0.035583496,-1.9771216,-21.185337,13.283848
1570715018,-2.1361542,-27.495895,14.655106,0.062408447,-1.671463,-0.035583496,-1.9771216,-21.185337,13.283848
1570715018,-2.1361542,-27.495895,14.655106,0.062408447,-1.671463,-0.035583496,-1.9771216,-21.185337,13.283848
1570715018,-2.1361542,-27.495895,14.655106,0.062408447,-1.671463,-0.035583496,-1.9771216,-21.185337,13.283848
1570715018,-2.1361542,-27.495895,14.655106,0.062408447,-1.671463,-0.035583496,-1.9771216,-21.185337,13.283848
1570715018,-2.1361542,-27.495895,14.655106,0.062408447,-1.671463,-0.035583496,-1.9771216,-21.185337,13.283848
1570715018,-2.1361542,-27.495895,14.655106,0.062408447,-1.671463,-0.035583496,-1.9771216,-21.185337,13.283848
1570715018,-2.1361542,-27.495895,14.655106,0.062408447,-1.671463,-0.035583496,-1.9771216,-21.185337,13.283848
1570715018,-2.1361542,-27.495895,14.655106,0.062408447,-1.671463,-0.035583496,-1.9771216,-21.185337,13.283848
1570715018,-2.1361542,-27.495895,14.655106,0.062408447,-1.671463,-0.035583496,-1.9771216,-21.185337,13.283848
1570715018,-2.1361542,-27.495895,14.655106,0.062408447,-1.671463,-0.035583496,-1.9771216,-21.185337,13.283848
1570715018,-2.1361542,-27.495895,14.655106,0.062408447,-1.671463,-0.035583496,-1.9771216,-21.185337,13.283848
1570715018,-2.1361542,-27.495895,14.655106,0.062408447,-1.671463,-0.035583496,-1.9771216,-21.185337,13.283848
1570715018,-2.1361542,-27.495895,14.655106,0.062408447,-1.671463,-0.035583496,-1.9771216,-21.185337,13.283848
1570715018,-2.1361542,-27.495895,14.655106,0.062408447,-1.671463,-0.035583496,-1.9771216,-21.185337,13.283848
1570715018,-2.1361542,-27.495895,14.655106,0.062408447,-1.671463,-0.035583496,-1.9771216,-21.185337,13.283848
1570715018,-2.1361542,-27.495895,14.655106,0.062408447,-1.671463,-0.035583496,-1.9771216,-21.185337,13.283848
1570715018,-2.1361542,-27.495895,14.655106,0.062408447,-1.671463,-0.035583496,-1.9771216,-21.185337,13.283848
1570715018,-2.1361542,-27.495895,14.655106,0.062408447,-1.671463,-0.035583496,-1.9771216,-21.185337,13.283848
1570715018,-2.1361542,-27.495895,14.655106,0.062408447,-1.671463,-0.035583496,-1.9771216,-21.185337,13.283848
1570715018,-2.1361542,-27.495895,14.655106,0.062408447,-1.671463,-0.035583496,-1.9771216,-21.185337,13.283848
1570715018,-2.1361542,-27.495895,14.655106,0.062408447,-1.671463,-0.035583496,-1.9771216,-21.185337,13.283848
1570715018,-2.1361542,-27.495895,14.655106,0.062408447,-1.671463,-0.035583496,-1.9771216,-21.185337,13.283848
1570715018,-2.1361542,-27.495895,14.655106,0.062408447,-1.671463,-0.035583496,-1.9771216,-21.185337,13.283848
1570715018,-2.1361542,-27.495895,14.655106,0.062408447,-1.671463,-0.035583496,-1.9771216,-21.185337,13.283848
1570715018,-2.1361542,-27.495895,14.655106,0.062408447,-1.671463,-0.035583496,-1.9771216,-21.185337,13.283848
1570715018,-2.1361542,-27.495895,14.655106,0.062408447,-1.671463,-0.035583496,-1.9771216,-21.185337,13.283848
1570715018,-2.1361542,-27.495895,14.655106,0.062408447,-1.671463,-0.035583496,-1.9771216,-21.185337,13.283848
1570715018,-2.1361542,-27.495895,14.655106,0.062408447,-1.671463,-0.035583496,-1.9771216,-21.185337,13.283848
1570715018,-2.1361542,-27.495895,14.655106,0.062408447,-1.671463,-0.035583496,-1.9771216,-21.185337,13.283848
1570715018,-2.1361542,-27.495895,14.655106,0.062408447,-1.671463,-0.035583496,-1.9771216,-21.185337,13.283848
1570715018,-2.1361542,-27.495895,14.655106,0.062408447,-1.671463,-0.035583496,-1.9771216,-21.185337,13.283848
1570715018,-2.1361542,-27.495895,14.655106,0.062408447,-1.671463,-0.035583496,-1.9771216,-21.185337,13.283848
1570715018,-2.1361542,-27.495895,14.655106,0.062408447,-1.671463,-0.035583496,-1.9771216,-21.185337,13.283848
1570715018,-2.1361542,-27.495895,14.655106,0.062408447,-1.671463,-0.035583496,-1.9771216,-21.185337,13.283848
1570715018,-2.1361542,-27.495895,14.655106,0.062408447,-1.671463,-0.035583496,-1.9771216,-21.185337,13.283848
1570715018,-2.1361542,-27.495895,14.655106,0.062408447,-1.671463,-0.035583496,-1.9771216,-21.185337,13.283848
1570715018,-2.1361542,-27.495895,14.655106,0.062408447,-1.671463,-0.035583496,-1.9771216,-21.185337,13.283848
1570715018,-2.1361542,-27.495895,14.655106,0.062408447,-1.671463,-0.035583496,-1.9771216,-21.185337,13.283848
1570715018,-2.1361542,-27.495895,14.655106,0.062408447,-1.671463,-0.035583496,-1.9771216,-21.185337,13.283848
1570715018,-2.1361542,-27.495895,14.655106,0.062408447,-1.671463,-0.035583496,-1.9771216,-21.185337,13.283848
1570715018,-2.1361542,-27.495895,14.655106,0.062408447,-1.671463,-0.035583496,-1.9771216,-21.185337,13.283848
1570715018,-2.1361542,-27.495895,14.655106,0.062408447,-1.671463,-0.035583496,-1.9771216,-21.185337,13.283848
1570715018,-2.1361542,-27.495895,14.655106,0.062408447,-1.671463,-0.035583496,-1.9771216,-21.185337,13.283848
1570715018,-2.1361542,-27.495895,14.655106,0.062408447,-1.671463,-0.035583496,-1.9771216,-21.185337,13.283848
1570715018,-2.1361542,-27.495895,14.655106,0.062408447,-1.671463,-0.035583496,-1.9771216,-21.185337,13.283848
1570715018,-2.1361542,-27.495895,14.655106,0.062408447,-1.671463,-0.035583496,-1.9771216,-21.185337,13.283848
1570715018,-2.1361542,-27.495895,14.655106,0.062408447,-1.671463,-0.035583496,-1.9771216,-21.185337,13.283848
1570715018,-2.1361542,-27.495895,14.655106,0.062408447,-1.671463,-0.035583496,-1.9771216,-21.185337,13.283848
1570715018,-2.1361542,-27.495895,14.655106,0.062408447,-1.671463,-0.035583496,-1.9771216,-21.185337,13.283848
1570715018,-2.1361542,-27.495895,14.655106,0.062408447,-1.671463,-0.035583496,-1.9771216,-21.185337,13.283848
1570715018,-2.1361542,-27.495895,14.655106,0.062408447,-1.671463,-0.035583496,-1.9771216,-21.185337,13.283848
1570715018,-2.1361542,-27.495895,14.655106,0.062408447,-1.671463,-0.035583496,-1.9771216,-21.185337,13.283848
1570715018,-2.1361542,-27.495895,14.655106,0.062408447,-1.671463,-0.035583496,-1.9771216,-21.185337,13.283848
1570715018,-2.1361542,-27.495895,14.655106,0.062408447,-1.671463,-0.035583496,-1.9771216,-21.185337,13.283848
1570715018,-2.1361542,-27.495895,14.655106,0.062408447,-1.671463,-0.035583496,-1.9771216,-21.185337,13.283848
1570715018,-2.1361542,-27.495895,14.655106,0.062408447,-1.671463,-0.035583496,-1.9771216,-21.185337,13.283848
1570715018,-2.1361542,-27.495895,14.655106,0.062408447,-1.671463,-0.035583496,-1.9771216,-21.185337,13.283848
1570715018,-2.1361542,-27.495895,14.655106,0.062408447,-1.671463,-0.035583496,-1.9771216,-21.185337,13.283848
1570715018,-2.1361542,-27.495895,14.655106,0.062408447,-1.671463,-0.035583496,-1.9771216,-21.185337,13.283848
1570715018,-2.1361542,-27.495895,14.655106,0.062408447,-1.671463,-0.035583496,-1.9771216,-21.185337,13.283848
1570715018,-2.1361542,-27.495895,14.655106,0.062408447,-1.671463,-0.035583496,-1.9771216,-21.185337,13.283848
1570715018,-2.1361542,-27.495895,14.655106,0.062408447,-1.671463,-0.035583496,-1.9771216,-21.185337,13.283848
1570715018,-2.1361542,-27.495895,14.655106,0.062408447,-1.671463,-0.035583496,-1.9771216,-21.185337,13.283848
1570715018,-2.1361542,-27.495895,14.655106,0.062408447,-1.671463,-0.035583496,-1.9771216,-21.185337,13.283848
1570715018,-2.1361542,-27.495895,14.655106,0.062408447,-1.671463,-0.035583496,-1.9771216,-21.185337,13.283848
1570715018,-2.1361542,-27.495895,14.655106,0.062408447,-1.671463,-0.035583496,-1.9771216,-21.185337,13.283848
1570715018,-2.1361542,-27.495895,14.655106,0.062408447,-1.671463,-0.035583496,-1.9771216,-21.185337,13.283848
1570715018,-2.1361542,-27.495895,14.655106,0.062408447,-1.671463,-0.035583496,-1.9771216,-21.185337,13.283848
1570715018,-2.1361542,-27.495895,14.655106,0.062408447,-1.671463,-0.035583496,-1.9771216,-21.185337,13.283848
1570715018,-2.1361542,-27.495895,14.655106,0.062408447,-1.671463,-0.035583496,-1.9771216,-21.185337,13.283848
1570715018,-2.1361542,-27.495895,14.655106,0.062408447,-1.671463,-0.035583496,-1.9771216,-21.185337,13.283848
1570715018,-2.1361542,-27.495895,14.655106,0.062408447,-1.671463,-0.035583496,-1.9771216,-21.185337,13.283848
1570715018,-2.1361542,-27.495895,14.655106,0.062408447,-1.671463,-0.035583496,-1.9771216,-21.185337,13.283848
1570715018,-2.1361542,-27.495895,14.655106,0.062408447,-1.671463,-0.035583496,-1.9771216,-21.185337,13.283848
1570715018,-2.1361542,-27.495895,14.655106,0.062408447,-1.671463,-0.035583496,-1.9771216,-21.185337,13.283848
1570715018,-2.1361542,-27.495895,14.655106,0.062408447,-1.671463,-0.035583496,-1.9771216,-21.185337,13.283848
1570715018,-2.1361542,-27.495895,14.655106,0.062408447,-1.671463,-0.035583496,-1.9771216,-21.185337,13.283848
1570715018,-2.1361542,-27.495895,14.655106,0.062408447,-1.671463,-0.035583496,-1.9771216,-21.185337,13.283848
1570715018,-2.1361542,-27.495895,14.655106,0.062408447,-1.671463,-0.035583496,-1.9771216,-21.185337,13.283848
1570715018,-2.1361542,-27.495895,14.655106,0.062408447,-1.671463,-0.035583496,-1.9771216,-21.185337,13.283848
1570715018,-2.1361542,-27.495895,14.655106,0.062408447,-1.671463,-0.035583496,-1.9771216,-21.185337,13.283848
1570715018,-2.1361542,-27.495895,14.655106,0.062408447,-1.671463,-0.035583496,-1.9771216,-21.185337,13.283848
1570715018,-2.1361542,-27.495895,14.655106,0.062408447,-1.671463,-0.035583496,-1.9771216,-21.185337,13.283848
1570715018,-2.1361542,-27.495895,14.655106,0.062408447,-1.671463,-0.035583496,-1.9771216,-21.185337,13.283848
1570715018,-2.1361542,-27.495895,14.655106,0.062408447,-1.671463,-0.035583496,-1.9771216,-21.185337,13.283848
1570715018,-2.1361542,-27.495895,14.655106,0.062408447,-1.671463,-0.035583496,-1.9771216,-21.185337,13.283848
1570715018,-2.1361542,-27.495895,14.655106,0.062408447,-1.671463,-0.035583496,-1.9771216,-21.185337,13.283848
1570715018,-2.1361542,-27.495895,14.655106,0.062408447,-1.671463,-0.035583496,-1.9771216,-21.185337,13.283848
1570715018,-2.1361542,-27.495895,14.655106,0.062408447,-1.671463,-0.035583496,-1.9771216,-21.185337,13.283848
1570715018,-2.1361542,-27.495895,14.655106,0.062408447,-1.671463,-0.035583496,-1.9771216,-21.185337,13.283848
1570715018,-2.1361542,-27.495895,14.655106,0.062408447,-1.671463,-0.035583496,-1.9771216,-21.185337,13.283848
1570715018,-2.1361542,-27.495895,14.655106,0.062408447,-1.671463,-0.035583496,-1.9771216,-21.185337,13.283848
1570715018,-2.1361542,-27.495895,14.655106,0.062408447,-1.671463,-0.035583496,-1.9771216,-21.185337,13.283848
1570715018,-2.1361542,-27.495895,14.655106,0.062408447,-1.671463,-0.035583496,-1.9771216,-21.185337,13.283848
1570715018,-2.1361542,-27.495895,14.655106,0.062408447,-1.671463,-0.035583496,-1.9771216,-21.185337,13.283848
1570715018,-2.1361542,-27.495895,14.655106,0.062408447,-1.671463,-0.035583496,-1.9771216,-21.185337,13.283848
1570715018,-2.1361542,-27.495895,14.655106,0.062408447,-1.671463,-0.035583496,-1.9771216,-21.185337,13.283848
1570715018,-2.1361542,-27.495895,14.655106,0.062408447,-1.671463,-0.035583496,-1.9771216,-21.185337,13.283848
1570715018,-2.1361542,-27.495895,14.655106,0.062408447,-1.671463,-0.035583496,-1.9771216,-21.185337,13.283848
1570715018,-2.1361542,-27.495895,14.655106,0.062408447,-1.671463,-0.035583496,-1.9771216,-21.185337,13.283848
1570715018,-2.1361542,-27.495895,14.655106,0.062408447,-1.671463,-0.035583496,-1.9771216,-21.185337,13.283848
1570715018,-2.1361542,-27.495895,14.655106,0.062408447,-1.671463,-0.035583496,-1.9771216,-21.185337,13.283848
1570715018,-2.1361542,-27.495895,14.655106,0.062408447,-1.671463,-0.035583496,-1.9771216,-21.185337,13.283848
1570715018,-2.1361542,-27.495895,14.655106,0.062408447,-1.671463,-0.035583496,-1.9771216,-21.185337,13.283848
1570715018,-2.1361542,-27.495895,14.655106,0.062408447,-1.671463,-0.035583496,-1.9771216,-21.185337,13.283848
1570715018,-2.1361542,-27.495895,14.655106,0.062408447,-1.671463,-0.035583496,-1.9771216,-21.185337,13.283848
1570715018,-2.1361542,-27.495895,14.655106,0.062408447,-1.671463,-0.035583496,-1.9771216,-21.185337,13.283848
1570715018,-2.1361542,-27.495895,14.655106,0.062408447,-1.671463,-0.035583496,-1.9771216,-21.185337,13.283848
1570715018,-2.1361542,-27.495895,14.655106,0.062408447,-1.671463,-0.035583496,-1.9771216,-21.185337,13.283848
1570715018,-2.1361542,-27.495895,14.655106,0.062408447,-1.671463,-0.035583496,-1.9771216,-21.185337,13.283848
1570715018,-2.1361542,-27.495895,14.655106,0.062408447,-1.671463,-0.035583496,-1.9771216,-21.185337,13.283848
1570715018,-2.1361542,-27.495895,14.655106,0.062408447,-1.671463,-0.035583496,-1.9771216,-21.185337,13.283848
1570715018,-2.1361542,-27.495895,14.655106,0.062408447,-1.671463,-0.035583496,-1.9771216,-21.185337,13.283848
1570715018,-2.1361542,-27.495895,14.655106,0.062408447,-1.671463,-0.035583496,-1.9771216,-21.185337,13.283848
1570715018,-2.1361542,-27.495895,14.655106,0.062408447,-1.671463,-0.035583496,-1.9771216,-21.185337,13.283848
1570715018,-2.1361542,-27.495895,14.655106,0.062408447,-1.671463,-0.035583496,-1.9771216,-21.185337,13.283848
1570715018,-2.1361542,-27.495895,14.655106,0.062408447,-1.671463,-0.035583496,-1.9771216,-21.185337,13.283848
1570715018,-2.1361542,-27.495895,14.655106,0.062408447,-1.671463,-0.035583496,-1.9771216,-21.185337,13.283848
1570715018,-2.1361542,-27.495895,14.655106,0.062408447,-1.671463,-0.035583496,-1.9771216,-21.185337,13.283848
1570715018,-2.1361542,-27.495895,14.655106,0.062408447,-1.671463,-0.035583496,-1.9771216,-21.185337,13.283848
1570715018,-2.1361542,-27.495895,14.655106,0.062408447,-1.671463,-0.035583496,-1.9771216,-21.185337,13.283848
1570715018,-2.1361542,-27.495895,14.655106,0.062408447,-1.671463,-0.035583496,-1.9771216,-21.185337,13.283848
1570715018,-2.1361542,-27.495895,14.655106,0.062408447,-1.671463,-0.035583496,-1.9771216,-21.185337,13.283848
1570715018,-2.1361542,-27.495895,14.655106,0.062408447,-1.671463,-0.035583496,-1.9771216,-21.185337,13.283848
1570715018,-2.1361542,-27.495895,14.655106,0.062408447,-1.671463,-0.035583496,-1.9771216,-21.185337,13.283848
1570715018,-2.1361542,-27.495895,14.655106,0.062408447,-1.671463,-0.035583496,-1.9771216,-21.185337,13.283848
1570715018,-2.1361542,-27.495895,14.655106,0.062408447,-1.671463,-0.035583496,-1.9771216,-21.185337,13.283848
1570715018,-2.1361542,-27.495895,14.655106,0.062408447,-1.671463,-0.035583496,-1.9771216,-21.185337,13.283848
1570715018,-2.1361542,-27.495895,14.655106,0.062408447,-1.671463,-0.035583496,-1.9771216,-21.185337,13.283848
1570715018,-2.1361542,-27.495895,14.655106,0.062408447,-1.671463,-0.035583496,-1.9771216,-21.185337,13.283848
1570715018,-2.1361542,-27.495895,14.655106,0.062408447,-1.671463,-0.035583496,-1.9771216,-21.185337,13.283848
1570715018,-2.1361542,-27.495895,14.655106,0.062408447,-1.671463,-0.035583496,-1.9771216,-21.185337,13.283848
1570715018,-2.1361542,-27.495895,14.655106,0.062408447,-1.671463,-0.035583496,-1.9771216,-21.185337,13.283848
1570715018,-2.1361542,-27.495895,14.655106,0.062408447,-1.671463,-0.035583496,-1.9771216,-21.185337,13.283848
1570715018,-2.1361542,-27.495895,14.655106,0.062408447,-1.671463,-0.035583496,-1.9771216,-21.185337,13.283848
1570715018,-2.1361542,-27.495895,14.655106,0.062408447,-1.671463,-0.035583496,-1.9771216,-21.185337,13.283848
1570715018,-2.1361542,-27.495895,14.655106,0.062408447,-1.671463,-0.035583496,-1.9771216,-21.185337,13.283848
1570715018,-2.1361542,-27.495895,14.655106,0.062408447,-1.671463,-0.035583496,-1.9771216,-21.185337,13.283848
1570715018,-2.1361542,-27.495895,14.655106,0.062408447,-1.671463,-0.035583496,-1.9771216,-21.185337,13.283848
1570715018,-2.1361542,-27.495895,14.655106,0.062408447,-1.671463,-0.035583496,-1.9771216,-21.185337,13.283848
1570715018,-2.1361542,-27.495895,14.655106,0.062408447,-1.671463,-0.035583496,-1.9771216,-21.185337,13.283848
1570715018,-2.1361542,-27.495895,14.655106,0.062408447,-1.671463,-0.035583496,-1.9771216,-21.185337,13.283848
1570715018,-2.1361542,-27.495895,14.655106,0.062408447,-1.671463,-0.035583496,-1.9771216,-21.185337,13.283848
1570715018,-2.1361542,-27.495895,14.655106,0.062408447,-1.671463,-0.035583496,-1.9771216,-21.185337,13.283848
1570715018,-2.1361542,-27.495895,14.655106,0.062408447,-1.671463,-0.035583496,-1.9771216,-21.185337,13.283848
1570715018,-2.1361542,-27.495895,14.655106,0.062408447,-1.671463,-0.035583496,-1.9771216,-21.185337,13.283848
1570715018,-2.1361542,-27.495895,14.655106,0.062408447,-1.671463,-0.035583496,-1.9771216,-21.185337,13.283848
1570715018,-2.1361542,-27.495895,14.655106,0.062408447,-1.671463,-0.035583496,-1.9771216,-21.185337,13.283848
1570715018,-2.1361542,-27.495895,14.655106,0.062408447,-1.671463,-0.035583496,-1.9771216,-21.185337,13.283848
1570715018,-2.1361542,-27.495895,14.655106,0.062408447,-1.671463,-0.035583496,-1.9771216,-21.185337,13.283848
1570715018,-2.1361542,-27.495895,14.655106,0.062408447,-1.671463,-0.035583496,-1.9771216,-21.185337,13.283848
1570715018,-2.1361542,-27.495895,14.655106,0.062408447,-1.671463,-0.035583496,-1.9771216,-21.185337,13.283848
1570715018,-2.1361542,-27.495895,14.655106,0.062408447,-1.671463,-0.035583496,-1.9771216,-21.185337,13.283848
1570715018,-2.1361542,-27.495895,14.655106,0.062408447,-1.671463,-0.035583496,-1.9771216,-21.185337,13.283848
1570715018,-2.1361542,-27.495895,14.655106,0.062408447,-1.671463,-0.035583496,-1.9771216,-21.185337,13.283848
1570715018,-2.1361542,-27.495895,14.655106,0.062408447,-1.671463,-0.035583496,-1.9771216,-21.185337,13.283848
1570715018,-2.1361542,-27.495895,14.655106,0.062408447,-1.671463,-0.035583496,-1.9771216,-21.185337,13.283848
1570715018,-2.1361542,-27.495895,14.655106,0.062408447,-1.671463,-0.035583496,-1.9771216,-21.185337,13.283848
1570715018,-2.1361542,-27.495895,14.655106,0.062408447,-1.671463,-0.035583496,-1.9771216,-21.185337,13.283848
1570715018,-2.1361542,-27.495895,14.655106,0.062408447,-1.671463,-0.035583496,-1.9771216,-21.185337,13.283848
1570715018,-2.1361542,-27.495895,14.655106,0.062408447,-1.671463,-0.035583496,-1.9771216,-21.185337,13.283848
1570715018,-2.1361542,-27.495895,14.655106,0.062408447,-1.671463,-0.035583496,-1.9771216,-21.185337,13.283848
1570715018,-2.1361542,-27.495895,14.655106,0.062408447,-1.671463,-0.035583496,-1.9771216,-21.185337,13.283848
1570715018,-2.1361542,-27.495895,14.655106,0.062408447,-1.671463,-0.035583496,-1.9771216,-21.185337,13.283848
1570715018,-2.1361542,-27.495895,14.655106,0.062408447,-1.671463,-0.035583496,-1.9771216,-21.185337,13.283848
1570715018,-2.1361542,-27.495895,14.655106,0.062408447,-1.671463,-0.035583496,-1.9771216,-21.185337,13.283848
1570715018,-2.1361542,-27.495895,14.655106,0.062408447,-1.671463,-0.035583496,-1.9771216,-21.185337,13.283848
1570715018,-2.1361542,-27.495895,14.655106,0.062408447,-1.671463,-0.035583496,-1.9771216,-21.185337,13.283848
1570715018,-2.1361542,-27.495895,14.655106,0.062408447,-1.671463,-0.035583496,-1.9771216,-21.185337,13.283848
1570715018,-2.1361542,-27.495895,14.655106,0.062408447,-1.671463,-0.035583496,-1.9771216,-21.185337,13.283848
1570715018,-2.1361542,-27.495895,14.655106,0.062408447,-1.671463,-0.035583496,-1.9771216,-21.185337,13.283848
1570715018,-2.1361542,-27.495895,14.655106,0.062408447,-1.671463,-0.035583496,-1.9771216,-21.185337,13.283848
1570715018,-2.1361542,-27.495895,14.655106,0.062408447,-1.671463,-0.035583496,-1.9771216,-21.185337,13.283848
1570715018,-2.1361542,-27.495895,14.655106,0.062408447,-1.671463,-0.035583496,-1.9771216,-21.185337,13.283848
1570715018,-2.1361542,-27.495895,14.655106,0.062408447,-1.671463,-0.035583496,-1.9771216,-21.185337,13.283848
1570715018,-2.1361542,-27.495895,14.655106,0.062408447,-1.671463,-0.035583496,-1.9771216,-21.185337,13.283848
1570715018,-2.1361542,-27.495895,14.655106,0.062408447,-1.671463,-0.035583496,-1.9771216,-21.185337,13.283848
1570715018,-2.1361542,-27.495895,14.655106,0.062408447,-1.671463,-0.035583496,-1.9771216,-21.185337,13.283848
1570715018,-2.1361542,-27.495895,14.655106,0.062408447,-1.671463,-0.035583496,-1.9771216,-21.185337,13.283848
1570715018,-2.1361542,-27.495895,14.655106,0.062408447,-1.671463,-0.035583496,-1.9771216,-21.185337,13.283848
1570715018,-2.1361542,-27.495895,14.655106,0.062408447,-1.671463,-0.035583496,-1.9771216,-21.185337,13.283848
1570715018,-2.1361542,-27.495895,14.655106,0.062408447,-1.671463,-0.035583496,-1.9771216,-21.185337,13.283848
1570715018,-2.1361542,-27.495895,14.655106,0.062408447,-1.671463,-0.035583496,-1.9771216,-21.185337,13.283848
1570715018,-2.1361542,-27.495895,14.655106,0.062408447,-1.671463,-0.035583496,-1.9771216,-21.185337,13.283848
1570715018,-2.1361542,-27.495895,14.655106,0.062408447,-1.671463,-0.035583496,-1.9771216,-21.185337,13.283848
1570715018,-2.1361542,-27.495895,14.655106,0.062408447,-1.671463,-0.035583496,-1.9771216,-21.185337,13.283848
1570715018,-2.1361542,-27.495895,14.655106,0.062408447,-1.671463,-0.035583496,-1.9771216,-21.185337,13.283848
1570715018,-2.1361542,-27.495895,14.655106,0.062408447,-1.671463,-0.035583496,-1.9771216,-21.185337,13.283848
1570715018,-2.1361542,-27.495895,14.655106,0.062408447,-1.671463,-0.035583496,-1.9771216,-21.185337,13.283848
1570715018,-2.1361542,-27.495895,14.655106,0.062408447,-1.671463,-0.035583496,-1.9771216,-21.185337,13.283848
1570715018,-2.1361542,-27.495895,14.655106,0.062408447,-1.671463,-0.035583496,-1.9771216,-21.185337,13.283848
1570715018,-2.1361542,-27.495895,14.655106,0.062408447,-1.671463,-0.035583496,-1.9771216,-21.185337,13.283848
1570715018,-2.1361542,-27.495895,14.655106,0.062408447,-1.671463,-0.035583496,-1.9771216,-21.185337,13.283848
1570715018,-2.1361542,-27.495895,14.655106,0.062408447,-1.671463,-0.035583496,-1.9771216,-21.185337,13.283848
1570715018,-2.1361542,-27.495895,14.655106,0.062408447,-1.671463,-0.035583496,-1.9771216,-21.185337,13.283848
1570715018,-2.1361542,-27.495895,14.655106,0.062408447,-1.671463,-0.035583496,-1.9771216,-21.185337,13.283848
1570715018,-2.1361542,-27.495895,14.655106,0.062408447,-1.671463,-0.035583496,-1.9771216,-21.185337,13.283848
1570715018,-2.1361542,-27.495895,14.655106,0.062408447,-1.671463,-0.035583496,-1.9771216,-21.185337,13.283848
1570715018,-2.1361542,-27.495895,14.655106,0.062408447,-1.671463,-0.035583496,-1.9771216,-21.185337,13.283848
1570715018,-2.1361542,-27.495895,14.655106,0.062408447,-1.671463,-0.035583496,-1.9771216,-21.185337,13.283848
1570715018,-2.1361542,-27.495895,14.655106,0.062408447,-1.671463,-0.035583496,-1.9771216,-21.185337,13.283848
1570715018,-2.1361542,-27.495895,14.655106,0.062408447,-1.671463,-0.035583496,-1.9771216,-21.185337,13.283848
1570715018,-2.1361542,-27.495895,14.655106,0.062408447,-1.671463,-0.035583496,-1.9771216,-21.185337,13.283848
1570715018,-2.1361542,-27.495895,14.655106,0.062408447,-1.671463,-0.035583496,-1.9771216,-21.185337,13.283848
1570715018,-2.1361542,-27.495895,14.655106,0.062408447,-1.671463,-0.035583496,-1.9771216,-21.185337,13.283848
1570715018,-2.1361542,-27.495895,14.655106,0.062408447,-1.671463,-0.035583496,-1.9771216,-21.185337,13.283848
1570715018,-2.1361542,-27.495895,14.655106,0.062408447,-1.671463,-0.035583496,-1.9771216,-21.185337,13.283848
1570715018,-2.1361542,-27.495895,14.655106,0.062408447,-1.671463,-0.035583496,-1.9771216,-21.185337,13.283848
1570715018,-2.1361542,-27.495895,14.655106,0.062408447,-1.671463,-0.035583496,-1.9771216,-21.185337,13.283848
1570715018,-2.1361542,-27.495895,14.655106,0.062408447,-1.671463,-0.035583496,-1.9771216,-21.185337,13.283848
1570715018,-2.1361542,-27.495895,14.655106,0.062408447,-1.671463,-0.035583496,-1.9771216,-21.185337,13.283848
1570715018,-2.1361542,-27.495895,14.655106,0.062408447,-1.671463,-0.035583496,-1.9771216,-21.185337,13.283848
1570715018,-2.1361542,-27.495895,14.655106,0.062408447,-1.671463,-0.035583496,-1.9771216,-21.185337,13.283848
1570715018,-2.1361542,-27.495895,14.655106,0.062408447,-1.671463,-0.035583496,-1.9771216,-21.185337,13.283848
1570715018,-2.1361542,-27.495895,14.655106,0.062408447,-1.671463,-0.035583496,-1.9771216,-21.185337,13.283848
1570715018,-2.1361542,-27.495895,14.655106,0.062408447,-1.671463,-0.035583496,-1.9771216,-21.185337,13.283848
1570715018,-2.1361542,-27.495895,14.655106,0.062408447,-1.671463,-0.035583496,-1.9771216,-21.185337,13.283848
1570715018,-2.1361542,-27.495895,14.655106,0.062408447,-1.671463,-0.035583496,-1.9771216,-21.185337,13.283848
1570715018,-2.1361542,-27.495895,14.655106,0.062408447,-1.671463,-0.035583496,-1.9771216,-21.185337,13.283848
1570715018,-0.109451294,-11.677414,-5.684845,0.062408447,-1.671463,-0.035583496,2.133744,9.884245,-10.444738
1570715018,1.4467773,-0.64971924,-2.6310425,0.062408447,-1.671463,-0.035583496,2.7190251,-3.3653898,-2.976899
1570715025,-0.7762451,-11.824661,-2.4131622,0.062408447,-1.671463,-0.035583496,3.7559028,-0.10909462,0.7741318
1570715025,-0.7762451,-11.824661,-2.4131622,0.062408447,-1.671463,-0.035583496,3.7559028,-0.10909462,0.7741318
1570715025,-0.7762451,-11.824661,-2.4131622,0.062408447,-1.671463,-0.035583496,3.7559028,-0.10909462,0.7741318
1570715025,-0.7762451,-11.824661,-2.4131622,0.062408447,-1.671463,-0.035583496,3.7559028,-0.10909462,0.7741318
1570715025,-0.7762451,-11.824661,-2.4131622,0.062408447,-1.671463,-0.035583496,3.7559028,-0.10909462,0.7741318
1570715025,-0.7762451,-11.824661,-2.4131622,0.062408447,-1.671463,-0.035583496,3.7559028,-0.10909462,0.7741318
1570715025,-0.7762451,-11.824661,-2.4131622,0.062408447,-1.671463,-0.035583496,3.7559028,-0.10909462,0.7741318
1570715025,-0.7762451,-11.824661,-2.4131622,0.062408447,-1.671463,-0.035583496,3.7559028,-0.10909462,0.7741318
1570715025,-0.7762451,-11.824661,-2.4131622,0.062408447,-1.671463,-0.035583496,3.7559028,-0.10909462,0.7741318
1570715025,-0.7762451,-11.824661,-2.4131622,0.062408447,-1.671463,-0.035583496,3.7559028,-0.10909462,0.7741318
1570715025,-0.7762451,-11.824661,-2.4131622,0.062408447,-1.671463,-0.035583496,3.7559028,-0.10909462,0.7741318
1570715025,-0.7762451,-11.824661,-2.4131622,0.062408447,-1.671463,-0.035583496,3.7559028,-0.10909462,0.7741318
1570715025,-0.7762451,-11.824661,-2.4131622,0.062408447,-1.671463,-0.035583496,3.7559028,-0.10909462,0.7741318
1570715025,-0.7762451,-11.824661,-2.4131622,0.062408447,-1.671463,-0.035583496,3.7559028,-0.10909462,0.7741318
1570715025,-0.7762451,-11.824661,-2.4131622,0.062408447,-1.671463,-0.035583496,3.7559028,-0.10909462,0.7741318
1570715025,-0.7762451,-11.824661,-2.4131622,0.062408447,-1.671463,-0.035583496,3.7559028,-0.10909462,0.7741318
1570715025,-0.7762451,-11.824661,-2.4131622,0.062408447,-1.671463,-0.035583496,3.7559028,-0.10909462,0.7741318
1570715025,-0.7762451,-11.824661,-2.4131622,0.062408447,-1.671463,-0.035583496,3.7559028,-0.10909462,0.7741318
1570715025,-0.7762451,-11.824661,-2.4131622,0.062408447,-1.671463,-0.035583496,3.7559028,-0.10909462,0.7741318
1570715025,-0.7762451,-11.824661,-2.4131622,0.062408447,-1.671463,-0.035583496,3.7559028,-0.10909462,0.7741318
1570715025,-0.7762451,-11.824661,-2.4131622,0.062408447,-1.671463,-0.035583496,3.7559028,-0.10909462,0.7741318
1570715025,-0.7762451,-11.824661,-2.4131622,0.062408447,-1.671463,-0.035583496,3.7559028,-0.10909462,0.7741318
1570715025,-0.7762451,-11.824661,-2.4131622,0.062408447,-1.671463,-0.035583496,3.7559028,-0.10909462,0.7741318
1570715025,-0.7762451,-11.824661,-2.4131622,0.062408447,-1.671463,-0.035583496,3.7559028,-0.10909462,0.7741318
1570715025,-0.7762451,-11.824661,-2.4131622,0.062408447,-1.671463,-0.035583496,3.7559028,-0.10909462,0.7741318
1570715025,-0.7762451,-11.824661,-2.4131622,0.062408447,-1.671463,-0.035583496,3.7559028,-0.10909462,0.7741318
1570715025,-0.7762451,-11.824661,-2.4131622,0.062408447,-1.671463,-0.035583496,3.7559028,-0.10909462,0.7741318
1570715025,-0.7762451,-11.824661,-2.4131622,0.062408447,-1.671463,-0.035583496,3.7559028,-0.10909462,0.7741318
1570715025,-1.6357574,-9.54538,-1.4423218,0.062408447,-1.671463,-0.035583496,3.7559028,-0.10909462,0.7741318
1570715025,1.9483643,-4.5678253,-3.2798615,0.062408447,-1.671463,-0.035583496,3.7559028,-0.10909462,0.7741318
1570715025,0.4615631,-11.550522,18.062042,0.062408447,-1.671463,-0.035583496,3.7559028,-0.10909462,0.7741318
1570715025,8.954987,-28.550552,7.407852,0.062408447,-1.671463,-0.035583496,3.7559028,-0.10909462,0.7741318
1570715025,-3.4170532,-16.572357,3.2586975,0.062408447,-1.671463,-0.035583496,3.7559028,-0.10909462,0.7741318
1570715025,-1.3161316,-9.768036,-0.6641998,0.062408447,-1.671463,-0.035583496,3.7559028,-0.10909462,0.7741318
1570715025,1.9890594,-7.389389,-1.9941864,0.062408447,-1.671463,-0.035583496,3.7559028,-0.10909462,0.7741318
1570715025,-1.0132751,-12.198151,-1.0963593,0.062408447,-1.671463,-0.035583496,3.7559028,-0.10909462,0.7741318
