time,ax,ay,az,gx,gy,gz,la_x,la_y,la_z,fox,foy,foz
1570715035,-7.167038,4.4017334,4.4969025,-1.3044434,1.8180084,-1.2372284,-0.96140146,-2.914054,5.15765
1570715035,-5.9759216,4.3664246,4.0096893,-1.680481,1.3887024,-0.7408142,0.91235685,-2.8767114,5.222165
1570715035,-6.309326,5.182251,2.7593231,-1.0136261,0.98283386,-0.9581299,1.5834184,-1.5202708,4.178297
1570715035,-7.7883453,3.7535095,3.636795,-0.7398529,0.23394775,-1.7719879,-0.661458,-2.7596812,3.8929577
1570715035,-6.9593506,2.2433624,0.20829773,-0.2881775,-0.59588623,-1.8252563,0.6497302,-3.9108958,0.74713063
1570715035,-6.0890503,1.1468201,2.9706116,0.04524231,-1.1721954,-1.2042084,1.8906689,-4.5980263,2.121865
1570715035,-5.3498383,1.6226654,4.2479095,0.8399353,-1.2765961,-0.56611633,2.3048515,-4.1710234,2.8212106
1570715035,-6.6038055,2.5911255,3.205841,0.9517822,-1.0816498,-0.6950073,1.7557592,-2.9239635,2.9826376
1570715035,-7.142502,2.762909,2.5067291,1.0487213,-1.0539551,-0.736557,1.4765387,-2.8651633,2.8622155
1570715035,-8.397659,3.197464,2.166153,0.83354187,-0.9048157,-0.5394745,0.17655277,-2.1468234,1.5886259
1570715035,-9.871887,3.8929749,3.253128,0.5192871,-0.736496,-0.44573975,-1.2344246,-0.86686945,2.7534144
1570715035,-9.866501,4.3813934,3.9438477,0.5416565,-0.7066803,-0.40525818,-1.496603,-0.8988185,3.2889416
1570715035,-9.658813,6.2752075,3.7696686,0.9560547,0.14767456,-0.1133728,-1.000144,0.89461327,3.606588
1570715035,-8.136093,6.657669,-4.01268,1.7368927,0.30319214,0.2626648,0.24838066,1.8478713,-3.400747
1570715035,-9.049484,7.059311,-3.573944,0.82289124,-0.2454071,0.48744202,-0.46150398,1.9360461,-3.997127
1570715035,-8.501816,8.076248,4.988922,-0.60136414,-0.031295776,0.48316956,-0.10836029,2.567276,1.5962214
1570715035,-6.842621,8.371918,0.16220093,0.483078,0.8358307,0.3148651,1.1880312,2.7191062,1.6934285
1570715035,-5.522827,8.523361,-3.1328125,1.2010651,0.04966736,-0.02708435,2.5706835,3.413012,-2.065568
1570715035,-6.593628,6.496063,-1.0384827,1.0945282,-1.374588,0.6216583,2.220996,1.3295274,-0.9850767
1570715035,-8.257004,6.6672516,-0.12449646,0.39785767,-1.419342,0.91567993,0.04159546,0.7913847,-0.306817
1570715035,-7.8936768,7.013214,0.62727356,-0.39897156,0.64302063,0.44056702,0.02422285,1.06288,-0.5014698
1570715035,-6.758835,7.159256,-0.11192322,-0.4181366,1.4270477,-0.10165405,0.7674928,0.44920063,0.21466692
1570715035,-5.8795624,5.7969666,0.93074036,0.11343384,1.6326447,0.1060791,2.0326862,0.047421932,1.3558137
1570715035,-6.756439,7.250839,-0.40940857,0.3573761,1.0829773,0.17851257,1.347147,0.84964466,-0.43584496
1570715035,-7.4483643,7.9397736,2.142807,0.7195587,1.4398346,-0.22521973,0.3207426,1.7190528,2.6719763
1570715035,-7.6668396,7.305313,-0.5063782,1.2212982,2.482727,-0.44786072,0.04022169,1.7727537,1.8627353
1570715035,-7.150879,6.5403595,1.4814148,-0.13478088,2.4092255,-0.30511475,0.33867645,0.8838129,2.106238
1570715036,-6.843231,4.5645447,1.0923615,1.1723022,1.4110718,0.3383026,0.7221503,-1.0186515,4.882371
1570715036,-8.244431,3.9510345,-2.387619,1.123291,0.62384033,1.1979675,-0.2679906,-1.6991086,0.81162477
1570715036,-10.241196,4.656723,-2.2643127,0.27215576,-0.39775085,0.58543396,-2.9259648,-1.1743159,1.5390215
1570715036,-10.7739105,2.3738556,-2.21344,-1.7337494,0.8656616,-0.4617157,-4.063685,-2.5481043,0.9399295
1570715036,-8.950729,0.24958801,-4.3358917,-2.1033936,1.5165405,0.5928955,-2.5423813,-5.959191,-0.96442175
1570715036,-8.885483,2.6336212,-2.8036041,0.12940979,-0.81959534,1.2427063,-1.834424,-3.9875488,-0.14022541
1570715036,-11.550232,5.2014008,-3.9241028,2.09375,-2.3716888,0.72073364,-4.3507285,-1.1660833,-1.0597143
1570715036,-12.893967,4.983536,-0.8661041,1.153122,-2.471817,-0.8611908,-5.594782,-1.2576251,1.140909
1570715036,-11.570572,3.9612122,0.9612732,-0.20828247,-2.5858002,-2.6295319,-4.065714,-1.1509266,3.1123233
1570715036,-11.477798,3.905548,-0.15023804,-1.2224121,-2.8489227,-2.968277,-3.0071669,-1.1504035,1.5769219
1570715036,-9.956284,4.3975525,-0.025146484,-1.5888672,-3.0449219,-3.8705597,-1.0359879,0.15641117,0.0030728877
1570715036,-6.9156494,2.2272034,-0.11791992,-0.5875244,-1.548233,-3.9046478,2.533908,-0.30126858,-0.6896279
1570715036,-6.807907,2.091339,-0.34776306,-0.28178406,-1.6291962,-3.7746887,2.842227,0.0424695,-1.0488343
1570715036,-5.3384705,1.7256165,-1.154602,0.26576233,-1.9050903,-3.4561768,4.449852,1.0975603,-2.730013
1570715036,-5.9424133,1.4233551,0.5057678,0.20077515,-1.675003,-3.188797,3.9512072,1.5414226,-1.6574032
1570715036,-5.667679,2.1685486,1.5706024,-0.1315918,-0.023834229,-2.8937073,4.3286858,1.9894885,-3.9467094
1570715036,-4.720764,1.7322083,-6.333267,0.3840027,0.16897583,-3.0194092,5.2937202,2.3560443,-7.032552
1570715036,-5.35643,0.60572815,6.2045746,-0.7164154,-0.048339844,-3.3059692,4.02573,0.24958682,-1.45241
1570715036,2.3858185,-1.1959076,0.050872803,-0.44477844,0.25419617,-3.494522,10.9032,2.5906146,-1.2443547
1570715036,2.3858185,-1.1959076,0.050872803,-0.44477844,0.25419617,-3.494522,10.9032,2.5906146,-1.2443547
1570715036,-7.617157,-6.606201,11.134827,0.40637207,1.635849,-4.866577,0.5328803,-0.8873229,6.5200095
1570715036,-5.498886,-7.1490936,9.843155,1.6932068,2.8214874,-4.8729706,0.9069953,-1.2291718,10.319857
1570715036,-5.3767853,-10.430939,-0.39743042,2.6093445,3.5842133,-5.177643,1.0704174,-3.1466866,0.091673374
1570715036,-9.595963,-10.8211975,-4.5094757,2.2897644,1.1756439,-4.8069305,-3.1871948,-2.814014,-4.6410127
1570715036,-9.452301,-10.087372,-5.754471,0.20610046,-3.9088593,-2.6700134,-6.4798975,-1.6491938,-8.538307
1570715036,-4.4807434,-11.260529,-1.1994934,-1.0040436,-4.3924866,-2.0052795,-1.4913392,-2.4494257,-3.7500496
1570715036,-4.7183685,-13.645752,8.781937,-0.40109253,-1.7367859,-2.919281,-0.5352951,-2.7410173,2.1442268
1570715036,-4.7183685,-13.645752,8.781937,-0.40109253,-1.7367859,-2.919281,-0.5352951,-2.7410173,2.1442268
1570715036,-0.9612732,-14.298767,1.0343018,0.6066437,-1.0187988,-2.1352386,-0.45129365,-4.421321,-0.013896942
1570715036,-0.72784424,-14.226944,0.77812195,0.5512543,-1.134903,-2.171463,-0.45129365,-4.421321,-0.013896942
1570715036,2.0506287,-14.140747,2.3349457,-0.14863586,-0.10800171,-2.5762634,1.4901148,-4.577606,-0.14998555
1570715036,1.6190796,-10.71286,-0.76194763,-1.49086,1.1532745,-3.1653595,-0.82664907,-1.9214449,-1.5615317
1570715036,1.6190796,-10.71286,-0.76194763,-1.49086,1.1532745,-3.1653595,-0.82664907,-1.9214449,-1.5615317
1570715037,-0.9510956,-8.894455,-0.7475891,-2.4272308,0.9721832,-3.6319427,-5.196,-1.2050505,-1.2475067
1570715037,-0.23223877,-7.1700287,-1.1593933,-2.3803558,0.7900238,-3.4998474,-5.123391,-0.39621544,-1.1262685
1570715037,1.7501678,-10.951675,0.64404297,-0.50549316,-2.3567657,-0.16983032,-3.294551,-2.4341402,0.67901415
1570715037,1.7501678,-10.951675,0.64404297,-0.50549316,-2.3567657,-0.16983032,-3.294551,-2.4341402,0.67901415
1570715037,1.8417358,-5.4929047,0.5590515,-1.141449,-2.0318604,1.1894379,-2.5772657,3.1354713,-0.93311125
1570715037,1.8034363,-5.4929047,0.5590515,-1.141449,-2.0318604,1.1894379,-2.5772657,3.1354713,-0.93311125
1570715037,2.8993835,-7.4094543,-3.8893738,-0.40855408,-1.8369141,-0.19966125,-0.94223475,1.2568111,-1.983258
1570715037,2.8826141,-7.3543854,-4.058777,-0.4618225,-1.7932434,-0.29660034,-0.94223475,1.2568111,-1.983258
1570715037,3.7056274,-8.886673,-4.8847656,-0.8399811,-1.6547546,-1.3043365,-0.5877664,0.42411613,-1.3951099
1570715037,3.5093079,-9.30925,-5.107437,-0.9337311,-1.7303925,-1.2915497,-0.14105892,0.047035217,-2.2807002
1570715037,9.505585,-11.018112,-2.072174,0.42555237,-0.9122772,1.556961,5.316788,-4.6860924,3.3163643
1570715037,9.505585,-11.018112,-2.072174,0.42555237,-0.9122772,1.556961,5.316788,-4.6860924,3.3163643
1570715037,15.488693,-5.8945312,0.07003784,-0.32440186,-3.4156342,-2.745636,13.430768,2.8462257,2.1754076
1570715037,15.488693,-5.8945312,0.07003784,-0.32440186,-3.4156342,-2.745636,13.430768,2.8462257,2.1754076
1570715037,7.629715,-8.892059,-1.5915527,0.83461,0.5290375,-1.5386963,2.9985738,-1.2413082,2.1072247
1570715037,7.629715,-8.892059,-1.5915527,0.83461,0.5290375,-1.5386963,2.9985738,-1.2413082,2.1072247
1570715037,8.161835,-8.864532,-0.1257019,0.004776001,3.2614288,-2.586914,4.3244047,-0.21696281,2.2931798
1570715037,8.161835,-8.864532,-0.1257019,0.004776001,3.2614288,-2.586914,4.3244047,-0.21696281,2.2931798
1570715037,11.102509,-6.704956,-1.5628204,0.2593689,3.153839,-2.7072906,2.6256394,-0.521286,-0.5388386
1570715037,11.102509,-6.704956,-1.5628204,0.2593689,3.153839,-2.7072906,2.6256394,-0.521286,-0.5388386
1570715037,0.2238617,-14.815323,-2.7988281,1.9733734,1.7913666,-2.7786713,-4.8415403,-7.941823,-1.3070678
1570715037,-0.84095764,-15.443802,-2.7988281,1.9733734,1.7913666,-2.7786713,-7.8370323,-9.398629,-2.4592085
1570715037,9.332001,-7.375931,1.9632416,1.3810883,2.227066,-1.0529327,0.5979376,-3.5813637,0.02272737
1570715037,9.332001,-7.375931,1.9632416,1.3810883,2.227066,-1.0529327,0.5979376,-3.5813637,0.02272737
1570715037,6.5056458,-5.072708,0.31843567,1.3256989,1.0744476,0.27331543,-1.8126125,0.06870842,-2.2758584
1570715037,6.5056458,-5.072708,0.31843567,1.3256989,1.0744476,0.27331543,-1.8126125,0.06870842,-2.2758584
1570715037,6.161484,-5.9627533,3.719986,-1.5963287,1.6965637,2.178009,-1.6246428,-1.3478236,-0.4095459
1570715037,6.159683,-5.9627533,3.719986,-1.5963287,1.6965637,2.178009,-1.5386505,-0.94909286,-0.13943172
1570715037,3.810379,-6.335663,1.3838501,-0.58218384,0.8858948,0.2818451,-2.680358,-1.3755655,-2.0229647
1570715037,3.810379,-6.335663,1.3838501,-0.58218384,0.8858948,0.2818451,-2.680358,-1.3755655,-2.0229647
1570715037,4.123413,-6.059723,3.0262756,-1.1425171,-0.27311707,0.6110077,-3.217195,0.04196453,-1.0447035
1570715037,4.123413,-6.059723,3.0262756,-1.1425171,-0.27311707,0.6110077,-3.217195,0.04196453,-1.0447035
1570715038,11.533463,-6.9401855,8.771164,-0.72387695,0.45446777,0.59503174,3.7723641,0.1995225,6.6927447
1570715038,11.533463,-6.9401855,8.771164,-0.72387695,0.45446777,0.59503174,3.7723641,0.1995225,6.6927447
1570715038,8.242645,-8.503006,5.187042,0.39572144,0.31704712,-0.3690338,3.7358832,-2.2353125,4.067605
1570715038,7.1125793,-9.739014,5.474945,0.19544983,0.13381958,0.18702698,0.15463352,-2.357099,2.2056859
1570715038,7.292145,-9.943726,5.0571594,0.21463013,0.19348145,0.16358948,0.48125696,-2.8836646,2.0133264
1570715038,5.806534,-12.655151,1.3138123,0.79733276,0.19667053,0.44163513,0.63185215,-6.007306,-0.47778058
1570715038,6.630142,-11.310211,-0.33398438,0.45324707,-0.19641113,0.8144684,0.32672262,-4.709868,-3.3215206
1570715038,3.2746735,-10.660782,-1.4706421,-0.18165588,-1.1871033,0.01979065,-1.3944082,-5.092572,-5.871374
1570715038,0.73202515,-6.7893524,0.7182617,-0.68125916,-0.8089447,0.825119,-5.737379,0.3501482,-2.4503703
1570715038,1.7399902,-7.1999664,-1.240799,-1.5782166,0.8869629,2.460312,-4.365638,0.50279,-3.8487432
1570715038,1.7399902,-7.1999664,-1.240799,-1.5782166,0.8869629,2.460312,-4.365638,0.50279,-3.8487432
1570715038,3.32016,-8.453934,-0.50457764,-2.8384247,0.8922882,4.6696625,-0.65099764,0.48679733,-2.1897678
1570715038,3.32016,-8.453934,-0.50457764,-2.8384247,0.8922882,4.6696625,-0.65099764,0.48679733,-2.1897678
1570715053,3.32016,-8.453934,-0.50457764,-2.8384247,0.8922882,4.6696625,-0.65099764,0.48679733,-2.1897678
1570715053,3.32016,-8.453934,-0.50457764,-2.8384247,0.8922882,4.6696625,-0.65099764,0.48679733,-2.1897678
1570715053,3.32016,-8.453934,-0.50457764,-2.8384247,0.8922882,4.6696625,-0.65099764,0.48679733,-2.1897678
1570715053,3.32016,-8.453934,-0.50457764,-2.8384247,0.8922882,4.6696625,-0.65099764,0.48679733,-2.1897678
1570715053,3.32016,-8.453934,-0.50457764,-2.8384247,0.8922882,4.6696625,-0.65099764,0.48679733,-2.1897678
1570715053,3.32016,-8.453934,-0.50457764,-2.8384247,0.8922882,4.6696625,-0.65099764,0.48679733,-2.1897678
1570715053,3.32016,-8.453934,-0.50457764,-2.8384247,0.8922882,4.6696625,-0.65099764,0.48679733,-2.1897678
1570715053,3.32016,-8.453934,-0.50457764,-2.8384247,0.8922882,4.6696625,-0.65099764,0.48679733,-2.1897678
1570715053,3.32016,-8.453934,-0.50457764,-2.8384247,0.8922882,4.6696625,-0.65099764,0.48679733,-2.1897678
1570715053,3.32016,-8.453934,-0.50457764,-2.8384247,0.8922882,4.6696625,-0.65099764,0.48679733,-2.1897678
1570715053,3.32016,-8.453934,-0.50457764,-2.8384247,0.8922882,4.6696625,-0.65099764,0.48679733,-2.1897678
1570715053,3.32016,-8.453934,-0.50457764,-2.8384247,0.8922882,4.6696625,-0.65099764,0.48679733,-2.1897678
1570715053,3.32016,-8.453934,-0.50457764,-2.8384247,0.8922882,4.6696625,-0.65099764,0.48679733,-2.1897678
1570715053,3.32016,-8.453934,-0.50457764,-2.8384247,0.8922882,4.6696625,-0.65099764,0.48679733,-2.1897678
1570715053,3.32016,-8.453934,-0.50457764,-2.8384247,0.8922882,4.6696625,-0.65099764,0.48679733,-2.1897678
1570715053,3.32016,-8.453934,-0.50457764,-2.8384247,0.8922882,4.6696625,-0.65099764,0.48679733,-2.1897678
1570715053,3.32016,-8.453934,-0.50457764,-2.8384247,0.8922882,4.6696625,-0.65099764,0.48679733,-2.1897678
1570715053,3.32016,-8.453934,-0.50457764,-2.8384247,0.8922882,4.6696625,-0.65099764,0.48679733,-2.1897678
1570715053,3.32016,-8.453934,-0.50457764,-2.8384247,0.8922882,4.6696625,-0.65099764,0.48679733,-2.1897678
1570715053,3.32016,-8.453934,-0.50457764,-2.8384247,0.8922882,4.6696625,-0.65099764,0.48679733,-2.1897678
1570715053,3.32016,-8.453934,-0.50457764,-2.8384247,0.8922882,4.6696625,-0.65099764,0.48679733,-2.1897678
1570715053,3.32016,-8.453934,-0.50457764,-2.8384247,0.8922882,4.6696625,-0.65099764,0.48679733,-2.1897678
1570715053,3.32016,-8.453934,-0.50457764,-2.8384247,0.8922882,4.6696625,-0.65099764,0.48679733,-2.1897678
1570715053,3.32016,-8.453934,-0.50457764,-2.8384247,0.8922882,4.6696625,-0.65099764,0.48679733,-2.1897678
1570715053,3.32016,-8.453934,-0.50457764,-2.8384247,0.8922882,4.6696625,-0.65099764,0.48679733,-2.1897678
1570715053,3.32016,-8.453934,-0.50457764,-2.8384247,0.8922882,4.6696625,-0.65099764,0.48679733,-2.1897678
1570715053,3.32016,-8.453934,-0.50457764,-2.8384247,0.8922882,4.6696625,-0.65099764,0.48679733,-2.1897678
1570715053,3.32016,-8.453934,-0.50457764,-2.8384247,0.8922882,4.6696625,-0.65099764,0.48679733,-2.1897678
1570715053,3.32016,-8.453934,-0.50457764,-2.8384247,0.8922882,4.6696625,-0.65099764,0.48679733,-2.1897678
1570715053,3.32016,-8.453934,-0.50457764,-2.8384247,0.8922882,4.6696625,-0.65099764,0.48679733,-2.1897678
1570715053,3.32016,-8.453934,-0.50457764,-2.8384247,0.8922882,4.6696625,-0.65099764,0.48679733,-2.1897678
1570715053,3.32016,-8.453934,-0.50457764,-2.8384247,0.8922882,4.6696625,-0.65099764,0.48679733,-2.1897678
1570715053,3.32016,-8.453934,-0.50457764,-2.8384247,0.8922882,4.6696625,-0.65099764,0.48679733,-2.1897678
1570715053,3.32016,-8.453934,-0.50457764,-2.8384247,0.8922882,4.6696625,-0.65099764,0.48679733,-2.1897678
1570715053,3.32016,-8.453934,-0.50457764,-2.8384247,0.8922882,4.6696625,-0.65099764,0.48679733,-2.1897678
1570715053,3.32016,-8.453934,-0.50457764,-2.8384247,0.8922882,4.6696625,-0.65099764,0.48679733,-2.1897678
1570715053,3.32016,-8.453934,-0.50457764,-2.8384247,0.8922882,4.6696625,-0.65099764,0.48679733,-2.1897678
1570715053,3.32016,-8.453934,-0.50457764,-2.8384247,0.8922882,4.6696625,-0.65099764,0.48679733,-2.1897678
1570715053,3.32016,-8.453934,-0.50457764,-2.8384247,0.8922882,4.6696625,-0.65099764,0.48679733,-2.1897678
1570715053,3.32016,-8.453934,-0.50457764,-2.8384247,0.8922882,4.6696625,-0.65099764,0.48679733,-2.1897678
1570715053,3.32016,-8.453934,-0.50457764,-2.8384247,0.8922882,4.6696625,-0.65099764,0.48679733,-2.1897678
1570715053,3.32016,-8.453934,-0.50457764,-2.8384247,0.8922882,4.6696625,-0.65099764,0.48679733,-2.1897678
1570715053,3.32016,-8.453934,-0.50457764,-2.8384247,0.8922882,4.6696625,-0.65099764,0.48679733,-2.1897678
1570715053,3.32016,-8.453934,-0.50457764,-2.8384247,0.8922882,4.6696625,-0.65099764,0.48679733,-2.1897678
1570715053,3.32016,-8.453934,-0.50457764,-2.8384247,0.8922882,4.6696625,-0.65099764,0.48679733,-2.1897678
1570715053,3.32016,-8.453934,-0.50457764,-2.8384247,0.8922882,4.6696625,-0.65099764,0.48679733,-2.1897678
1570715053,3.32016,-8.453934,-0.50457764,-2.8384247,0.8922882,4.6696625,-0.65099764,0.48679733,-2.1897678
1570715053,3.32016,-8.453934,-0.50457764,-2.8384247,0.8922882,4.6696625,-0.65099764,0.48679733,-2.1897678
1570715053,3.32016,-8.453934,-0.50457764,-2.8384247,0.8922882,4.6696625,-0.65099764,0.48679733,-2.1897678
1570715053,3.32016,-8.453934,-0.50457764,-2.8384247,0.8922882,4.6696625,-0.65099764,0.48679733,-2.1897678
1570715053,3.32016,-8.453934,-0.50457764,-2.8384247,0.8922882,4.6696625,-0.65099764,0.48679733,-2.1897678
1570715053,3.32016,-8.453934,-0.50457764,-2.8384247,0.8922882,4.6696625,-0.65099764,0.48679733,-2.1897678
1570715053,3.32016,-8.453934,-0.50457764,-2.8384247,0.8922882,4.6696625,-0.65099764,0.48679733,-2.1897678
1570715053,3.32016,-8.453934,-0.50457764,-2.8384247,0.8922882,4.6696625,-0.65099764,0.48679733,-2.1897678
1570715053,3.32016,-8.453934,-0.50457764,-2.8384247,0.8922882,4.6696625,-0.65099764,0.48679733,-2.1897678
1570715053,3.32016,-8.453934,-0.50457764,-2.8384247,0.8922882,4.6696625,-0.65099764,0.48679733,-2.1897678
1570715053,3.32016,-8.453934,-0.50457764,-2.8384247,0.8922882,4.6696625,-0.65099764,0.48679733,-2.1897678
1570715053,3.32016,-8.453934,-0.50457764,-2.8384247,0.8922882,4.6696625,-0.65099764,0.48679733,-2.1897678
1570715053,3.32016,-8.453934,-0.50457764,-2.8384247,0.8922882,4.6696625,-0.65099764,0.48679733,-2.1897678
1570715053,3.32016,-8.453934,-0.50457764,-2.8384247,0.8922882,4.6696625,-0.65099764,0.48679733,-2.1897678
1570715053,3.32016,-8.453934,-0.50457764,-2.8384247,0.8922882,4.6696625,-0.65099764,0.48679733,-2.1897678
1570715053,3.32016,-8.453934,-0.50457764,-2.8384247,0.8922882,4.6696625,-0.65099764,0.48679733,-2.1897678
1570715053,3.32016,-8.453934,-0.50457764,-2.8384247,0.8922882,4.6696625,-0.65099764,0.48679733,-2.1897678
1570715053,3.32016,-8.453934,-0.50457764,-2.8384247,0.8922882,4.6696625,-0.65099764,0.48679733,-2.1897678
1570715053,3.32016,-8.453934,-0.50457764,-2.8384247,0.8922882,4.6696625,-0.65099764,0.48679733,-2.1897678
1570715053,3.32016,-8.453934,-0.50457764,-2.8384247,0.8922882,4.6696625,-0.65099764,0.48679733,-2.1897678
1570715053,3.32016,-8.453934,-0.50457764,-2.8384247,0.8922882,4.6696625,-0.65099764,0.48679733,-2.1897678
1570715053,3.32016,-8.453934,-0.50457764,-2.8384247,0.8922882,4.6696625,-0.65099764,0.48679733,-2.1897678
1570715053,3.32016,-8.453934,-0.50457764,-2.8384247,0.8922882,4.6696625,-0.65099764,0.48679733,-2.1897678
1570715053,3.32016,-8.453934,-0.50457764,-2.8384247,0.8922882,4.6696625,-0.65099764,0.48679733,-2.1897678
1570715053,3.32016,-8.453934,-0.50457764,-2.8384247,0.8922882,4.6696625,-0.65099764,0.48679733,-2.1897678
1570715053,3.32016,-8.453934,-0.50457764,-2.8384247,0.8922882,4.6696625,-0.65099764,0.48679733,-2.1897678
1570715053,3.32016,-8.453934,-0.50457764,-2.8384247,0.8922882,4.6696625,-0.65099764,0.48679733,-2.1897678
1570715053,3.32016,-8.453934,-0.50457764,-2.8384247,0.8922882,4.6696625,-0.65099764,0.48679733,-2.1897678
1570715053,3.32016,-8.453934,-0.50457764,-2.8384247,0.8922882,4.6696625,-0.65099764,0.48679733,-2.1897678
1570715053,3.32016,-8.453934,-0.50457764,-2.8384247,0.8922882,4.6696625,-0.65099764,0.48679733,-2.1897678
1570715053,3.32016,-8.453934,-0.50457764,-2.8384247,0.8922882,4.6696625,-0.65099764,0.48679733,-2.1897678
1570715053,3.32016,-8.453934,-0.50457764,-2.8384247,0.8922882,4.6696625,-0.65099764,0.48679733,-2.1897678
1570715053,3.32016,-8.453934,-0.50457764,-2.8384247,0.8922882,4.6696625,-0.65099764,0.48679733,-2.1897678
1570715053,3.32016,-8.453934,-0.50457764,-2.8384247,0.8922882,4.6696625,-0.65099764,0.48679733,-2.1897678
1570715053,3.32016,-8.453934,-0.50457764,-2.8384247,0.8922882,4.6696625,-0.65099764,0.48679733,-2.1897678
1570715053,3.32016,-8.453934,-0.50457764,-2.8384247,0.8922882,4.6696625,-0.65099764,0.48679733,-2.1897678
1570715053,3.32016,-8.453934,-0.50457764,-2.8384247,0.8922882,4.6696625,-0.65099764,0.48679733,-2.1897678
1570715053,3.32016,-8.453934,-0.50457764,-2.8384247,0.8922882,4.6696625,-0.65099764,0.48679733,-2.1897678
1570715053,3.32016,-8.453934,-0.50457764,-2.8384247,0.8922882,4.6696625,-0.65099764,0.48679733,-2.1897678
1570715053,3.32016,-8.453934,-0.50457764,-2.8384247,0.8922882,4.6696625,-0.65099764,0.48679733,-2.1897678
1570715053,3.32016,-8.453934,-0.50457764,-2.8384247,0.8922882,4.6696625,-0.65099764,0.48679733,-2.1897678
1570715053,3.32016,-8.453934,-0.50457764,-2.8384247,0.8922882,4.6696625,-0.65099764,0.48679733,-2.1897678
1570715053,3.32016,-8.453934,-0.50457764,-2.8384247,0.8922882,4.6696625,-0.65099764,0.48679733,-2.1897678
1570715053,3.32016,-8.453934,-0.50457764,-2.8384247,0.8922882,4.6696625,-0.65099764,0.48679733,-2.1897678
1570715053,3.32016,-8.453934,-0.50457764,-2.8384247,0.8922882,4.6696625,-0.65099764,0.48679733,-2.1897678
1570715053,3.32016,-8.453934,-0.50457764,-2.8384247,0.8922882,4.6696625,-0.65099764,0.48679733,-2.1897678
1570715053,3.32016,-8.453934,-0.50457764,-2.8384247,0.8922882,4.6696625,-0.65099764,0.48679733,-2.1897678
1570715053,3.32016,-8.453934,-0.50457764,-2.8384247,0.8922882,4.6696625,-0.65099764,0.48679733,-2.1897678
1570715053,3.32016,-8.453934,-0.50457764,-2.8384247,0.8922882,4.6696625,-0.65099764,0.48679733,-2.1897678
1570715053,3.32016,-8.453934,-0.50457764,-2.8384247,0.8922882,4.6696625,-0.65099764,0.48679733,-2.1897678
1570715053,3.32016,-8.453934,-0.50457764,-2.8384247,0.8922882,4.6696625,-0.65099764,0.48679733,-2.1897678
1570715053,3.32016,-8.453934,-0.50457764,-2.8384247,0.8922882,4.6696625,-0.65099764,0.48679733,-2.1897678
1570715053,3.32016,-8.453934,-0.50457764,-2.8384247,0.8922882,4.6696625,-0.65099764,0.48679733,-2.1897678
1570715053,3.32016,-8.453934,-0.50457764,-2.8384247,0.8922882,4.6696625,-0.65099764,0.48679733,-2.1897678
1570715053,3.32016,-8.453934,-0.50457764,-2.8384247,0.8922882,4.6696625,-0.65099764,0.48679733,-2.1897678
1570715053,3.32016,-8.453934,-0.50457764,-2.8384247,0.8922882,4.6696625,-0.65099764,0.48679733,-2.1897678
1570715053,3.32016,-8.453934,-0.50457764,-2.8384247,0.8922882,4.6696625,-0.65099764,0.48679733,-2.1897678
1570715053,3.32016,-8.453934,-0.50457764,-2.8384247,0.8922882,4.6696625,-0.65099764,0.48679733,-2.1897678
1570715053,3.32016,-8.453934,-0.50457764,-2.8384247,0.8922882,4.6696625,-0.65099764,0.48679733,-2.1897678
1570715053,3.32016,-8.453934,-0.50457764,-2.8384247,0.8922882,4.6696625,-0.65099764,0.48679733,-2.1897678
1570715053,3.32016,-8.453934,-0.50457764,-2.8384247,0.8922882,4.6696625,-0.65099764,0.48679733,-2.1897678
1570715053,3.32016,-8.453934,-0.50457764,-2.8384247,0.8922882,4.6696625,-0.65099764,0.48679733,-2.1897678
1570715053,3.32016,-8.453934,-0.50457764,-2.8384247,0.8922882,4.6696625,-0.65099764,0.48679733,-2.1897678
1570715053,3.32016,-8.453934,-0.50457764,-2.8384247,0.8922882,4.6696625,-0.65099764,0.48679733,-2.1897678
1570715053,3.32016,-8.453934,-0.50457764,-2.8384247,0.8922882,4.6696625,-0.65099764,0.48679733,-2.1897678
1570715053,3.32016,-8.453934,-0.50457764,-2.8384247,0.8922882,4.6696625,-0.65099764,0.48679733,-2.1897678
1570715053,3.32016,-8.453934,-0.50457764,-2.8384247,0.8922882,4.6696625,-0.65099764,0.48679733,-2.1897678
1570715053,3.32016,-8.453934,-0.50457764,-2.8384247,0.8922882,4.6696625,-0.65099764,0.48679733,-2.1897678
1570715053,3.32016,-8.453934,-0.50457764,-2.8384247,0.8922882,4.6696625,-0.65099764,0.48679733,-2.1897678
1570715053,3.32016,-8.453934,-0.50457764,-2.8384247,0.8922882,4.6696625,-0.65099764,0.48679733,-2.1897678
1570715053,3.32016,-8.453934,-0.50457764,-2.8384247,0.8922882,4.6696625,-0.65099764,0.48679733,-2.1897678
1570715053,3.32016,-8.453934,-0.50457764,-2.8384247,0.8922882,4.6696625,-0.65099764,0.48679733,-2.1897678
1570715053,3.32016,-8.453934,-0.50457764,-2.8384247,0.8922882,4.6696625,-0.65099764,0.48679733,-2.1897678
1570715053,3.32016,-8.453934,-0.50457764,-2.8384247,0.8922882,4.6696625,-0.65099764,0.48679733,-2.1897678
1570715053,3.32016,-8.453934,-0.50457764,-2.8384247,0.8922882,4.6696625,-0.65099764,0.48679733,-2.1897678
1570715053,3.32016,-8.453934,-0.50457764,-2.8384247,0.8922882,4.6696625,-0.65099764,0.48679733,-2.1897678
1570715053,3.32016,-8.453934,-0.50457764,-2.8384247,0.8922882,4.6696625,-0.65099764,0.48679733,-2.1897678
1570715053,3.32016,-8.453934,-0.50457764,-2.8384247,0.8922882,4.6696625,-0.65099764,0.48679733,-2.1897678
1570715053,3.32016,-8.453934,-0.50457764,-2.8384247,0.8922882,4.6696625,-0.65099764,0.48679733,-2.1897678
1570715053,3.32016,-8.453934,-0.50457764,-2.8384247,0.8922882,4.6696625,-0.65099764,0.48679733,-2.1897678
1570715053,3.32016,-8.453934,-0.50457764,-2.8384247,0.8922882,4.6696625,-0.65099764,0.48679733,-2.1897678
1570715053,3.32016,-8.453934,-0.50457764,-2.8384247,0.8922882,4.6696625,-0.65099764,0.48679733,-2.1897678
1570715053,3.32016,-8.453934,-0.50457764,-2.8384247,0.8922882,4.6696625,-0.65099764,0.48679733,-2.1897678
1570715053,3.32016,-8.453934,-0.50457764,-2.8384247,0.8922882,4.6696625,-0.65099764,0.48679733,-2.1897678
1570715053,3.32016,-8.453934,-0.50457764,-2.8384247,0.8922882,4.6696625,-0.65099764,0.48679733,-2.1897678
1570715053,3.32016,-8.453934,-0.50457764,-2.8384247,0.8922882,4.6696625,-0.65099764,0.48679733,-2.1897678
1570715053,3.32016,-8.453934,-0.50457764,-2.8384247,0.8922882,4.6696625,-0.65099764,0.48679733,-2.1897678
1570715053,3.32016,-8.453934,-0.50457764,-2.8384247,0.8922882,4.6696625,-0.65099764,0.48679733,-2.1897678
1570715053,3.32016,-8.453934,-0.50457764,-2.8384247,0.8922882,4.6696625,-0.65099764,0.48679733,-2.1897678
1570715053,3.32016,-8.453934,-0.50457764,-2.8384247,0.8922882,4.6696625,-0.65099764,0.48679733,-2.1897678
1570715053,3.32016,-8.453934,-0.50457764,-2.8384247,0.8922882,4.6696625,-0.65099764,0.48679733,-2.1897678
1570715053,3.32016,-8.453934,-0.50457764,-2.8384247,0.8922882,4.6696625,-0.65099764,0.48679733,-2.1897678
1570715053,3.32016,-8.453934,-0.50457764,-2.8384247,0.8922882,4.6696625,-0.65099764,0.48679733,-2.1897678
1570715053,3.32016,-8.453934,-0.50457764,-2.8384247,0.8922882,4.6696625,-0.65099764,0.48679733,-2.1897678
1570715053,3.32016,-8.453934,-0.50457764,-2.8384247,0.8922882,4.6696625,-0.65099764,0.48679733,-2.1897678
1570715053,3.32016,-8.453934,-0.50457764,-2.8384247,0.8922882,4.6696625,-0.65099764,0.48679733,-2.1897678
1570715053,3.32016,-8.453934,-0.50457764,-2.8384247,0.8922882,4.6696625,-0.65099764,0.48679733,-2.1897678
1570715053,3.32016,-8.453934,-0.50457764,-2.8384247,0.8922882,4.6696625,-0.65099764,0.48679733,-2.1897678
1570715053,3.32016,-8.453934,-0.50457764,-2.8384247,0.8922882,4.6696625,-0.65099764,0.48679733,-2.1897678
1570715053,3.32016,-8.453934,-0.50457764,-2.8384247,0.8922882,4.6696625,-0.65099764,0.48679733,-2.1897678
1570715053,3.32016,-8.453934,-0.50457764,-2.8384247,0.8922882,4.6696625,-0.65099764,0.48679733,-2.1897678
1570715053,3.32016,-8.453934,-0.50457764,-2.8384247,0.8922882,4.6696625,-0.65099764,0.48679733,-2.1897678
1570715053,3.32016,-8.453934,-0.50457764,-2.8384247,0.8922882,4.6696625,-0.65099764,0.48679733,-2.1897678
1570715053,3.32016,-8.453934,-0.50457764,-2.8384247,0.8922882,4.6696625,-0.65099764,0.48679733,-2.1897678
1570715053,3.32016,-8.453934,-0.50457764,-2.8384247,0.8922882,4.6696625,-0.65099764,0.48679733,-2.1897678
1570715053,3.32016,-8.453934,-0.50457764,-2.8384247,0.8922882,4.6696625,-0.65099764,0.48679733,-2.1897678
1570715053,3.32016,-8.453934,-0.50457764,-2.8384247,0.8922882,4.6696625,-0.65099764,0.48679733,-2.1897678
1570715053,3.32016,-8.453934,-0.50457764,-2.8384247,0.8922882,4.6696625,-0.65099764,0.48679733,-2.1897678
1570715053,3.32016,-8.453934,-0.50457764,-2.8384247,0.8922882,4.6696625,-0.65099764,0.48679733,-2.1897678
1570715053,3.32016,-8.453934,-0.50457764,-2.8384247,0.8922882,4.6696625,-0.65099764,0.48679733,-2.1897678
1570715053,3.32016,-8.453934,-0.50457764,-2.8384247,0.8922882,4.6696625,-0.65099764,0.48679733,-2.1897678
1570715053,3.32016,-8.453934,-0.50457764,-2.8384247,0.8922882,4.6696625,-0.65099764,0.48679733,-2.1897678
1570715053,3.32016,-8.453934,-0.50457764,-2.8384247,0.8922882,4.6696625,-0.65099764,0.48679733,-2.1897678
1570715053,3.32016,-8.453934,-0.50457764,-2.8384247,0.8922882,4.6696625,-0.65099764,0.48679733,-2.1897678
1570715053,3.32016,-8.453934,-0.50457764,-2.8384247,0.8922882,4.6696625,-0.65099764,0.48679733,-2.1897678
1570715053,3.32016,-8.453934,-0.50457764,-2.8384247,0.8922882,4.6696625,-0.65099764,0.48679733,-2.1897678
1570715053,3.32016,-8.453934,-0.50457764,-2.8384247,0.8922882,4.6696625,-0.65099764,0.48679733,-2.1897678
1570715053,3.32016,-8.453934,-0.50457764,-2.8384247,0.8922882,4.6696625,-0.65099764,0.48679733,-2.1897678
1570715053,3.32016,-8.453934,-0.50457764,-2.8384247,0.8922882,4.6696625,-0.65099764,0.48679733,-2.1897678
1570715053,3.32016,-8.453934,-0.50457764,-2.8384247,0.8922882,4.6696625,-0.65099764,0.48679733,-2.1897678
1570715053,3.32016,-8.453934,-0.50457764,-2.8384247,0.8922882,4.6696625,-0.65099764,0.48679733,-2.1897678
1570715053,3.32016,-8.453934,-0.50457764,-2.8384247,0.8922882,4.6696625,-0.65099764,0.48679733,-2.1897678
1570715053,3.32016,-8.453934,-0.50457764,-2.8384247,0.8922882,4.6696625,-0.65099764,0.48679733,-2.1897678
1570715053,3.32016,-8.453934,-0.50457764,-2.8384247,0.8922882,4.6696625,-0.65099764,0.48679733,-2.1897678
1570715053,3.32016,-8.453934,-0.50457764,-2.8384247,0.8922882,4.6696625,-0.65099764,0.48679733,-2.1897678
1570715053,3.32016,-8.453934,-0.50457764,-2.8384247,0.8922882,4.6696625,-0.65099764,0.48679733,-2.1897678
1570715053,3.32016,-8.453934,-0.50457764,-2.8384247,0.8922882,4.6696625,-0.65099764,0.48679733,-2.1897678
1570715053,3.32016,-8.453934,-0.50457764,-2.8384247,0.8922882,4.6696625,-0.65099764,0.48679733,-2.1897678
1570715053,3.32016,-8.453934,-0.50457764,-2.8384247,0.8922882,4.6696625,-0.65099764,0.48679733,-2.1897678
1570715053,3.32016,-8.453934,-0.50457764,-2.8384247,0.8922882,4.6696625,-0.65099764,0.48679733,-2.1897678
1570715053,3.32016,-8.453934,-0.50457764,-2.8384247,0.8922882,4.6696625,-0.65099764,0.48679733,-2.1897678
1570715053,3.32016,-8.453934,-0.50457764,-2.8384247,0.8922882,4.6696625,-0.65099764,0.48679733,-2.1897678
1570715053,3.32016,-8.453934,-0.50457764,-2.8384247,0.8922882,4.6696625,-0.65099764,0.48679733,-2.1897678
1570715053,3.32016,-8.453934,-0.50457764,-2.8384247,0.8922882,4.6696625,-0.65099764,0.48679733,-2.1897678
1570715053,3.32016,-8.453934,-0.50457764,-2.8384247,0.8922882,4.6696625,-0.65099764,0.48679733,-2.1897678
1570715053,3.32016,-8.453934,-0.50457764,-2.8384247,0.8922882,4.6696625,-0.65099764,0.48679733,-2.1897678
1570715053,3.32016,-8.453934,-0.50457764,-2.8384247,0.8922882,4.6696625,-0.65099764,0.48679733,-2.1897678
1570715053,3.32016,-8.453934,-0.50457764,-2.8384247,0.8922882,4.6696625,-0.65099764,0.48679733,-2.1897678
1570715053,3.32016,-8.453934,-0.50457764,-2.8384247,0.8922882,4.6696625,-0.65099764,0.48679733,-2.1897678
1570715053,3.32016,-8.453934,-0.50457764,-2.8384247,0.8922882,4.6696625,-0.65099764,0.48679733,-2.1897678
1570715053,3.32016,-8.453934,-0.50457764,-2.8384247,0.8922882,4.6696625,-0.65099764,0.48679733,-2.1897678
1570715053,3.32016,-8.453934,-0.50457764,-2.8384247,0.8922882,4.6696625,-0.65099764,0.48679733,-2.1897678
1570715053,3.32016,-8.453934,-0.50457764,-2.8384247,0.8922882,4.6696625,-0.65099764,0.48679733,-2.1897678
1570715053,3.32016,-8.453934,-0.50457764,-2.8384247,0.8922882,4.6696625,-0.65099764,0.48679733,-2.1897678
1570715053,3.32016,-8.453934,-0.50457764,-2.8384247,0.8922882,4.6696625,-0.65099764,0.48679733,-2.1897678
1570715053,3.32016,-8.453934,-0.50457764,-2.8384247,0.8922882,4.6696625,-0.65099764,0.48679733,-2.1897678
1570715053,3.32016,-8.453934,-0.50457764,-2.8384247,0.8922882,4.6696625,-0.65099764,0.48679733,-2.1897678
1570715053,3.32016,-8.453934,-0.50457764,-2.8384247,0.8922882,4.6696625,-0.65099764,0.48679733,-2.1897678
1570715053,3.32016,-8.453934,-0.50457764,-2.8384247,0.8922882,4.6696625,-0.65099764,0.48679733,-2.1897678
1570715053,3.32016,-8.453934,-0.50457764,-2.8384247,0.8922882,4.6696625,-0.65099764,0.48679733,-2.1897678
1570715053,3.32016,-8.453934,-0.50457764,-2.8384247,0.8922882,4.6696625,-0.65099764,0.48679733,-2.1897678
1570715053,3.32016,-8.453934,-0.50457764,-2.8384247,0.8922882,4.6696625,-0.65099764,0.48679733,-2.1897678
1570715053,3.32016,-8.453934,-0.50457764,-2.8384247,0.8922882,4.6696625,-0.65099764,0.48679733,-2.1897678
1570715053,3.32016,-8.453934,-0.50457764,-2.8384247,0.8922882,4.6696625,-0.65099764,0.48679733,-2.1897678
1570715053,3.32016,-8.453934,-0.50457764,-2.8384247,0.8922882,4.6696625,-0.65099764,0.48679733,-2.1897678
1570715053,3.32016,-8.453934,-0.50457764,-2.8384247,0.8922882,4.6696625,-0.65099764,0.48679733,-2.1897678
1570715053,3.32016,-8.453934,-0.50457764,-2.8384247,0.8922882,4.6696625,-0.65099764,0.48679733,-2.1897678
1570715053,3.32016,-8.453934,-0.50457764,-2.8384247,0.8922882,4.6696625,-0.65099764,0.48679733,-2.1897678
1570715053,3.32016,-8.453934,-0.50457764,-2.8384247,0.8922882,4.6696625,-0.65099764,0.48679733,-2.1897678
1570715053,3.32016,-8.453934,-0.50457764,-2.8384247,0.8922882,4.6696625,-0.65099764,0.48679733,-2.1897678
1570715053,3.32016,-8.453934,-0.50457764,-2.8384247,0.8922882,4.6696625,-0.65099764,0.48679733,-2.1897678
1570715053,3.32016,-8.453934,-0.50457764,-2.8384247,0.8922882,4.6696625,-0.65099764,0.48679733,-2.1897678
1570715053,3.32016,-8.453934,-0.50457764,-2.8384247,0.8922882,4.6696625,-0.65099764,0.48679733,-2.1897678
1570715053,3.32016,-8.453934,-0.50457764,-2.8384247,0.8922882,4.6696625,-0.65099764,0.48679733,-2.1897678
1570715053,3.32016,-8.453934,-0.50457764,-2.8384247,0.8922882,4.6696625,-0.65099764,0.48679733,-2.1897678
1570715053,3.32016,-8.453934,-0.50457764,-2.8384247,0.8922882,4.6696625,-0.65099764,0.48679733,-2.1897678
1570715053,3.32016,-8.453934,-0.50457764,-2.8384247,0.8922882,4.6696625,-0.65099764,0.48679733,-2.1897678
1570715053,3.32016,-8.453934,-0.50457764,-2.8384247,0.8922882,4.6696625,-0.65099764,0.48679733,-2.1897678
1570715053,3.32016,-8.453934,-0.50457764,-2.8384247,0.8922882,4.6696625,-0.65099764,0.48679733,-2.1897678
1570715053,3.32016,-8.453934,-0.50457764,-2.8384247,0.8922882,4.6696625,-0.65099764,0.48679733,-2.1897678
1570715053,3.32016,-8.453934,-0.50457764,-2.8384247,0.8922882,4.6696625,-0.65099764,0.48679733,-2.1897678
1570715053,3.32016,-8.453934,-0.50457764,-2.8384247,0.8922882,4.6696625,-0.65099764,0.48679733,-2.1897678
1570715053,3.32016,-8.453934,-0.50457764,-2.8384247,0.8922882,4.6696625,-0.65099764,0.48679733,-2.1897678
1570715053,3.32016,-8.453934,-0.50457764,-2.8384247,0.8922882,4.6696625,-0.65099764,0.48679733,-2.1897678
1570715053,3.32016,-8.453934,-0.50457764,-2.8384247,0.8922882,4.6696625,-0.65099764,0.48679733,-2.1897678
1570715053,3.32016,-8.453934,-0.50457764,-2.8384247,0.8922882,4.6696625,-0.65099764,0.48679733,-2.1897678
1570715053,3.32016,-8.453934,-0.50457764,-2.8384247,0.8922882,4.6696625,-0.65099764,0.48679733,-2.1897678
1570715053,3.32016,-8.453934,-0.50457764,-2.8384247,0.8922882,4.6696625,-0.65099764,0.48679733,-2.1897678
1570715053,3.32016,-8.453934,-0.50457764,-2.8384247,0.8922882,4.6696625,-0.65099764,0.48679733,-2.1897678
1570715053,3.32016,-8.453934,-0.50457764,-2.8384247,0.8922882,4.6696625,-0.65099764,0.48679733,-2.1897678
1570715053,3.32016,-8.453934,-0.50457764,-2.8384247,0.8922882,4.6696625,-0.65099764,0.48679733,-2.1897678
1570715053,3.32016,-8.453934,-0.50457764,-2.8384247,0.8922882,4.6696625,-0.65099764,0.48679733,-2.1897678
1570715053,3.32016,-8.453934,-0.50457764,-2.8384247,0.8922882,4.6696625,-0.65099764,0.48679733,-2.1897678
1570715053,3.32016,-8.453934,-0.50457764,-2.8384247,0.8922882,4.6696625,-0.65099764,0.48679733,-2.1897678
1570715053,3.32016,-8.453934,-0.50457764,-2.8384247,0.8922882,4.6696625,-0.65099764,0.48679733,-2.1897678
1570715053,3.32016,-8.453934,-0.50457764,-2.8384247,0.8922882,4.6696625,-0.65099764,0.48679733,-2.1897678
1570715053,3.32016,-8.453934,-0.50457764,-2.8384247,0.8922882,4.6696625,-0.65099764,0.48679733,-2.1897678
1570715053,3.32016,-8.453934,-0.50457764,-2.8384247,0.8922882,4.6696625,-0.65099764,0.48679733,-2.1897678
1570715053,3.32016,-8.453934,-0.50457764,-2.8384247,0.8922882,4.6696625,-0.65099764,0.48679733,-2.1897678
1570715053,3.32016,-8.453934,-0.50457764,-2.8384247,0.8922882,4.6696625,-0.65099764,0.48679733,-2.1897678
1570715053,3.32016,-8.453934,-0.50457764,-2.8384247,0.8922882,4.6696625,-0.65099764,0.48679733,-2.1897678
1570715053,3.32016,-8.453934,-0.50457764,-2.8384247,0.8922882,4.6696625,-0.65099764,0.48679733,-2.1897678
1570715053,3.32016,-8.453934,-0.50457764,-2.8384247,0.8922882,4.6696625,-0.65099764,0.48679733,-2.1897678
1570715053,3.32016,-8.453934,-0.50457764,-2.8384247,0.8922882,4.6696625,-0.65099764,0.48679733,-2.1897678
1570715053,3.32016,-8.453934,-0.50457764,-2.8384247,0.8922882,4.6696625,-0.65099764,0.48679733,-2.1897678
1570715053,3.32016,-8.453934,-0.50457764,-2.8384247,0.8922882,4.6696625,-0.65099764,0.48679733,-2.1897678
1570715053,3.32016,-8.453934,-0.50457764,-2.8384247,0.8922882,4.6696625,-0.65099764,0.48679733,-2.1897678
1570715053,3.32016,-8.453934,-0.50457764,-2.8384247,0.8922882,4.6696625,-0.65099764,0.48679733,-2.1897678
1570715053,3.32016,-8.453934,-0.50457764,-2.8384247,0.8922882,4.6696625,-0.65099764,0.48679733,-2.1897678
1570715053,3.32016,-8.453934,-0.50457764,-2.8384247,0.8922882,4.6696625,-0.65099764,0.48679733,-2.1897678
1570715053,3.32016,-8.453934,-0.50457764,-2.8384247,0.8922882,4.6696625,-0.65099764,0.48679733,-2.1897678
1570715053,3.32016,-8.453934,-0.50457764,-2.8384247,0.8922882,4.6696625,-0.65099764,0.48679733,-2.1897678
1570715053,3.32016,-8.453934,-0.50457764,-2.8384247,0.8922882,4.6696625,-0.65099764,0.48679733,-2.1897678
1570715053,3.32016,-8.453934,-0.50457764,-2.8384247,0.8922882,4.6696625,-0.65099764,0.48679733,-2.1897678
1570715053,3.32016,-8.453934,-0.50457764,-2.8384247,0.8922882,4.6696625,-0.65099764,0.48679733,-2.1897678
1570715053,3.32016,-8.453934,-0.50457764,-2.8384247,0.8922882,4.6696625,-0.65099764,0.48679733,-2.1897678
1570715053,3.32016,-8.453934,-0.50457764,-2.8384247,0.8922882,4.6696625,-0.65099764,0.48679733,-2.1897678
1570715053,3.32016,-8.453934,-0.50457764,-2.8384247,0.8922882,4.6696625,-0.65099764,0.48679733,-2.1897678
1570715053,3.32016,-8.453934,-0.50457764,-2.8384247,0.8922882,4.6696625,-0.65099764,0.48679733,-2.1897678
1570715053,3.32016,-8.453934,-0.50457764,-2.8384247,0.8922882,4.6696625,-0.65099764,0.48679733,-2.1897678
1570715053,3.32016,-8.453934,-0.50457764,-2.8384247,0.8922882,4.6696625,-0.65099764,0.48679733,-2.1897678
1570715053,3.32016,-8.453934,-0.50457764,-2.8384247,0.8922882,4.6696625,-0.65099764,0.48679733,-2.1897678
1570715053,3.32016,-8.453934,-0.50457764,-2.8384247,0.8922882,4.6696625,-0.65099764,0.48679733,-2.1897678
1570715053,3.32016,-8.453934,-0.50457764,-2.8384247,0.8922882,4.6696625,-0.65099764,0.48679733,-2.1897678
1570715053,3.32016,-8.453934,-0.50457764,-2.8384247,0.8922882,4.6696625,-0.65099764,0.48679733,-2.1897678
1570715053,3.32016,-8.453934,-0.50457764,-2.8384247,0.8922882,4.6696625,-0.65099764,0.48679733,-2.1897678
1570715053,3.32016,-8.453934,-0.50457764,-2.8384247,0.8922882,4.6696625,-0.65099764,0.48679733,-2.1897678
1570715053,3.32016,-8.453934,-0.50457764,-2.8384247,0.8922882,4.6696625,-0.65099764,0.48679733,-2.1897678
1570715053,3.32016,-8.453934,-0.50457764,-2.8384247,0.8922882,4.6696625,-0.65099764,0.48679733,-2.1897678
1570715053,3.32016,-8.453934,-0.50457764,-2.8384247,0.8922882,4.6696625,-0.65099764,0.48679733,-2.1897678
1570715053,3.32016,-8.453934,-0.50457764,-2.8384247,0.8922882,4.6696625,-0.65099764,0.48679733,-2.1897678
1570715053,3.32016,-8.453934,-0.50457764,-2.8384247,0.8922882,4.6696625,-0.65099764,0.48679733,-2.1897678
1570715053,3.32016,-8.453934,-0.50457764,-2.8384247,0.8922882,4.6696625,-0.65099764,0.48679733,-2.1897678
1570715053,3.32016,-8.453934,-0.50457764,-2.8384247,0.8922882,4.6696625,-0.65099764,0.48679733,-2.1897678
1570715053,3.32016,-8.453934,-0.50457764,-2.8384247,0.8922882,4.6696625,-0.65099764,0.48679733,-2.1897678
1570715053,3.32016,-8.453934,-0.50457764,-2.8384247,0.8922882,4.6696625,-0.65099764,0.48679733,-2.1897678
1570715053,3.32016,-8.453934,-0.50457764,-2.8384247,0.8922882,4.6696625,-0.65099764,0.48679733,-2.1897678
1570715053,3.32016,-8.453934,-0.50457764,-2.8384247,0.8922882,4.6696625,-0.65099764,0.48679733,-2.1897678
1570715053,3.32016,-8.453934,-0.50457764,-2.8384247,0.8922882,4.6696625,-0.65099764,0.48679733,-2.1897678
1570715053,3.32016,-8.453934,-0.50457764,-2.8384247,0.8922882,4.6696625,-0.65099764,0.48679733,-2.1897678
1570715053,3.32016,-8.453934,-0.50457764,-2.8384247,0.8922882,4.6696625,-0.65099764,0.48679733,-2.1897678
1570715053,3.32016,-8.453934,-0.50457764,-2.8384247,0.8922882,4.6696625,-0.65099764,0.48679733,-2.1897678
1570715053,3.32016,-8.453934,-0.50457764,-2.8384247,0.8922882,4.6696625,-0.65099764,0.48679733,-2.1897678
1570715053,3.32016,-8.453934,-0.50457764,-2.8384247,0.8922882,4.6696625,-0.65099764,0.48679733,-2.1897678
1570715053,3.32016,-8.453934,-0.50457764,-2.8384247,0.8922882,4.6696625,-0.65099764,0.48679733,-2.1897678
1570715053,3.32016,-8.453934,-0.50457764,-2.8384247,0.8922882,4.6696625,-0.65099764,0.48679733,-2.1897678
1570715053,3.32016,-8.453934,-0.50457764,-2.8384247,0.8922882,4.6696625,-0.65099764,0.48679733,-2.1897678
1570715053,3.32016,-8.453934,-0.50457764,-2.8384247,0.8922882,4.6696625,-0.65099764,0.48679733,-2.1897678
1570715053,3.32016,-8.453934,-0.50457764,-2.8384247,0.8922882,4.6696625,-0.65099764,0.48679733,-2.1897678
1570715053,3.32016,-8.453934,-0.50457764,-2.8384247,0.8922882,4.6696625,-0.65099764,0.48679733,-2.1897678
1570715053,3.32016,-8.453934,-0.50457764,-2.8384247,0.8922882,4.6696625,-0.65099764,0.48679733,-2.1897678
1570715053,3.32016,-8.453934,-0.50457764,-2.8384247,0.8922882,4.6696625,-0.65099764,0.48679733,-2.1897678
1570715053,3.32016,-8.453934,-0.50457764,-2.8384247,0.8922882,4.6696625,-0.65099764,0.48679733,-2.1897678
1570715053,3.32016,-8.453934,-0.50457764,-2.8384247,0.8922882,4.6696625,-0.65099764,0.48679733,-2.1897678
1570715053,3.32016,-8.453934,-0.50457764,-2.8384247,0.8922882,4.6696625,-0.65099764,0.48679733,-2.1897678
1570715053,3.32016,-8.453934,-0.50457764,-2.8384247,0.8922882,4.6696625,-0.65099764,0.48679733,-2.1897678
1570715053,3.32016,-8.453934,-0.50457764,-2.8384247,0.8922882,4.6696625,-0.65099764,0.48679733,-2.1897678
1570715053,3.32016,-8.453934,-0.50457764,-2.8384247,0.8922882,4.6696625,-0.65099764,0.48679733,-2.1897678
1570715053,3.32016,-8.453934,-0.50457764,-2.8384247,0.8922882,4.6696625,-0.65099764,0.48679733,-2.1897678
1570715053,3.32016,-8.453934,-0.50457764,-2.8384247,0.8922882,4.6696625,-0.65099764,0.48679733,-2.1897678
1570715053,3.32016,-8.453934,-0.50457764,-2.8384247,0.8922882,4.6696625,-0.65099764,0.48679733,-2.1897678
1570715053,3.32016,-8.453934,-0.50457764,-2.8384247,0.8922882,4.6696625,-0.65099764,0.48679733,-2.1897678
1570715053,3.32016,-8.453934,-0.50457764,-2.8384247,0.8922882,4.6696625,-0.65099764,0.48679733,-2.1897678
1570715053,3.32016,-8.453934,-0.50457764,-2.8384247,0.8922882,4.6696625,-0.65099764,0.48679733,-2.1897678
1570715053,3.32016,-8.453934,-0.50457764,-2.8384247,0.8922882,4.6696625,-0.65099764,0.48679733,-2.1897678
1570715053,3.32016,-8.453934,-0.50457764,-2.8384247,0.8922882,4.6696625,-0.65099764,0.48679733,-2.1897678
1570715053,3.32016,-8.453934,-0.50457764,-2.8384247,0.8922882,4.6696625,-0.65099764,0.48679733,-2.1897678
1570715053,3.32016,-8.453934,-0.50457764,-2.8384247,0.8922882,4.6696625,-0.65099764,0.48679733,-2.1897678
1570715053,3.32016,-8.453934,-0.50457764,-2.8384247,0.8922882,4.6696625,-0.65099764,0.48679733,-2.1897678
1570715053,3.32016,-8.453934,-0.50457764,-2.8384247,0.8922882,4.6696625,-0.65099764,0.48679733,-2.1897678
1570715053,3.32016,-8.453934,-0.50457764,-2.8384247,0.8922882,4.6696625,-0.65099764,0.48679733,-2.1897678
1570715053,3.32016,-8.453934,-0.50457764,-2.8384247,0.8922882,4.6696625,-0.65099764,0.48679733,-2.1897678
1570715053,3.32016,-8.453934,-0.50457764,-2.8384247,0.8922882,4.6696625,-0.65099764,0.48679733,-2.1897678
1570715053,3.32016,-8.453934,-0.50457764,-2.8384247,0.8922882,4.6696625,-0.65099764,0.48679733,-2.1897678
1570715053,3.32016,-8.453934,-0.50457764,-2.8384247,0.8922882,4.6696625,-0.65099764,0.48679733,-2.1897678
1570715053,3.32016,-8.453934,-0.50457764,-2.8384247,0.8922882,4.6696625,-0.65099764,0.48679733,-2.1897678
1570715053,3.32016,-8.453934,-0.50457764,-2.8384247,0.8922882,4.6696625,-0.65099764,0.48679733,-2.1897678
1570715053,3.32016,-8.453934,-0.50457764,-2.8384247,0.8922882,4.6696625,-0.65099764,0.48679733,-2.1897678
1570715053,3.32016,-8.453934,-0.50457764,-2.8384247,0.8922882,4.6696625,-0.65099764,0.48679733,-2.1897678
1570715053,3.32016,-8.453934,-0.50457764,-2.8384247,0.8922882,4.6696625,-0.65099764,0.48679733,-2.1897678
1570715053,3.32016,-8.453934,-0.50457764,-2.8384247,0.8922882,4.6696625,-0.65099764,0.48679733,-2.1897678
1570715053,3.32016,-8.453934,-0.50457764,-2.8384247,0.8922882,4.6696625,-0.65099764,0.48679733,-2.1897678
1570715053,3.32016,-8.453934,-0.50457764,-2.8384247,0.8922882,4.6696625,-0.65099764,0.48679733,-2.1897678
1570715053,3.32016,-8.453934,-0.50457764,-2.8384247,0.8922882,4.6696625,-0.65099764,0.48679733,-2.1897678
1570715053,3.32016,-8.453934,-0.50457764,-2.8384247,0.8922882,4.6696625,-0.65099764,0.48679733,-2.1897678
1570715053,3.32016,-8.453934,-0.50457764,-2.8384247,0.8922882,4.6696625,-0.65099764,0.48679733,-2.1897678
1570715053,3.32016,-8.453934,-0.50457764,-2.8384247,0.8922882,4.6696625,-0.65099764,0.48679733,-2.1897678
1570715053,3.32016,-8.453934,-0.50457764,-2.8384247,0.8922882,4.6696625,-0.65099764,0.48679733,-2.1897678
1570715053,3.32016,-8.453934,-0.50457764,-2.8384247,0.8922882,4.6696625,-0.65099764,0.48679733,-2.1897678
1570715053,3.32016,-8.453934,-0.50457764,-2.8384247,0.8922882,4.6696625,-0.65099764,0.48679733,-2.1897678
1570715053,3.32016,-8.453934,-0.50457764,-2.8384247,0.8922882,4.6696625,-0.65099764,0.48679733,-2.1897678
1570715053,3.32016,-8.453934,-0.50457764,-2.8384247,0.8922882,4.6696625,-0.65099764,0.48679733,-2.1897678
1570715053,3.32016,-8.453934,-0.50457764,-2.8384247,0.8922882,4.6696625,-0.65099764,0.48679733,-2.1897678
1570715053,3.32016,-8.453934,-0.50457764,-2.8384247,0.8922882,4.6696625,-0.65099764,0.48679733,-2.1897678
1570715053,3.32016,-8.453934,-0.50457764,-2.8384247,0.8922882,4.6696625,-0.65099764,0.48679733,-2.1897678
1570715053,3.32016,-8.453934,-0.50457764,-2.8384247,0.8922882,4.6696625,-0.65099764,0.48679733,-2.1897678
1570715053,3.32016,-8.453934,-0.50457764,-2.8384247,0.8922882,4.6696625,-0.65099764,0.48679733,-2.1897678
1570715053,3.32016,-8.453934,-0.50457764,-2.8384247,0.8922882,4.6696625,-0.65099764,0.48679733,-2.1897678
1570715053,3.32016,-8.453934,-0.50457764,-2.8384247,0.8922882,4.6696625,-0.65099764,0.48679733,-2.1897678
1570715053,3.32016,-8.453934,-0.50457764,-2.8384247,0.8922882,4.6696625,-0.65099764,0.48679733,-2.1897678
1570715053,3.32016,-8.453934,-0.50457764,-2.8384247,0.8922882,4.6696625,-0.65099764,0.48679733,-2.1897678
1570715053,3.32016,-8.453934,-0.50457764,-2.8384247,0.8922882,4.6696625,-0.65099764,0.48679733,-2.1897678
1570715053,3.32016,-8.453934,-0.50457764,-2.8384247,0.8922882,4.6696625,-0.65099764,0.48679733,-2.1897678
1570715053,3.32016,-8.453934,-0.50457764,-2.8384247,0.8922882,4.6696625,-0.65099764,0.48679733,-2.1897678
1570715053,3.32016,-8.453934,-0.50457764,-2.8384247,0.8922882,4.6696625,-0.65099764,0.48679733,-2.1897678
1570715053,3.32016,-8.453934,-0.50457764,-2.8384247,0.8922882,4.6696625,-0.65099764,0.48679733,-2.1897678
1570715053,3.32016,-8.453934,-0.50457764,-2.8384247,0.8922882,4.6696625,-0.65099764,0.48679733,-2.1897678
1570715053,3.32016,-8.453934,-0.50457764,-2.8384247,0.8922882,4.6696625,-0.65099764,0.48679733,-2.1897678
1570715053,3.32016,-8.453934,-0.50457764,-2.8384247,0.8922882,4.6696625,-0.65099764,0.48679733,-2.1897678
1570715053,3.32016,-8.453934,-0.50457764,-2.8384247,0.8922882,4.6696625,-0.65099764,0.48679733,-2.1897678
1570715053,3.32016,-8.453934,-0.50457764,-2.8384247,0.8922882,4.6696625,-0.65099764,0.48679733,-2.1897678
1570715053,3.32016,-8.453934,-0.50457764,-2.8384247,0.8922882,4.6696625,-0.65099764,0.48679733,-2.1897678
1570715053,3.32016,-8.453934,-0.50457764,-2.8384247,0.8922882,4.6696625,-0.65099764,0.48679733,-2.1897678
1570715053,3.32016,-8.453934,-0.50457764,-2.8384247,0.8922882,4.6696625,-0.65099764,0.48679733,-2.1897678
1570715053,3.32016,-8.453934,-0.50457764,-2.8384247,0.8922882,4.6696625,-0.65099764,0.48679733,-2.1897678
1570715053,3.32016,-8.453934,-0.50457764,-2.8384247,0.8922882,4.6696625,-0.65099764,0.48679733,-2.1897678
1570715053,3.32016,-8.453934,-0.50457764,-2.8384247,0.8922882,4.6696625,-0.65099764,0.48679733,-2.1897678
1570715053,3.32016,-8.453934,-0.50457764,-2.8384247,0.8922882,4.6696625,-0.65099764,0.48679733,-2.1897678
1570715053,3.32016,-8.453934,-0.50457764,-2.8384247,0.8922882,4.6696625,-0.65099764,0.48679733,-2.1897678
1570715053,3.32016,-8.453934,-0.50457764,-2.8384247,0.8922882,4.6696625,-0.65099764,0.48679733,-2.1897678
1570715053,3.32016,-8.453934,-0.50457764,-2.8384247,0.8922882,4.6696625,-0.65099764,0.48679733,-2.1897678
1570715053,3.32016,-8.453934,-0.50457764,-2.8384247,0.8922882,4.6696625,-0.65099764,0.48679733,-2.1897678
1570715053,3.32016,-8.453934,-0.50457764,-2.8384247,0.8922882,4.6696625,-0.65099764,0.48679733,-2.1897678
1570715053,3.32016,-8.453934,-0.50457764,-2.8384247,0.8922882,4.6696625,-0.65099764,0.48679733,-2.1897678
1570715053,3.32016,-8.453934,-0.50457764,-2.8384247,0.8922882,4.6696625,-0.65099764,0.48679733,-2.1897678
1570715053,3.32016,-8.453934,-0.50457764,-2.8384247,0.8922882,4.6696625,-0.65099764,0.48679733,-2.1897678
1570715053,3.32016,-8.453934,-0.50457764,-2.8384247,0.8922882,4.6696625,-0.65099764,0.48679733,-2.1897678
1570715053,3.32016,-8.453934,-0.50457764,-2.8384247,0.8922882,4.6696625,-0.65099764,0.48679733,-2.1897678
1570715053,3.32016,-8.453934,-0.50457764,-2.8384247,0.8922882,4.6696625,-0.65099764,0.48679733,-2.1897678
1570715053,3.32016,-8.453934,-0.50457764,-2.8384247,0.8922882,4.6696625,-0.65099764,0.48679733,-2.1897678
1570715053,3.32016,-8.453934,-0.50457764,-2.8384247,0.8922882,4.6696625,-0.65099764,0.48679733,-2.1897678
1570715053,3.32016,-8.453934,-0.50457764,-2.8384247,0.8922882,4.6696625,-0.65099764,0.48679733,-2.1897678
1570715053,3.32016,-8.453934,-0.50457764,-2.8384247,0.8922882,4.6696625,-0.65099764,0.48679733,-2.1897678
1570715053,3.32016,-8.453934,-0.50457764,-2.8384247,0.8922882,4.6696625,-0.65099764,0.48679733,-2.1897678
1570715053,3.32016,-8.453934,-0.50457764,-2.8384247,0.8922882,4.6696625,-0.65099764,0.48679733,-2.1897678
1570715053,3.32016,-8.453934,-0.50457764,-2.8384247,0.8922882,4.6696625,-0.65099764,0.48679733,-2.1897678
1570715053,3.32016,-8.453934,-0.50457764,-2.8384247,0.8922882,4.6696625,-0.65099764,0.48679733,-2.1897678
1570715053,3.32016,-8.453934,-0.50457764,-2.8384247,0.8922882,4.6696625,-0.65099764,0.48679733,-2.1897678
1570715053,3.32016,-8.453934,-0.50457764,-2.8384247,0.8922882,4.6696625,-0.65099764,0.48679733,-2.1897678
1570715053,3.32016,-8.453934,-0.50457764,-2.8384247,0.8922882,4.6696625,-0.65099764,0.48679733,-2.1897678
1570715053,3.32016,-8.453934,-0.50457764,-2.8384247,0.8922882,4.6696625,-0.65099764,0.48679733,-2.1897678
1570715053,3.32016,-8.453934,-0.50457764,-2.8384247,0.8922882,4.6696625,-0.65099764,0.48679733,-2.1897678
1570715053,3.32016,-8.453934,-0.50457764,-2.8384247,0.8922882,4.6696625,-0.65099764,0.48679733,-2.1897678
1570715053,3.32016,-8.453934,-0.50457764,-2.8384247,0.8922882,4.6696625,-0.65099764,0.48679733,-2.1897678
1570715053,3.32016,-8.453934,-0.50457764,-2.8384247,0.8922882,4.6696625,-0.65099764,0.48679733,-2.1897678
1570715053,3.32016,-8.453934,-0.50457764,-2.8384247,0.8922882,4.6696625,-0.65099764,0.48679733,-2.1897678
1570715053,3.32016,-8.453934,-0.50457764,-2.8384247,0.8922882,4.6696625,-0.65099764,0.48679733,-2.1897678
1570715053,3.32016,-8.453934,-0.50457764,-2.8384247,0.8922882,4.6696625,-0.65099764,0.48679733,-2.1897678
1570715053,3.32016,-8.453934,-0.50457764,-2.8384247,0.8922882,4.6696625,-0.65099764,0.48679733,-2.1897678
1570715053,3.32016,-8.453934,-0.50457764,-2.8384247,0.8922882,4.6696625,-0.65099764,0.48679733,-2.1897678
1570715053,3.32016,-8.453934,-0.50457764,-2.8384247,0.8922882,4.6696625,-0.65099764,0.48679733,-2.1897678
1570715053,3.32016,-8.453934,-0.50457764,-2.8384247,0.8922882,4.6696625,-0.65099764,0.48679733,-2.1897678
1570715053,3.32016,-8.453934,-0.50457764,-2.8384247,0.8922882,4.6696625,-0.65099764,0.48679733,-2.1897678
1570715053,3.32016,-8.453934,-0.50457764,-2.8384247,0.8922882,4.6696625,-0.65099764,0.48679733,-2.1897678
1570715053,3.32016,-8.453934,-0.50457764,-2.8384247,0.8922882,4.6696625,-0.65099764,0.48679733,-2.1897678
1570715053,3.32016,-8.453934,-0.50457764,-2.8384247,0.8922882,4.6696625,-0.65099764,0.48679733,-2.1897678
1570715053,3.32016,-8.453934,-0.50457764,-2.8384247,0.8922882,4.6696625,-0.65099764,0.48679733,-2.1897678
1570715053,3.32016,-8.453934,-0.50457764,-2.8384247,0.8922882,4.6696625,-0.65099764,0.48679733,-2.1897678
1570715053,3.32016,-8.453934,-0.50457764,-2.8384247,0.8922882,4.6696625,-0.65099764,0.48679733,-2.1897678
1570715053,3.32016,-8.453934,-0.50457764,-2.8384247,0.8922882,4.6696625,-0.65099764,0.48679733,-2.1897678
1570715053,3.32016,-8.453934,-0.50457764,-2.8384247,0.8922882,4.6696625,-0.65099764,0.48679733,-2.1897678
1570715053,3.32016,-8.453934,-0.50457764,-2.8384247,0.8922882,4.6696625,-0.65099764,0.48679733,-2.1897678
1570715053,3.32016,-8.453934,-0.50457764,-2.8384247,0.8922882,4.6696625,-0.65099764,0.48679733,-2.1897678
1570715053,3.32016,-8.453934,-0.50457764,-2.8384247,0.8922882,4.6696625,-0.65099764,0.48679733,-2.1897678
1570715053,3.32016,-8.453934,-0.50457764,-2.8384247,0.8922882,4.6696625,-0.65099764,0.48679733,-2.1897678
1570715053,3.32016,-8.453934,-0.50457764,-2.8384247,0.8922882,4.6696625,-0.65099764,0.48679733,-2.1897678
1570715053,3.32016,-8.453934,-0.50457764,-2.8384247,0.8922882,4.6696625,-0.65099764,0.48679733,-2.1897678
1570715053,3.32016,-8.453934,-0.50457764,-2.8384247,0.8922882,4.6696625,-0.65099764,0.48679733,-2.1897678
1570715053,3.32016,-8.453934,-0.50457764,-2.8384247,0.8922882,4.6696625,-0.65099764,0.48679733,-2.1897678
1570715053,3.32016,-8.453934,-0.50457764,-2.8384247,0.8922882,4.6696625,-0.65099764,0.48679733,-2.1897678
1570715053,3.32016,-8.453934,-0.50457764,-2.8384247,0.8922882,4.6696625,-0.65099764,0.48679733,-2.1897678
1570715053,3.32016,-8.453934,-0.50457764,-2.8384247,0.8922882,4.6696625,-0.65099764,0.48679733,-2.1897678
1570715053,3.32016,-8.453934,-0.50457764,-2.8384247,0.8922882,4.6696625,-0.65099764,0.48679733,-2.1897678
1570715053,3.32016,-8.453934,-0.50457764,-2.8384247,0.8922882,4.6696625,-0.65099764,0.48679733,-2.1897678
1570715053,3.32016,-8.453934,-0.50457764,-2.8384247,0.8922882,4.6696625,-0.65099764,0.48679733,-2.1897678
1570715053,3.32016,-8.453934,-0.50457764,-2.8384247,0.8922882,4.6696625,-0.65099764,0.48679733,-2.1897678
1570715053,3.32016,-8.453934,-0.50457764,-2.8384247,0.8922882,4.6696625,-0.65099764,0.48679733,-2.1897678
1570715053,3.32016,-8.453934,-0.50457764,-2.8384247,0.8922882,4.6696625,-0.65099764,0.48679733,-2.1897678
1570715053,3.32016,-8.453934,-0.50457764,-2.8384247,0.8922882,4.6696625,-0.65099764,0.48679733,-2.1897678
1570715053,3.32016,-8.453934,-0.50457764,-2.8384247,0.8922882,4.6696625,-0.65099764,0.48679733,-2.1897678
1570715053,3.32016,-8.453934,-0.50457764,-2.8384247,0.8922882,4.6696625,-0.65099764,0.48679733,-2.1897678
1570715053,3.32016,-8.453934,-0.50457764,-2.8384247,0.8922882,4.6696625,-0.65099764,0.48679733,-2.1897678
1570715053,3.32016,-8.453934,-0.50457764,-2.8384247,0.8922882,4.6696625,-0.65099764,0.48679733,-2.1897678
1570715053,3.32016,-8.453934,-0.50457764,-2.8384247,0.8922882,4.6696625,-0.65099764,0.48679733,-2.1897678
1570715053,3.32016,-8.453934,-0.50457764,-2.8384247,0.8922882,4.6696625,-0.65099764,0.48679733,-2.1897678
1570715053,3.32016,-8.453934,-0.50457764,-2.8384247,0.8922882,4.6696625,-0.65099764,0.48679733,-2.1897678
1570715053,3.32016,-8.453934,-0.50457764,-2.8384247,0.8922882,4.6696625,-0.65099764,0.48679733,-2.1897678
1570715053,3.32016,-8.453934,-0.50457764,-2.8384247,0.8922882,4.6696625,-0.65099764,0.48679733,-2.1897678
1570715053,3.32016,-8.453934,-0.50457764,-2.8384247,0.8922882,4.6696625,-0.65099764,0.48679733,-2.1897678
1570715053,3.32016,-8.453934,-0.50457764,-2.8384247,0.8922882,4.6696625,-0.65099764,0.48679733,-2.1897678
1570715053,3.32016,-8.453934,-0.50457764,-2.8384247,0.8922882,4.6696625,-0.65099764,0.48679733,-2.1897678
1570715053,3.32016,-8.453934,-0.50457764,-2.8384247,0.8922882,4.6696625,-0.65099764,0.48679733,-2.1897678
1570715053,3.32016,-8.453934,-0.50457764,-2.8384247,0.8922882,4.6696625,-0.65099764,0.48679733,-2.1897678
1570715053,3.32016,-8.453934,-0.50457764,-2.8384247,0.8922882,4.6696625,-0.65099764,0.48679733,-2.1897678
1570715053,3.32016,-8.453934,-0.50457764,-2.8384247,0.8922882,4.6696625,-0.65099764,0.48679733,-2.1897678
1570715053,3.32016,-8.453934,-0.50457764,-2.8384247,0.8922882,4.6696625,-0.65099764,0.48679733,-2.1897678
1570715053,3.32016,-8.453934,-0.50457764,-2.8384247,0.8922882,4.6696625,-0.65099764,0.48679733,-2.1897678
1570715053,3.32016,-8.453934,-0.50457764,-2.8384247,0.8922882,4.6696625,-0.65099764,0.48679733,-2.1897678
1570715053,3.32016,-8.453934,-0.50457764,-2.8384247,0.8922882,4.6696625,-0.65099764,0.48679733,-2.1897678
1570715053,3.32016,-8.453934,-0.50457764,-2.8384247,0.8922882,4.6696625,-0.65099764,0.48679733,-2.1897678
1570715053,3.32016,-8.453934,-0.50457764,-2.8384247,0.8922882,4.6696625,-0.65099764,0.48679733,-2.1897678
1570715053,3.32016,-8.453934,-0.50457764,-2.8384247,0.8922882,4.6696625,-0.65099764,0.48679733,-2.1897678
1570715053,3.32016,-8.453934,-0.50457764,-2.8384247,0.8922882,4.6696625,-0.65099764,0.48679733,-2.1897678
1570715053,3.32016,-8.453934,-0.50457764,-2.8384247,0.8922882,4.6696625,-0.65099764,0.48679733,-2.1897678
1570715053,3.32016,-8.453934,-0.50457764,-2.8384247,0.8922882,4.6696625,-0.65099764,0.48679733,-2.1897678
1570715053,3.32016,-8.453934,-0.50457764,-2.8384247,0.8922882,4.6696625,-0.65099764,0.48679733,-2.1897678
1570715053,3.32016,-8.453934,-0.50457764,-2.8384247,0.8922882,4.6696625,-0.65099764,0.48679733,-2.1897678
1570715053,3.32016,-8.453934,-0.50457764,-2.8384247,0.8922882,4.6696625,-0.65099764,0.48679733,-2.1897678
1570715053,3.32016,-8.453934,-0.50457764,-2.8384247,0.8922882,4.6696625,-0.65099764,0.48679733,-2.1897678
1570715053,3.32016,-8.453934,-0.50457764,-2.8384247,0.8922882,4.6696625,-0.65099764,0.48679733,-2.1897678
1570715053,3.32016,-8.453934,-0.50457764,-2.8384247,0.8922882,4.6696625,-0.65099764,0.48679733,-2.1897678
1570715053,3.32016,-8.453934,-0.50457764,-2.8384247,0.8922882,4.6696625,-0.65099764,0.48679733,-2.1897678
1570715053,3.32016,-8.453934,-0.50457764,-2.8384247,0.8922882,4.6696625,-0.65099764,0.48679733,-2.1897678
1570715053,3.32016,-8.453934,-0.50457764,-2.8384247,0.8922882,4.6696625,-0.65099764,0.48679733,-2.1897678
1570715053,3.32016,-8.453934,-0.50457764,-2.8384247,0.8922882,4.6696625,-0.65099764,0.48679733,-2.1897678
1570715053,3.32016,-8.453934,-0.50457764,-2.8384247,0.8922882,4.6696625,-0.65099764,0.48679733,-2.1897678
1570715053,3.32016,-8.453934,-0.50457764,-2.8384247,0.8922882,4.6696625,-0.65099764,0.48679733,-2.1897678
1570715053,3.32016,-8.453934,-0.50457764,-2.8384247,0.8922882,4.6696625,-0.65099764,0.48679733,-2.1897678
1570715053,3.32016,-8.453934,-0.50457764,-2.8384247,0.8922882,4.6696625,-0.65099764,0.48679733,-2.1897678
1570715053,3.32016,-8.453934,-0.50457764,-2.8384247,0.8922882,4.6696625,-0.65099764,0.48679733,-2.1897678
1570715053,3.32016,-8.453934,-0.50457764,-2.8384247,0.8922882,4.6696625,-0.65099764,0.48679733,-2.1897678
1570715053,3.32016,-8.453934,-0.50457764,-2.8384247,0.8922882,4.6696625,-0.65099764,0.48679733,-2.1897678
1570715053,3.32016,-8.453934,-0.50457764,-2.8384247,0.8922882,4.6696625,-0.65099764,0.48679733,-2.1897678
1570715053,3.32016,-8.453934,-0.50457764,-2.8384247,0.8922882,4.6696625,-0.65099764,0.48679733,-2.1897678
1570715053,3.32016,-8.453934,-0.50457764,-2.8384247,0.8922882,4.6696625,-0.65099764,0.48679733,-2.1897678
1570715053,3.32016,-8.453934,-0.50457764,-2.8384247,0.8922882,4.6696625,-0.65099764,0.48679733,-2.1897678
1570715053,3.32016,-8.453934,-0.50457764,-2.8384247,0.8922882,4.6696625,-0.65099764,0.48679733,-2.1897678
1570715053,3.32016,-8.453934,-0.50457764,-2.8384247,0.8922882,4.6696625,-0.65099764,0.48679733,-2.1897678
1570715053,3.32016,-8.453934,-0.50457764,-2.8384247,0.8922882,4.6696625,-0.65099764,0.48679733,-2.1897678
1570715053,3.32016,-8.453934,-0.50457764,-2.8384247,0.8922882,4.6696625,-0.65099764,0.48679733,-2.1897678
1570715053,3.32016,-8.453934,-0.50457764,-2.8384247,0.8922882,4.6696625,-0.65099764,0.48679733,-2.1897678
1570715053,3.32016,-8.453934,-0.50457764,-2.8384247,0.8922882,4.6696625,-0.65099764,0.48679733,-2.1897678
1570715053,3.32016,-8.453934,-0.50457764,-2.8384247,0.8922882,4.6696625,-0.65099764,0.48679733,-2.1897678
1570715053,3.32016,-8.453934,-0.50457764,-2.8384247,0.8922882,4.6696625,-0.65099764,0.48679733,-2.1897678
1570715053,3.32016,-8.453934,-0.50457764,-2.8384247,0.8922882,4.6696625,-0.65099764,0.48679733,-2.1897678
1570715053,3.32016,-8.453934,-0.50457764,-2.8384247,0.8922882,4.6696625,-0.65099764,0.48679733,-2.1897678
1570715053,3.32016,-8.453934,-0.50457764,-2.8384247,0.8922882,4.6696625,-0.65099764,0.48679733,-2.1897678
1570715053,3.32016,-8.453934,-0.50457764,-2.8384247,0.8922882,4.6696625,-0.65099764,0.48679733,-2.1897678
1570715053,3.32016,-8.453934,-0.50457764,-2.8384247,0.8922882,4.6696625,-0.65099764,0.48679733,-2.1897678
1570715053,3.32016,-8.453934,-0.50457764,-2.8384247,0.8922882,4.6696625,-0.65099764,0.48679733,-2.1897678
1570715053,3.32016,-8.453934,-0.50457764,-2.8384247,0.8922882,4.6696625,-0.65099764,0.48679733,-2.1897678
1570715053,3.32016,-8.453934,-0.50457764,-2.8384247,0.8922882,4.6696625,-0.65099764,0.48679733,-2.1897678
1570715053,3.32016,-8.453934,-0.50457764,-2.8384247,0.8922882,4.6696625,-0.65099764,0.48679733,-2.1897678
1570715053,3.32016,-8.453934,-0.50457764,-2.8384247,0.8922882,4.6696625,-0.65099764,0.48679733,-2.1897678
1570715053,3.32016,-8.453934,-0.50457764,-2.8384247,0.8922882,4.6696625,-0.65099764,0.48679733,-2.1897678
1570715053,3.32016,-8.453934,-0.50457764,-2.8384247,0.8922882,4.6696625,-0.65099764,0.48679733,-2.1897678
1570715053,3.32016,-8.453934,-0.50457764,-2.8384247,0.8922882,4.6696625,-0.65099764,0.48679733,-2.1897678
1570715053,3.32016,-8.453934,-0.50457764,-2.8384247,0.8922882,4.6696625,-0.65099764,0.48679733,-2.1897678
1570715053,3.32016,-8.453934,-0.50457764,-2.8384247,0.8922882,4.6696625,-0.65099764,0.48679733,-2.1897678
1570715053,3.32016,-8.453934,-0.50457764,-2.8384247,0.8922882,4.6696625,-0.65099764,0.48679733,-2.1897678
1570715053,3.32016,-8.453934,-0.50457764,-2.8384247,0.8922882,4.6696625,-0.65099764,0.48679733,-2.1897678
1570715053,3.32016,-8.453934,-0.50457764,-2.8384247,0.8922882,4.6696625,-0.65099764,0.48679733,-2.1897678
1570715053,3.32016,-8.453934,-0.50457764,-2.8384247,0.8922882,4.6696625,-0.65099764,0.48679733,-2.1897678
1570715053,3.32016,-8.453934,-0.50457764,-2.8384247,0.8922882,4.6696625,-0.65099764,0.48679733,-2.1897678
1570715053,3.32016,-8.453934,-0.50457764,-2.8384247,0.8922882,4.6696625,-0.65099764,0.48679733,-2.1897678
1570715053,3.32016,-8.453934,-0.50457764,-2.8384247,0.8922882,4.6696625,-0.65099764,0.48679733,-2.1897678
1570715053,3.32016,-8.453934,-0.50457764,-2.8384247,0.8922882,4.6696625,-0.65099764,0.48679733,-2.1897678
1570715053,3.32016,-8.453934,-0.50457764,-2.8384247,0.8922882,4.6696625,-0.65099764,0.48679733,-2.1897678
1570715053,3.32016,-8.453934,-0.50457764,-2.8384247,0.8922882,4.6696625,-0.65099764,0.48679733,-2.1897678
1570715053,3.32016,-8.453934,-0.50457764,-2.8384247,0.8922882,4.6696625,-0.65099764,0.48679733,-2.1897678
1570715053,3.32016,-8.453934,-0.50457764,-2.8384247,0.8922882,4.6696625,-0.65099764,0.48679733,-2.1897678
1570715053,3.32016,-8.453934,-0.50457764,-2.8384247,0.8922882,4.6696625,-0.65099764,0.48679733,-2.1897678
1570715053,3.32016,-8.453934,-0.50457764,-2.8384247,0.8922882,4.6696625,-0.65099764,0.48679733,-2.1897678
1570715053,3.32016,-8.453934,-0.50457764,-2.8384247,0.8922882,4.6696625,-0.65099764,0.48679733,-2.1897678
1570715053,3.32016,-8.453934,-0.50457764,-2.8384247,0.8922882,4.6696625,-0.65099764,0.48679733,-2.1897678
1570715053,3.32016,-8.453934,-0.50457764,-2.8384247,0.8922882,4.6696625,-0.65099764,0.48679733,-2.1897678
1570715053,3.32016,-8.453934,-0.50457764,-2.8384247,0.8922882,4.6696625,-0.65099764,0.48679733,-2.1897678
1570715053,3.32016,-8.453934,-0.50457764,-2.8384247,0.8922882,4.6696625,-0.65099764,0.48679733,-2.1897678
1570715053,3.32016,-8.453934,-0.50457764,-2.8384247,0.8922882,4.6696625,-0.65099764,0.48679733,-2.1897678
1570715053,3.32016,-8.453934,-0.50457764,-2.8384247,0.8922882,4.6696625,-0.65099764,0.48679733,-2.1897678
1570715053,3.32016,-8.453934,-0.50457764,-2.8384247,0.8922882,4.6696625,-0.65099764,0.48679733,-2.1897678
1570715053,3.32016,-8.453934,-0.50457764,-2.8384247,0.8922882,4.6696625,-0.65099764,0.48679733,-2.1897678
1570715053,3.32016,-8.453934,-0.50457764,-2.8384247,0.8922882,4.6696625,-0.65099764,0.48679733,-2.1897678
1570715053,3.32016,-8.453934,-0.50457764,-2.8384247,0.8922882,4.6696625,-0.65099764,0.48679733,-2.1897678
1570715053,3.32016,-8.453934,-0.50457764,-2.8384247,0.8922882,4.6696625,-0.65099764,0.48679733,-2.1897678
1570715053,3.32016,-8.453934,-0.50457764,-2.8384247,0.8922882,4.6696625,-0.65099764,0.48679733,-2.1897678
1570715053,3.32016,-8.453934,-0.50457764,-2.8384247,0.8922882,4.6696625,-0.65099764,0.48679733,-2.1897678
1570715053,3.32016,-8.453934,-0.50457764,-2.8384247,0.8922882,4.6696625,-0.65099764,0.48679733,-2.1897678
1570715053,3.32016,-8.453934,-0.50457764,-2.8384247,0.8922882,4.6696625,-0.65099764,0.48679733,-2.1897678
1570715053,3.32016,-8.453934,-0.50457764,-2.8384247,0.8922882,4.6696625,-0.65099764,0.48679733,-2.1897678
1570715053,3.32016,-8.453934,-0.50457764,-2.8384247,0.8922882,4.6696625,-0.65099764,0.48679733,-2.1897678
1570715053,3.32016,-8.453934,-0.50457764,-2.8384247,0.8922882,4.6696625,-0.65099764,0.48679733,-2.1897678
1570715053,3.32016,-8.453934,-0.50457764,-2.8384247,0.8922882,4.6696625,-0.65099764,0.48679733,-2.1897678
1570715053,3.32016,-8.453934,-0.50457764,-2.8384247,0.8922882,4.6696625,-0.65099764,0.48679733,-2.1897678
1570715053,3.32016,-8.453934,-0.50457764,-2.8384247,0.8922882,4.6696625,-0.65099764,0.48679733,-2.1897678
1570715053,3.32016,-8.453934,-0.50457764,-2.8384247,0.8922882,4.6696625,-0.65099764,0.48679733,-2.1897678
1570715054,3.32016,-8.453934,-0.50457764,-2.8384247,0.8922882,4.6696625,-0.65099764,0.48679733,-2.1897678
1570715054,3.32016,-8.453934,-0.50457764,-2.8384247,0.8922882,4.6696625,-0.65099764,0.48679733,-2.1897678
1570715054,3.32016,-8.453934,-0.50457764,-2.8384247,0.8922882,4.6696625,-0.65099764,0.48679733,-2.1897678
1570715054,3.32016,-8.453934,-0.50457764,-2.8384247,0.8922882,4.6696625,-0.65099764,0.48679733,-2.1897678
1570715054,3.32016,-8.453934,-0.50457764,-2.8384247,0.8922882,4.6696625,-0.65099764,0.48679733,-2.1897678
1570715054,3.32016,-8.453934,-0.50457764,-2.8384247,0.8922882,4.6696625,-0.65099764,0.48679733,-2.1897678
1570715054,3.32016,-8.453934,-0.50457764,-2.8384247,0.8922882,4.6696625,-0.65099764,0.48679733,-2.1897678
1570715054,3.32016,-8.453934,-0.50457764,-2.8384247,0.8922882,4.6696625,-1.6429489,3.9300728,-6.004538
1570715054,3.32016,-8.453934,-0.50457764,-2.8384247,0.8922882,4.6696625,-1.8505952,2.3561306,-0.53196454
1570715054,-1.9440918,-11.980591,2.09552,-2.8384247,0.8922882,4.6696625,5.213048,-1.9727573,-5.195746
1570715054,-0.74279785,-13.077133,1.9279327,-2.8384247,0.8922882,4.6696625,5.213048,-1.9727573,-5.195746
1570715054,2.494751,-10.537476,0.5590515,-2.8384247,0.8922882,4.6696625,5.213048,-1.9727573,-5.195746
1570715054,-2.9041595,-4.9721527,-1.6041107,-2.8384247,0.8922882,4.6696625,-5.2118235,-4.3722925,-9.898231
1570715054,-5.498886,-13.684067,-7.7613983,2.5368958,-0.30825806,0.70581055,-5.2118235,-4.3722925,-9.898231
1570715054,-5.498886,-13.684067,-7.7613983,2.5368958,-0.30825806,0.70581055,-5.2118235,-4.3722925,-9.898231
1570715054,-5.498886,-13.684067,-7.7613983,2.5368958,-0.30825806,0.70581055,-5.2118235,-4.3722925,-9.898231
1570715054,-5.498886,-13.684067,-7.7613983,2.5368958,-0.30825806,0.70581055,-5.2118235,-4.3722925,-9.898231
1570715054,-5.498886,-13.684067,-7.7613983,2.5368958,-0.30825806,0.70581055,-5.2118235,-4.3722925,-9.898231
1570715054,-2.2786865,-6.329666,0.22265625,-1.4152222,0.3585968,-0.23693848,-1.3633336,3.534772,-3.7618713
1570715054,0.9397278,-19.612701,16.74385,-0.6237335,-0.6363678,-0.026016235,0.11147261,-9.511881,12.4423485
1570715054,0.9397278,-19.612701,16.74385,-0.6237335,-0.6363678,-0.026016235,0.11147261,-9.511881,12.4423485
1570715054,-4.767456,-10.512344,1.83815,-0.5587616,0.11038208,0.03895569,-1.8777689,0.86515903,0.5403683
1570715054,-4.767456,-10.512344,1.83815,-0.5587616,0.11038208,0.03895569,-1.8777689,0.86515903,0.5403683
1570715054,-1.3233948,-8.397659,1.2539673,-0.14543152,-0.3860321,0.091156006,0.33152485,1.2746534,-0.58933115
1570715054,-1.462265,-7.9361725,0.8427582,-0.1081543,-0.38710022,0.0155181885,0.33152485,1.2746534,-0.58933115
1570715054,-2.4444733,-5.388153,-2.0739746,0.14857483,-0.95274353,0.07518005,-1.0143496,4.8423033,-4.192478
1570715054,-2.6856995,-5.771225,-2.6228485,0.22207642,-1.4406433,0.18702698,-1.2712924,4.8563433,-4.680624
1570715054,-2.6856995,-5.771225,-2.6228485,0.22207642,-1.4406433,0.18702698,-1.2712924,4.8563433,-4.680624
1570715054,-2.6856995,-5.771225,-2.6228485,0.22207642,-1.4406433,0.18702698,-1.2712924,4.8563433,-4.680624
1570715054,-2.6856995,-5.771225,-2.6228485,0.22207642,-1.4406433,0.18702698,-1.2712924,4.8563433,-4.680624
1570715054,-2.6856995,-5.771225,-2.6228485,0.22207642,-1.4406433,0.18702698,-1.2712924,4.8563433,-4.680624
1570715054,-2.6856995,-5.771225,-2.6228485,0.22207642,-1.4406433,0.18702698,-1.2712924,4.8563433,-4.680624
1570715054,-2.6856995,-5.771225,-2.6228485,0.22207642,-1.4406433,0.18702698,-1.2712924,4.8563433,-4.680624
1570715055,-2.6856995,-5.771225,-2.6228485,0.22207642,-1.4406433,0.18702698,-1.2712924,4.8563433,-4.680624
1570715055,-2.6856995,-5.771225,-2.6228485,0.22207642,-1.4406433,0.18702698,-1.2712924,4.8563433,-4.680624
1570715055,-2.6856995,-5.771225,-2.6228485,0.22207642,-1.4406433,0.18702698,-1.2712924,4.8563433,-4.680624
1570715055,-2.6856995,-5.771225,-2.6228485,0.22207642,-1.4406433,0.18702698,-1.2712924,4.8563433,-4.680624
1570715055,-1.8453369,-10.453079,0.7727356,-0.31907654,-0.39987183,0.11885071,-1.3131741,0.13652515,2.4112246
1570715055,-1.5287018,-11.615463,0.16938782,-0.9710083,0.113586426,0.47251892,-1.1889374,-1.2061377,1.3026904
1570715055,-1.5287018,-11.615463,0.16938782,-0.9710083,0.113586426,0.47251892,-1.1889374,-1.2061377,1.3026904
1570715055,0.2460022,-11.825562,1.8441315,-0.89964294,0.63023376,0.4384308,0.54410744,-1.412858,3.3273897
1570715055,1.8022308,-11.6280365,2.261322,-0.6514282,1.6209259,0.19662476,2.561156,-1.2027502,4.460704
1570715055,2.1547852,-11.70285,2.111084,-0.4884491,1.8041534,0.04534912,2.9760785,-1.3813381,4.4741783
1570715055,2.3211823,-13.500305,5.193619,1.6655121,-1.0624695,0.05281067,2.724918,-2.8033714,6.724
1570715055,2.4211426,-13.702621,5.376175,1.7688446,-1.0113373,0.03363037,3.011316,-3.0088863,6.9950123
1570715055,1.7854767,-14.666885,3.652954,3.5883179,2.1066895,-0.31150818,2.5388272,-4.2967367,4.823085
1570715055,0.90740967,-13.150757,-0.96784973,4.0453186,2.098175,-0.3551941,1.7670902,-3.0436096,0.44294572
1570715055,-1.711853,-13.933655,-5.7682343,3.761963,0.95832825,-0.43295288,-0.027799398,-2.814416,-5.614686
1570715055,-5.4480133,-16.62474,-8.095993,2.266327,-0.007858276,0.72180176,-4.6759286,-6.0900793,-9.98195
1570715055,-5.786789,-12.073364,2.5743713,0.5746918,-2.2598267,-0.13787842,-7.2358737,-2.6386251,-2.7867463
1570715055,0.26216125,-11.005554,6.5834503,0.25616455,0.27975464,-0.022827148,-0.40085855,-0.80281925,2.665691
1570715055,1.6202698,-11.0468445,4.4214935,0.7941284,2.848114,0.05493164,1.3893133,-0.8596897,2.9453282
1570715055,7.523773,-10.288483,-3.5673676,1.1446075,0.69947815,-0.6385498,9.525791,0.98624897,-8.541328
1570715055,-0.21966553,-8.763977,0.08679199,1.6591187,0.6131897,-0.1410675,1.1094744,-0.20070744,-2.2268376
1570715055,-2.0027466,-5.4976807,-2.1936798,1.3150482,2.116272,-0.4297638,-1.4229991,3.924179,-6.3252034
1570715055,-2.8927917,-5.0894775,-2.576767,0.6172943,1.9692688,-0.5096588,-1.9385384,4.5505037,-6.701824
1570715055,-3.9899445,-5.590454,-1.7705078,-0.6929779,0.77723694,-0.3455963,-3.4450874,4.1861143,-5.8336363
1570715055,-1.8704681,-6.616379,0.20469666,-1.3960571,0.2616577,-0.094192505,-1.4111392,3.6113825,-4.189726
1570715055,-1.8124084,-14.82489,9.389465,-1.0647583,-0.69496155,-0.1133728,-0.47330332,-3.1650925,4.391264
1570715055,-1.8124084,-14.82489,9.389465,-1.0647583,-0.69496155,-0.1133728,-0.47330332,-3.1650925,4.391264
1570715055,2.1206665,-17.126923,14.356232,-0.21786499,0.5407562,-0.30618286,4.1289835,-9.311626,13.479624
1570715055,-1.209671,-8.248627,3.909729,-0.103881836,0.8784332,0.0826416,-0.12517846,1.2974606,1.8543766
1570715055,-7.15567,-12.942459,-1.4514923,-1.1094971,0.69415283,0.6216583,-5.3589234,-0.63803005,-3.7001605
1570715055,-7.15567,-12.942459,-1.4514923,-1.1094971,0.69415283,0.6216583,-5.3589234,-0.63803005,-3.7001605
1570715055,-2.624649,-10.590149,-1.2198486,-0.24557495,-1.515213,0.4160614,-1.1811084,-0.994936,-3.3666213
1570715055,-2.5989075,-10.123886,-1.114502,-0.24557495,-1.515213,0.4160614,-1.1811084,-0.994936,-3.3666213
1570715056,-0.78170776,-9.305664,1.6226654,-0.6194763,-1.8603516,0.4203186,-0.07524645,0.80146694,-1.0140514
1570715056,-1.0444641,-7.2562256,0.5853882,-0.182724,1.1884308,0.40115356,0.63383603,3.163641,-1.0330162
1570715056,-1.0444641,-7.2562256,0.5853882,-0.182724,1.1884308,0.40115356,0.63383603,3.163641,-1.0330162
1570715056,2.6270447,-12.5103,-2.62883,-0.4330597,3.757843,0.37664795,4.0800085,-2.3475132,-3.1271243
1570715056,2.6270447,-12.5103,-2.62883,-0.4330597,3.757843,0.37664795,4.0800085,-2.3475132,-3.1271243
1570715056,3.5799255,-12.351685,-7.3466034,-1.4365387,2.1269226,-0.4936676,5.977109,-2.3346262,-7.372345
1570715056,0.9104004,-9.433151,2.1847076,-1.3555756,-2.5421295,-1.4172516,2.6139708,0.7513199,2.294119
1570715056,0.92774963,-9.252396,2.1314392,-1.2586365,-2.5879364,-1.4193878,2.4292026,0.9844961,2.5685818
1570715056,-0.20350647,-11.968613,1.7046661,-1.5728912,-3.604187,-0.96131897,0.42879015,-1.5007639,2.570984
1570715056,-0.20350647,-11.968613,1.7046661,-1.5728912,-3.604187,-0.96131897,0.42879015,-1.5007639,2.570984
1570715056,-1.3341675,-10.764923,3.1381989,-1.2916565,-2.5858002,-0.7770386,-0.63487965,-0.43363476,4.4930954
1570715056,-1.7471619,-10.542267,2.8059998,-0.7206726,-1.8731384,-0.45851135,-1.2270224,-0.14635468,4.7136517
1570715056,-1.905777,-10.900803,0.12928772,0.21781921,-1.2989655,0.24775696,-1.2819467,-0.1214304,2.0803666
1570715056,-0.52253723,-11.921326,0.19992065,-0.49909973,-0.69496155,0.4363098,-0.0688982,-1.2752476,1.3441373
1570715056,-0.42018127,-12.01709,0.4800415,-0.52786255,-0.62890625,0.42671204,0.23278463,-1.4342422,1.818866
1570715056,2.0410614,-11.546631,2.5115204,-0.53105164,2.2718048,0.27864075,2.6545594,-1.1843328,4.512308
1570715056,2.0410614,-11.546631,2.5115204,-0.53105164,2.2718048,0.27864075,2.870354,-1.1625338,4.5404425
1570715056,2.5605927,-11.81778,1.0845795,-0.7994995,2.8289337,0.19874573,3.5275466,-1.3988304,3.369937
1570715056,5.047577,-13.701416,8.146271,1.6399536,-0.8185272,0.11672974,5.5435915,-3.3633747,10.112326
1570715056,1.9614563,-15.67244,4.8045654,3.5382538,1.2363739,-0.5213623,3.418082,-5.0776663,7.061731
1570715056,1.9614563,-15.67244,4.8045654,3.5382538,1.2363739,-0.5213623,3.418082,-5.0776663,7.061731
1570715056,-4.6621094,-16.393692,-7.3507996,2.9640808,1.7093506,0.3414917,-3.217411,-4.8770094,-7.8488097
1570715056,-5.134369,-16.855179,-7.6782074,2.8053436,1.6560822,0.48316956,-4.0127215,-5.595582,-8.829363
1570715056,-6.194992,-11.677719,-8.711899,1.9819031,-0.5372925,1.0648041,-5.4900336,-4.6122837,-11.616583
1570715056,0.15023804,-10.808029,4.0970764,1.263916,0.7367554,0.24880981,0.364143,-0.63078403,1.3365741
1570715056,0.15023804,-10.808029,4.0970764,1.263916,0.7367554,0.24880981,0.364143,-0.63078403,1.3365741
1570715056,2.9706116,-10.4973755,1.7944489,1.8157196,-0.017440796,-0.24653625,3.3626447,-1.4835978,-2.1470497
1570715056,2.9706116,-10.4973755,1.7944489,1.8157196,-0.017440796,-0.24653625,3.3626447,-1.4835978,-2.1470497
1570715056,-1.8926239,-4.242523,-2.5965118,1.0625763,1.6347809,-0.21350098,-1.160592,5.0930967,-7.344657
1570715056,-1.8926239,-4.242523,-2.5965118,1.0625763,1.6347809,-0.21350098,-1.160592,5.0930967,-7.344657
1570715062,-1.8016357,-4.2191772,-2.5091248,0.97416687,1.6571503,-0.20498657,-1.2207487,5.379402,-7.0915446
1570715062,-1.8016357,-4.2191772,-2.5091248,0.97416687,1.6571503,-0.20498657,-1.2207487,5.379402,-7.0915446
1570715062,-1.8016357,-4.2191772,-2.5091248,0.97416687,1.6571503,-0.20498657,-1.2207487,5.379402,-7.0915446
1570715062,-1.8016357,-4.2191772,-2.5091248,0.97416687,1.6571503,-0.20498657,-1.2207487,5.379402,-7.0915446
1570715062,-1.8016357,-4.2191772,-2.5091248,0.97416687,1.6571503,-0.20498657,-1.2207487,5.379402,-7.0915446
1570715062,-1.8016357,-4.2191772,-2.5091248,0.97416687,1.6571503,-0.20498657,-1.2207487,5.379402,-7.0915446
1570715062,-1.8016357,-4.2191772,-2.5091248,0.97416687,1.6571503,-0.20498657,-1.2207487,5.379402,-7.0915446
1570715062,-1.8016357,-4.2191772,-2.5091248,0.97416687,1.6571503,-0.20498657,-1.2207487,5.379402,-7.0915446
1570715062,-1.8016357,-4.2191772,-2.5091248,0.97416687,1.6571503,-0.20498657,-1.2207487,5.379402,-7.0915446
1570715062,-1.8016357,-4.2191772,-2.5091248,0.97416687,1.6571503,-0.20498657,-1.2207487,5.379402,-7.0915446
1570715062,-0.205307,-19.612701,18.75737,0.97416687,1.6571503,-0.20498657,-1.2207487,5.379402,-7.0915446
1570715062,-4.165909,-12.353485,-2.8089905,0.97416687,1.6571503,-0.20498657,-1.2207487,5.379402,-7.0915446
1570715062,-4.165909,-12.353485,-2.8089905,0.97416687,1.6571503,-0.20498657,-1.2207487,5.379402,-7.0915446
1570715062,-4.165909,-12.353485,-2.8089905,0.97416687,1.6571503,-0.20498657,-1.2207487,5.379402,-7.0915446
1570715062,-4.165909,-12.353485,-2.8089905,0.97416687,1.6571503,-0.20498657,-1.2207487,5.379402,-7.0915446
1570715062,-4.165909,-12.353485,-2.8089905,0.97416687,1.6571503,-0.20498657,-1.2207487,5.379402,-7.0915446
1570715062,-4.165909,-12.353485,-2.8089905,0.97416687,1.6571503,-0.20498657,-1.2207487,5.379402,-7.0915446
1570715062,-4.165909,-12.353485,-2.8089905,0.97416687,1.6571503,-0.20498657,-1.2207487,5.379402,-7.0915446
1570715062,-4.165909,-12.353485,-2.8089905,0.97416687,1.6571503,-0.20498657,-1.2207487,5.379402,-7.0915446
1570715062,-4.165909,-12.353485,-2.8089905,0.97416687,1.6571503,-0.20498657,-1.2207487,5.379402,-7.0915446
1570715062,-4.165909,-12.353485,-2.8089905,0.97416687,1.6571503,-0.20498657,-1.2207487,5.379402,-7.0915446
1570715062,-4.165909,-12.353485,-2.8089905,0.97416687,1.6571503,-0.20498657,-1.2207487,5.379402,-7.0915446
1570715062,-4.165909,-12.353485,-2.8089905,0.97416687,1.6571503,-0.20498657,-1.2207487,5.379402,-7.0915446
1570715062,-4.165909,-12.353485,-2.8089905,0.97416687,1.6571503,-0.20498657,-1.2207487,5.379402,-7.0915446
1570715062,-4.165909,-12.353485,-2.8089905,0.97416687,1.6571503,-0.20498657,-1.2207487,5.379402,-7.0915446
1570715062,-4.165909,-12.353485,-2.8089905,0.97416687,1.6571503,-0.20498657,-1.2207487,5.379402,-7.0915446
1570715062,-4.165909,-12.353485,-2.8089905,0.97416687,1.6571503,-0.20498657,-1.2207487,5.379402,-7.0915446
1570715062,-4.165909,-12.353485,-2.8089905,0.97416687,1.6571503,-0.20498657,-1.2207487,5.379402,-7.0915446
1570715062,-4.165909,-12.353485,-2.8089905,0.97416687,1.6571503,-0.20498657,-1.2207487,5.379402,-7.0915446
1570715062,-4.165909,-12.353485,-2.8089905,0.97416687,1.6571503,-0.20498657,-1.2207487,5.379402,-7.0915446
1570715062,-4.165909,-12.353485,-2.8089905,0.97416687,1.6571503,-0.20498657,-1.2207487,5.379402,-7.0915446
1570715062,-4.165909,-12.353485,-2.8089905,0.97416687,1.6571503,-0.20498657,-1.2207487,5.379402,-7.0915446
1570715062,-2.6725311,-8.090607,-0.070632935,0.97416687,1.6571503,-0.20498657,-1.2207487,5.379402,-7.0915446
1570715062,3.743927,-12.29483,-3.1513672,0.97416687,1.6571503,-0.20498657,-1.2207487,5.379402,-7.0915446
1570715062,3.743927,-12.29483,-3.1513672,0.97416687,1.6571503,-0.20498657,-1.2207487,5.379402,-7.0915446
1570715062,4.672882,-11.976395,-4.6788635,0.97416687,1.6571503,-0.20498657,-1.2207487,5.379402,-7.0915446
1570715062,3.0298615,-8.453323,2.735382,0.97416687,1.6571503,-0.20498657,-1.2207487,5.379402,-7.0915446
1570715062,2.671936,-8.276749,1.6136932,0.97416687,1.6571503,-0.20498657,-1.2207487,5.379402,-7.0915446
1570715062,1.3317719,-11.833939,3.7624817,0.97416687,1.6571503,-0.20498657,-1.2207487,5.379402,-7.0915446
1570715062,-0.41659546,-11.803421,5.2558746,0.97416687,1.6571503,-0.20498657,-1.2207487,5.379402,-7.0915446
1570715062,-0.45729065,-11.312607,0.41059875,0.97416687,1.6571503,-0.20498657,-1.2207487,5.379402,-7.0915446
1570715062,-0.45729065,-11.725601,-0.73262024,0.97416687,1.6571503,-0.20498657,-1.2207487,5.379402,-7.0915446
1570715062,1.1791382,-13.980347,5.095459,0.97416687,1.6571503,-0.20498657,-1.2207487,5.379402,-7.0915446
1570715062,3.664917,-14.192825,8.486252,0.97416687,1.6571503,-0.20498657,-1.2207487,5.379402,-7.0915446
1570715062,3.664917,-14.192825,8.486252,0.97416687,1.6571503,-0.20498657,-1.2207487,5.379402,-7.0915446
1570715062,3.664917,-14.192825,8.486252,0.97416687,1.6571503,-0.20498657,-1.2207487,5.379402,-7.0915446
1570715062,3.664917,-14.192825,8.486252,0.97416687,1.6571503,-0.20498657,-1.2207487,5.379402,-7.0915446
1570715062,3.664917,-14.192825,8.486252,0.97416687,1.6571503,-0.20498657,-1.2207487,5.379402,-7.0915446
1570715062,3.664917,-14.192825,8.486252,0.97416687,1.6571503,-0.20498657,-1.2207487,5.379402,-7.0915446
1570715062,3.664917,-14.192825,8.486252,0.97416687,1.6571503,-0.20498657,-1.2207487,5.379402,-7.0915446
1570715062,3.664917,-14.192825,8.486252,0.97416687,1.6571503,-0.20498657,-1.2207487,5.379402,-7.0915446
1570715062,3.664917,-14.192825,8.486252,0.97416687,1.6571503,-0.20498657,-1.2207487,5.379402,-7.0915446
1570715062,3.664917,-14.192825,8.486252,0.97416687,1.6571503,-0.20498657,-1.2207487,5.379402,-7.0915446
1570715062,3.664917,-14.192825,8.486252,0.97416687,1.6571503,-0.20498657,-1.2207487,5.379402,-7.0915446
1570715062,3.664917,-14.192825,8.486252,0.97416687,1.6571503,-0.20498657,-1.2207487,5.379402,-7.0915446
1570715062,3.664917,-14.192825,8.486252,0.97416687,1.6571503,-0.20498657,-1.2207487,5.379402,-7.0915446
1570715062,3.664917,-14.192825,8.486252,0.97416687,1.6571503,-0.20498657,-1.2207487,5.379402,-7.0915446
1570715062,3.664917,-14.192825,8.486252,0.97416687,1.6571503,-0.20498657,-1.2207487,5.379402,-7.0915446
1570715062,3.664917,-14.192825,8.486252,0.97416687,1.6571503,-0.20498657,-1.2207487,5.379402,-7.0915446
1570715062,4.2712555,-14.34845,9.401428,0.97416687,1.6571503,-0.20498657,-1.2207487,5.379402,-7.0915446
1570715062,0.9319458,-15.590439,6.6313477,0.97416687,1.6571503,-0.20498657,-1.2207487,5.379402,-7.0915446
1570715062,-0.52194214,-14.165298,1.8369446,0.97416687,1.6571503,-0.20498657,-1.2207487,5.379402,-7.0915446
1570715062,-1.02771,-13.673889,-0.52612305,0.97416687,1.6571503,-0.20498657,-1.2207487,5.379402,-7.0915446
1570715062,-2.1062927,-13.800186,-1.9225464,0.97416687,1.6571503,-0.20498657,-1.2207487,5.379402,-7.0915446
1570715062,-5.0379944,-15.39711,-9.461884,0.97416687,1.6571503,-0.20498657,-1.2207487,5.379402,-7.0915446
1570715062,-10.001175,-13.541,0.8828583,0.97416687,1.6571503,-0.20498657,-1.2207487,5.379402,-7.0915446
1570715062,-0.04548645,-11.85788,4.391571,0.97416687,1.6571503,-0.20498657,-1.2207487,5.379402,-7.0915446
1570715062,6.0573273,-9.980225,-1.99617,0.97416687,1.6571503,-0.20498657,-1.2207487,5.379402,-7.0915446
1570715062,1.0839691,-9.414001,0.78289795,0.97416687,1.6571503,-0.20498657,-1.2207487,5.379402,-7.0915446
1570715062,0.05027771,-9.175186,0.7266388,0.97416687,1.6571503,-0.20498657,-1.2207487,5.379402,-7.0915446
1570715062,-0.972641,-7.2675934,-0.24720764,0.97416687,1.6571503,-0.20498657,-1.2207487,5.379402,-7.0915446
1570715062,-1.1689758,-5.748474,-1.1109161,0.97416687,1.6571503,-0.20498657,-1.2207487,5.379402,-7.0915446
1570715062,-3.08313,-4.625595,-2.4450836,0.97416687,1.6571503,-0.20498657,-1.2207487,5.379402,-7.0915446
1570715062,-3.399765,-4.613632,-2.3337555,0.97416687,1.6571503,-0.20498657,-1.2207487,5.379402,-7.0915446
1570715062,-2.9430695,-4.344284,-2.1446075,0.97416687,1.6571503,-0.20498657,-1.2207487,5.379402,-7.0915446
1570715062,-1.6992798,-5.8843536,-0.5051727,0.97416687,1.6571503,-0.20498657,-1.2207487,5.379402,-7.0915446
1570715062,-1.407196,-7.8841095,1.7525482,0.97416687,1.6571503,-0.20498657,-1.2207487,5.379402,-7.0915446
1570715062,-2.9352875,-19.200302,18.59816,0.97416687,1.6571503,-0.20498657,-1.2207487,5.379402,-7.0915446
1570715062,1.632843,-19.612701,17.464508,0.97416687,1.6571503,-0.20498657,-1.2207487,5.379402,-7.0915446
1570715062,-0.068237305,-9.859924,5.764038,0.97416687,1.6571503,-0.20498657,-1.2207487,5.379402,-7.0915446
1570715062,-0.068237305,-9.859924,5.764038,0.97416687,1.6571503,-0.20498657,-1.2207487,5.379402,-7.0915446
1570715062,-0.068237305,-9.859924,5.764038,0.97416687,1.6571503,-0.20498657,-1.2207487,5.379402,-7.0915446
1570715062,-1.8255768,-9.009384,2.688095,0.97416687,1.6571503,-0.20498657,-1.2207487,5.379402,-7.0915446
1570715062,-8.720886,-15.674835,-1.2395935,0.97416687,1.6571503,-0.20498657,-1.2207487,5.379402,-7.0915446
1570715062,-6.7229156,-18.070831,-0.5776062,0.97416687,1.6571503,-0.20498657,-1.2207487,5.379402,-7.0915446
1570715062,-2.0644073,-9.634872,-0.8152313,0.97416687,1.6571503,-0.20498657,-1.2207487,5.379402,-7.0915446
1570715062,-2.3570862,-6.7779846,-1.1755524,0.97416687,1.6571503,-0.20498657,-1.2207487,5.379402,-7.0915446
1570715062,-2.9227142,-5.9974823,-1.6005249,0.97416687,1.6571503,-0.20498657,-1.2207487,5.379402,-7.0915446
1570715062,-3.5248566,-8.535324,-0.68174744,0.97416687,1.6571503,-0.20498657,-1.2207487,5.379402,-7.0915446
1570715062,-1.9979553,-10.2717285,-1.7405853,0.97416687,1.6571503,-0.20498657,-1.2207487,5.379402,-7.0915446
1570715062,-1.375473,-9.96167,0.0011901855,0.97416687,1.6571503,-0.20498657,-1.2207487,5.379402,-7.0915446
1570715062,-0.82839966,-10.852921,0.7188568,0.97416687,1.6571503,-0.20498657,-1.2207487,5.379402,-7.0915446
1570715062,-0.7691345,-12.785629,1.193512,0.97416687,1.6571503,-0.20498657,-1.2207487,5.379402,-7.0915446
1570715062,2.8766327,-11.048645,-3.4560242,0.97416687,1.6571503,-0.20498657,-1.2207487,5.379402,-7.0915446
1570715062,3.4656067,-10.609299,-6.4224396,0.97416687,1.6571503,-0.20498657,-1.2207487,5.379402,-7.0915446
1570715062,2.7054443,-10.2842865,-3.4189148,0.97416687,1.6571503,-0.20498657,-1.2207487,5.379402,-7.0915446
1570715062,2.1009064,-10.215454,-3.197464,0.97416687,1.6571503,-0.20498657,-1.2207487,5.379402,-7.0915446
1570715062,2.1009064,-10.215454,-3.197464,0.97416687,1.6571503,-0.20498657,-1.2207487,5.379402,-7.0915446
1570715062,1.7058716,-10.569199,-1.1168976,0.97416687,1.6571503,-0.20498657,-1.2207487,5.379402,-7.0915446
1570715062,1.7058716,-10.569199,-1.1168976,0.97416687,1.6571503,-0.20498657,-1.2207487,5.379402,-7.0915446
1570715062,1.7058716,-10.569199,-1.1168976,0.97416687,1.6571503,-0.20498657,-1.2207487,5.379402,-7.0915446
1570715062,1.830368,-10.144836,-0.20889282,0.97416687,1.6571503,-0.20498657,-1.2207487,5.379402,-7.0915446
1570715062,2.620453,-9.387665,2.2655182,0.97416687,1.6571503,-0.20498657,-1.2207487,5.379402,-7.0915446
1570715062,1.1731567,-9.780914,2.8012085,0.97416687,1.6571503,-0.20498657,-1.2207487,5.379402,-7.0915446
1570715062,0.5171509,-10.059235,2.7204132,0.97416687,1.6571503,-0.20498657,-1.2207487,5.379402,-7.0915446
1570715062,0.25976562,-10.239395,2.7132263,0.97416687,1.6571503,-0.20498657,-1.2207487,5.379402,-7.0915446
1570715062,0.25976562,-10.239395,2.7132263,0.97416687,1.6571503,-0.20498657,-1.2207487,5.379402,-7.0915446
1570715062,0.22445679,-10.3710785,2.7108307,0.97416687,1.6571503,-0.20498657,-1.2207487,5.379402,-7.0915446
1570715062,-1.1450195,-10.368683,1.9638367,0.97416687,1.6571503,-0.20498657,-1.2207487,5.379402,-7.0915446
1570715062,0.042495728,-11.356903,-0.12689209,0.97416687,1.6571503,-0.20498657,-1.2207487,5.379402,-7.0915446
1570715062,0.11671448,-11.504135,-0.032318115,0.97416687,1.6571503,-0.20498657,-1.2207487,5.379402,-7.0915446
1570715062,0.34176636,-11.650192,0.3214264,0.97416687,1.6571503,-0.20498657,-1.2207487,5.379402,-7.0915446
1570715062,1.8465271,-11.710632,-0.4980011,0.97416687,1.6571503,-0.20498657,-1.2207487,5.379402,-7.0915446
1570715062,1.8602905,-11.710632,-0.4980011,0.97416687,1.6571503,-0.20498657,-1.2207487,5.379402,-7.0915446
1570715062,1.8602905,-11.710632,-0.4980011,0.97416687,1.6571503,-0.20498657,-1.2207487,5.379402,-7.0915446
1570715062,1.8650818,-12.050613,-0.7870941,0.97416687,1.6571503,-0.20498657,-1.2207487,5.379402,-7.0915446
1570715062,1.6202698,-12.349289,-0.762558,0.97416687,1.6571503,-0.20498657,-1.2207487,5.379402,-7.0915446
1570715062,0.8565216,-14.320923,3.114853,0.97416687,1.6571503,-0.20498657,-1.2207487,5.379402,-7.0915446
1570715062,2.9987335,-15.269623,7.2250977,0.97416687,1.6571503,-0.20498657,-1.2207487,5.379402,-7.0915446
1570715062,3.2854462,-15.391129,7.8775177,0.97416687,1.6571503,-0.20498657,-1.2207487,5.379402,-7.0915446
1570715062,3.0735626,-14.283813,8.395264,0.97416687,1.6571503,-0.20498657,-1.2207487,5.379402,-7.0915446
1570715062,-1.2503662,-11.955444,0.19213867,0.97416687,1.6571503,-0.20498657,-1.2207487,5.379402,-7.0915446
1570715062,-3.8953705,-15.587448,-8.314468,0.97416687,1.6571503,-0.20498657,-1.2207487,5.379402,-7.0915446
1570715062,-8.571243,-12.623428,-0.7876892,0.97416687,1.6571503,-0.20498657,-1.2207487,5.379402,-7.0915446
1570715062,0.35853577,-11.379044,6.2913666,0.97416687,1.6571503,-0.20498657,-1.2207487,5.379402,-7.0915446
1570715062,0.35853577,-11.379044,6.2913666,0.97416687,1.6571503,-0.20498657,-1.2207487,5.379402,-7.0915446
1570715062,0.35853577,-11.379044,6.2913666,0.97416687,1.6571503,-0.20498657,-1.2207487,5.379402,-7.0915446
1570715062,0.35853577,-11.379044,6.2913666,0.97416687,1.6571503,-0.20498657,-1.2207487,5.379402,-7.0915446
1570715062,0.35853577,-11.379044,6.2913666,0.97416687,1.6571503,-0.20498657,-1.2207487,5.379402,-7.0915446
1570715062,7.56987,-9.935944,-1.7016754,0.97416687,1.6571503,-0.20498657,-1.2207487,5.379402,-7.0915446
1570715062,3.8965607,-11.975204,-0.84036255,0.97416687,1.6571503,-0.20498657,-1.2207487,5.379402,-7.0915446
1570715062,-1.3730774,-7.1460876,-0.3321991,0.97416687,1.6571503,-0.20498657,-1.2207487,5.379402,-7.0915446
1570715062,-2.850891,-4.766861,-2.8221588,0.97416687,1.6571503,-0.20498657,-1.2207487,5.379402,-7.0915446
1570715062,-2.881424,-4.9194794,-1.5993195,0.97416687,1.6571503,-0.20498657,-1.2207487,5.379402,-7.0915446
1570715062,-0.9642639,-8.436569,2.087143,0.97416687,1.6571503,-0.20498657,-1.2207487,5.379402,-7.0915446
1570715062,-0.94750977,-8.834,2.5665894,0.97416687,1.6571503,-0.20498657,-1.2207487,5.379402,-7.0915446
1570715062,-0.6584015,-10.169373,4.0737305,0.97416687,1.6571503,-0.20498657,-1.2207487,5.379402,-7.0915446
1570715062,1.5430603,-19.612701,14.76445,0.97416687,1.6571503,-0.20498657,-1.2207487,5.379402,-7.0915446
1570715062,0.40760803,-9.812637,7.2987213,0.97416687,1.6571503,-0.20498657,-1.2207487,5.379402,-7.0915446
1570715062,-0.4620819,-9.171585,6.8994904,0.97416687,1.6571503,-0.20498657,-1.2207487,5.379402,-7.0915446
1570715062,-1.5604248,-8.546097,5.458786,0.97416687,1.6571503,-0.20498657,-1.2207487,5.379402,-7.0915446
1570715062,-2.6455994,-8.019379,4.0886993,0.97416687,1.6571503,-0.20498657,-1.2207487,5.379402,-7.0915446
1570715062,-2.6455994,-8.019379,4.0886993,0.97416687,1.6571503,-0.20498657,-1.2207487,5.379402,-7.0915446
1570715062,-2.6455994,-8.019379,4.0886993,0.97416687,1.6571503,-0.20498657,-1.2207487,5.379402,-7.0915446
1570715062,-2.6455994,-8.019379,4.0886993,0.97416687,1.6571503,-0.20498657,-1.2207487,5.379402,-7.0915446
1570715062,-2.6455994,-8.019379,4.0886993,0.97416687,1.6571503,-0.20498657,-1.2207487,5.379402,-7.0915446
1570715062,-2.9993286,-12.0829315,-1.6759338,0.97416687,1.6571503,-0.20498657,-1.2207487,5.379402,-7.0915446
1570715062,-2.9586334,-11.476608,-1.3736725,0.97416687,1.6571503,-0.20498657,-1.2207487,5.379402,-7.0915446
1570715062,-2.8957825,-8.840591,-0.33398438,0.97416687,1.6571503,-0.20498657,-1.2207487,5.379402,-7.0915446
1570715062,-2.8957825,-8.840591,-0.33398438,0.97416687,1.6571503,-0.20498657,-1.2207487,5.379402,-7.0915446
1570715062,-2.738968,-6.6738434,-1.1061249,0.97416687,1.6571503,-0.20498657,-1.2207487,5.379402,-7.0915446
1570715062,-3.007721,-8.34259,-1.3227997,0.97416687,1.6571503,-0.20498657,-1.2207487,5.379402,-7.0915446
1570715062,1.0271149,-13.0065,-2.5396423,0.97416687,1.6571503,-0.20498657,-1.2207487,5.379402,-7.0915446
1570715062,4.1012726,-11.707642,-8.215103,0.97416687,1.6571503,-0.20498657,-1.2207487,5.379402,-7.0915446
1570715062,3.7816467,-11.921921,-9.271545,0.97416687,1.6571503,-0.20498657,-1.2207487,5.379402,-7.0915446
1570715062,3.12323,-11.660355,-2.4779968,0.97416687,1.6571503,-0.20498657,-1.2207487,5.379402,-7.0915446
1570715062,4.1641083,-9.748596,1.7453766,0.97416687,1.6571503,-0.20498657,-1.2207487,5.379402,-7.0915446
1570715062,1.470047,-10.056839,3.2788544,0.97416687,1.6571503,-0.20498657,-1.2207487,5.379402,-7.0915446
1570715062,-1.2270355,-10.345352,3.1920624,0.97416687,1.6571503,-0.20498657,-1.2207487,5.379402,-7.0915446
1570715062,-0.957077,-10.211868,2.3451233,0.97416687,1.6571503,-0.20498657,-1.2207487,5.379402,-7.0915446
1570715062,-0.957077,-10.211868,2.3451233,0.97416687,1.6571503,-0.20498657,-1.2207487,5.379402,-7.0915446
1570715062,-0.541687,-10.239395,0.12748718,0.97416687,1.6571503,-0.20498657,-1.2207487,5.379402,-7.0915446
1570715062,-0.058654785,-11.715424,-1.6819305,0.97416687,1.6571503,-0.20498657,-1.2207487,5.379402,-7.0915446
1570715062,4.4071198,-15.087662,9.914383,0.97416687,1.6571503,-0.20498657,-1.2207487,5.379402,-7.0915446
1570715062,-0.2753296,-11.073776,1.6675568,0.97416687,1.6571503,-0.20498657,-1.2207487,5.379402,-7.0915446
1570715062,1.7836761,-10.453079,-0.47584534,0.97416687,1.6571503,-0.20498657,-1.2207487,5.379402,-7.0915446
1570715062,-1.4323273,-4.4496307,-3.4674072,0.97416687,1.6571503,-0.20498657,-1.2207487,5.379402,-7.0915446
1570715062,-3.008316,-4.4370575,-1.7806854,0.97416687,1.6571503,-0.20498657,-1.2207487,5.379402,-7.0915446
1570715062,-1.0576324,-8.103775,2.3756409,0.97416687,1.6571503,-0.20498657,-1.2207487,5.379402,-7.0915446
1570715062,1.7417755,-19.612701,17.25322,0.97416687,1.6571503,-0.20498657,-1.2207487,5.379402,-7.0915446
1570715062,-2.9723969,-9.108139,3.6739044,0.97416687,1.6571503,-0.20498657,-1.2207487,5.379402,-7.0915446
1570715062,-6.1123962,-17.885284,-0.7870941,0.97416687,1.6571503,-0.20498657,-1.2207487,5.379402,-7.0915446
1570715062,-2.6108704,-4.6309814,-1.5969391,0.97416687,1.6571503,-0.20498657,-1.2207487,5.379402,-7.0915446
1570715062,1.9297333,-10.092163,2.1685486,0.97416687,1.6571503,-0.20498657,-1.2207487,5.379402,-7.0915446
1570715062,1.1605835,-8.219299,-0.31184387,0.97416687,1.6571503,-0.20498657,-1.2207487,5.379402,-7.0915446
1570715062,-0.9744415,-10.678741,2.9879608,0.97416687,1.6571503,-0.20498657,-1.2207487,5.379402,-7.0915446
1570715062,-1.0325012,-5.541977,-0.7176666,0.97416687,1.6571503,-0.20498657,-1.2207487,5.379402,-7.0915446
1570715062,-2.2014618,-4.30896,-2.2092438,0.97416687,1.6571503,-0.20498657,-1.2207487,5.379402,-7.0915446
1570715062,-6.7019653,-16.69896,-5.5246277,0.97416687,1.6571503,-0.20498657,-1.2207487,5.379402,-7.0915446
1570715062,-6.367386,-16.923416,-2.5749664,0.97416687,1.6571503,-0.20498657,-1.2207487,5.379402,-7.0915446
1570715062,-6.367386,-16.923416,-2.5749664,0.97416687,1.6571503,-0.20498657,-1.2207487,5.379402,-7.0915446
1570715062,-6.367386,-16.923416,-2.5749664,0.97416687,1.6571503,-0.20498657,-1.2207487,5.379402,-7.0915446
1570715062,-5.0972595,-16.002838,-1.2826996,0.97416687,1.6571503,-0.20498657,-1.2207487,5.379402,-7.0915446
1570715062,-2.7832642,-11.087555,0.80744934,0.97416687,1.6571503,-0.20498657,-1.2207487,5.379402,-7.0915446
1570715062,-2.1871033,-8.000824,1.7657166,0.97416687,1.6571503,-0.20498657,-1.2207487,5.379402,-7.0915446
1570715062,-2.214035,-8.850769,1.1252747,0.97416687,1.6571503,-0.20498657,-1.2207487,5.379402,-7.0915446
1570715062,2.1721344,-11.380844,-3.9151154,0.97416687,1.6571503,-0.20498657,-1.2207487,5.379402,-7.0915446
1570715062,1.3778687,-9.712677,4.150345,0.97416687,1.6571503,-0.20498657,-1.2207487,5.379402,-7.0915446
1570715062,-0.010772705,-8.562866,2.395996,0.97416687,1.6571503,-0.20498657,-1.2207487,5.379402,-7.0915446
1570715062,-0.885849,-10.886429,-0.37348938,0.97416687,1.6571503,-0.20498657,-1.2207487,5.379402,-7.0915446
1570715062,-2.237976,-10.484207,-1.6059113,0.97416687,1.6571503,-0.20498657,-1.2207487,5.379402,-7.0915446
1570715062,-1.9434967,-11.561005,-4.3670197,0.97416687,1.6571503,-0.20498657,-1.2207487,5.379402,-7.0915446
1570715062,-2.8215637,-13.685852,1.5113373,0.97416687,1.6571503,-0.20498657,-1.2207487,5.379402,-7.0915446
1570715062,-2.6144714,-13.524841,2.0739746,0.97416687,1.6571503,-0.20498657,-1.2207487,5.379402,-7.0915446
1570715062,-2.6144714,-13.524841,2.0739746,0.97416687,1.6571503,-0.20498657,-1.2207487,5.379402,-7.0915446
1570715062,-2.6144714,-13.524841,2.0739746,0.97416687,1.6571503,-0.20498657,-1.2207487,5.379402,-7.0915446
1570715062,-2.6144714,-13.524841,2.0739746,0.97416687,1.6571503,-0.20498657,-1.2207487,5.379402,-7.0915446
1570715062,-1.2994537,-7.162857,0.2454071,-1.3758087,0.45339966,-0.05052185,-1.2207487,5.379402,-7.0915446
1570715062,-1.0414734,-7.2352753,0.49919128,-1.3864594,0.42677307,-0.044128418,-1.2207487,5.379402,-7.0915446
1570715062,-0.4728546,-9.492416,3.2393494,-1.381134,0.13595581,-0.1133728,-1.2207487,5.379402,-7.0915446
1570715062,-0.32681274,-13.93605,7.8457947,-0.26474,1.126648,-0.55119324,0.50666064,-5.424507,6.4368997
1570715062,-0.32681274,-13.93605,7.8457947,-0.26474,1.126648,-0.55119324,0.50666064,-5.424507,6.4368997
1570715062,-5.182251,-6.842621,-3.2597046,-0.4692688,0.28189087,-0.030288696,-4.6248426,3.3428545,-5.939314
1570715062,-5.182251,-6.842621,-3.2597046,-0.4692688,0.28189087,-0.030288696,-4.6248426,3.3428545,-5.939314
1570715063,-5.2205505,-18.743607,1.1695709,-2.112976,-0.07070923,1.6389923,-4.4192066,-8.659254,-1.2886217
1570715063,-5.2205505,-18.743607,1.1695709,-2.112976,-0.07070923,1.6389923,-4.4192066,-8.659254,-1.2886217
1570715063,-1.6202698,-8.214508,3.9743805,0.06762695,2.4220123,1.1479034,0.14132023,2.252346,2.7003205
1570715063,-1.4556732,-8.2282715,3.7295685,0.20077515,2.465683,1.2597504,0.33094716,2.1571684,2.4397254
1570715063,2.2080536,-7.373535,-1.2940674,1.2553864,2.1184082,1.7210083,3.0177994,2.4374256,-1.6418442
1570715063,2.6120758,-8.870514,-10.800842,-1.3662262,-0.98683167,-0.7599945,6.379394,2.3372211,-12.925135
1570715063,0.6188965,-11.091736,1.3581085,-1.7763519,0.088012695,-0.8047333,2.6362267,-0.9114628,0.70736545
1570715063,0.5464783,-10.965439,1.50177,-1.762497,0.2882843,-0.83029175,2.410801,-0.6210985,1.1284161
1570715063,0.26275635,-11.029495,1.593338,-1.3630371,1.1894989,-1.15094,1.8745335,-0.54741573,1.6853133
1570715063,-1.043869,-9.980835,-2.7222137,-2.145996,-1.0763245,-0.9954071,-0.03510201,0.29465485,-2.7127442
1570715063,1.0414734,-10.152618,4.5034943,-1.6495819,-2.9416046,-1.3522797,1.9344298,0.31185532,5.936767
1570715063,-0.5602417,-10.391434,1.1109161,-0.5449066,-2.6198883,-1.5216522,0.054406643,-0.01696968,3.0745301
1570715063,-1.4119873,-10.611694,0.55426025,-0.58432007,-2.790329,-1.4801025,-1.0004758,-0.16021919,2.3249621
1570715063,-1.8423309,-10.7739105,0.165802,-0.6407776,-3.0513153,-0.7919464,-1.8053305,-0.5323429,2.0916467
1570715063,-1.3970184,-11.033081,-0.123306274,-0.48631287,-3.3250885,-0.24014282,-1.2158818,-0.5921278,1.9868987
1570715063,-0.74220276,-11.381439,0.4441223,-0.39364624,-3.588211,0.27651978,-0.38187268,-1.128871,2.5399253
1570715063,1.0893555,-10.979813,1.5562286,-0.30628967,-3.0854034,0.16572571,1.8510137,-0.6517973,3.7094877
1570715063,1.3772583,-12.380417,2.2553406,-0.48312378,-1.3990936,-0.10272217,2.3782601,-2.0364647,4.4474783
1570715063,1.9051819,-14.004883,1.5807648,-0.16140747,1.1575317,-0.047332764,2.7426047,-2.9329977,4.001649
1570715063,1.9051819,-14.004883,1.5807648,-0.16140747,1.1575317,-0.047332764,2.7426047,-2.9329977,4.001649
1570715063,3.0017242,-17.854752,3.5320435,0.52568054,0.7399597,0.022979736,3.4038692,-7.1769934,5.248804
1570715063,-1.7256165,-12.026077,7.557892,3.895111,2.5210724,0.12524414,-1.0817673,-1.4129457,9.755025
1570715063,-1.8136139,-12.163742,6.64151,4.003769,2.6680908,0.17211914,-1.2991242,-1.4772978,7.8205223
1570715063,-3.2764587,-15.385147,-5.6084137,3.846115,3.3754272,1.110611,-2.7165136,-4.9652452,-7.173152
1570715063,-2.1290436,-10.893616,-7.697357,1.772049,-0.17085266,0.75161743,-0.16875231,-1.0153465,-9.4577875
1570715063,-1.6502075,-11.430511,-3.4925385,1.4343567,-0.7865753,0.049606323,-0.2656474,-1.0787048,-5.637781
1570715063,4.8003693,-10.146027,2.6623535,1.2596436,0.12423706,-0.044128418,5.603556,0.05472374,-1.602279
1570715063,4.8003693,-10.146027,2.6623535,1.2596436,0.12423706,-0.044128418,5.603556,0.05472374,-1.602279
1570715063,1.7447815,-12.537231,4.2161865,1.8657837,0.04006958,-0.98475647,4.1541247,-1.9788036,0.8519404
1570715063,-2.190689,-5.85083,-2.9819794,1.8444824,1.717865,-0.57569885,-1.1200045,3.5972214,-7.349257
1570715063,-1.9782104,-5.628769,-3.114853,1.8444824,1.717865,-0.57569885,-1.1200045,3.5972214,-7.349257
1570715063,-0.96725464,-5.6580963,-3.6637268,0.50756836,1.079773,-0.7599945,0.24945354,3.8699665,-8.425109
1570715064,-1.5101471,-5.2905884,-1.4550781,-0.7355957,0.95513916,-0.22842407,-0.45915556,4.218051,-5.701529
1570715064,-1.482605,-5.19722,-1.7178345,-0.7483673,0.9657898,-0.21244812,-0.45915556,4.218051,-5.701529
1570715064,-2.1607666,-7.7033386,0.6177063,-2.5795593,-0.5095978,0.09222412,-1.0357865,2.3329353,-3.0247529
1570715064,-2.1607666,-7.7033386,0.6177063,-2.5795593,-0.5095978,0.09222412,-1.0357865,2.3329353,-3.0247529
1570715064,-2.236786,-19.136261,19.612701,-1.8988647,-1.2510223,-0.0345459,-1.510216,-8.130323,16.412672
1570715064,-2.3128052,-6.7654114,3.5278625,0.14324951,0.42356873,-0.7962036,-0.35789722,3.228796,1.5874045
1570715064,-3.0591888,-6.668457,3.0849304,0.14538574,0.45233154,-0.72483826,-1.9983137,3.4945393,0.6706283
1570715064,-3.4817657,-17.504013,1.3150177,-0.46820068,-1.1263885,1.588913,-3.1157882,-7.5772924,-1.574744
1570715064,-3.4817657,-17.504013,1.3150177,-0.46820068,-1.1263885,1.588913,-3.1157882,-7.5772924,-1.574744
1570715064,1.1713562,-11.377838,4.8362885,-0.17951965,3.911255,1.0040894,2.9870193,-0.9610882,3.2960238
1570715064,0.9463043,-7.8290405,-5.0511627,1.0945282,2.7565002,0.85388184,3.4988449,2.0986729,-6.9536576
1570715064,0.9463043,-7.8290405,-5.0511627,1.0945282,2.7565002,0.85388184,3.4988449,2.0986729,-6.9536576
1570715064,0.18974304,-10.926544,-4.9230804,-1.3513184,-1.3799133,-0.65133667,2.8711061,-0.61726665,-6.715898
1570715064,1.4814148,-12.081146,2.059616,-2.0746307,-0.25712585,-0.9304352,3.6415744,-2.0236683,0.82057655
1570715064,1.9812012,-9.962875,-1.3766632,-1.7326813,0.30639648,-1.3671875,3.8974953,0.41792583,-1.3814274
1570715064,1.9812012,-9.962875,-1.3766632,-1.7326813,0.30639648,-1.3671875,3.8974953,0.41792583,-1.3814274
1570715064,-1.1414337,-9.886856,0.9002228,-2.225891,-1.7016296,-1.8902283,-0.06803197,0.62700653,1.6444921
1570715064,-1.1414337,-9.886856,0.9002228,-2.225891,-1.7016296,-1.8902283,-0.06803197,0.62700653,1.6444921
1570715064,-3.5057068,-10.468048,2.7527313,-1.377945,-0.767395,-0.69714355,-3.4386332,-0.13887405,4.5551023
1570715064,-3.5057068,-10.468048,2.7527313,-1.377945,-0.767395,-0.69714355,-3.4386332,-0.13887405,4.5551023
1570715064,-3.6505585,-10.238205,1.2689209,-0.85276794,0.35432434,-0.054779053,-3.696136,0.16057873,3.6973903
1570715064,-2.2565308,-10.548859,0.04309082,-0.46287537,0.6398163,0.63656616,-2.289549,-0.22442532,2.2720523
1570715064,1.6178894,-11.853699,0.23822021,-0.60136414,1.2747192,1.0296631,1.5031517,-1.521596,2.7362025
1570715064,4.3227386,-12.042831,0.5123596,-0.85809326,0.74635315,0.23710632,4.6565514,-1.9912481,3.1654859
1570715064,1.7800903,-12.543823,1.0905609,-0.0697937,-0.37324524,-0.46810913,2.1931336,-2.412261,3.9496205
1570715064,1.7800903,-12.543823,1.0905609,-0.0697937,-0.37324524,-0.46810913,2.1931336,-2.412261,3.9496205
1570715064,-1.1444244,-13.794785,7.8571777,1.1456604,-0.5287781,0.4363098,-0.97390294,-3.527174,10.39324
1570715064,-1.1444244,-13.794785,7.8571777,1.1456604,-0.5287781,0.4363098,-0.97390294,-3.527174,10.39324
1570715064,1.984787,-17.417221,5.933426,3.0844421,1.6262512,0.87838745,2.4716146,-6.9383135,7.836685
1570715064,4.515457,-14.050369,-1.5909424,4.008026,2.4710083,0.7505493,4.932241,-4.1204166,0.43965614
1570715064,-0.09996033,-13.438049,-7.198166,3.2527618,1.3812408,0.27864075,0.43517524,-2.868019,-7.7746973
1570715064,-2.3936005,-11.978195,-1.5951385,1.8125305,-0.68429565,0.77931213,-1.6329798,-1.7872,-3.3056247
1570715064,-2.3936005,-11.978195,-1.5951385,1.8125305,-0.68429565,0.77931213,-1.0132983,-1.4697294,-3.3328476
1570715065,1.6519928,-11.658569,0.50038147,1.99469,-0.25393677,-0.082473755,2.835908,-1.5226927,-1.9383488
1570715065,1.6519928,-11.658569,0.50038147,1.99469,-0.25393677,-0.082473755,2.835908,-1.5226927,-1.9383488
1570715065,1.6519928,-11.658569,0.50038147,1.99469,-0.25393677,-0.082473755,2.835908,-1.5226927,-1.9383488
1570715065,1.6519928,-11.658569,0.50038147,1.99469,-0.25393677,-0.082473755,2.835908,-1.5226927,-1.9383488
1570715065,1.6519928,-11.658569,0.50038147,1.99469,-0.25393677,-0.082473755,2.835908,-1.5226927,-1.9383488
1570715065,1.6519928,-11.658569,0.50038147,1.99469,-0.25393677,-0.082473755,2.835908,-1.5226927,-1.9383488
1570715065,1.6519928,-11.658569,0.50038147,1.99469,-0.25393677,-0.082473755,2.835908,-1.5226927,-1.9383488
1570715065,1.6519928,-11.658569,0.50038147,1.99469,-0.25393677,-0.082473755,2.835908,-1.5226927,-1.9383488
1570715065,1.6519928,-11.658569,0.50038147,1.99469,-0.25393677,-0.082473755,2.835908,-1.5226927,-1.9383488
1570715065,2.2541351,-9.712082,0.12210083,1.99469,-0.25393677,-0.082473755,-1.5409304,3.3077803,-4.6808224
1570715065,-0.008377075,-12.485168,8.00621,0.1847992,0.57910156,-0.3445282,1.4120787,-5.894144,9.037805
1570715065,-0.21188354,-9.539703,5.6826324,0.11769104,0.4139862,-0.42655945,0.9461248,-0.7982073,3.6703281
1570715065,-0.21188354,-9.539703,5.6826324,0.11769104,0.4139862,-0.42655945,0.9461248,-0.7982073,3.6703281
1570715065,-0.21188354,-9.539703,5.6826324,0.11769104,0.4139862,-0.42655945,0.9461248,-0.7982073,3.6703281
1570715065,-0.21188354,-9.539703,5.6826324,0.11769104,0.4139862,-0.42655945,0.9461248,-0.7982073,3.6703281
1570715065,-0.21188354,-9.539703,5.6826324,0.11769104,0.4139862,-0.42655945,0.9461248,-0.7982073,3.6703281
1570715065,-0.21188354,-9.539703,5.6826324,0.11769104,0.4139862,-0.42655945,0.9461248,-0.7982073,3.6703281
1570715065,-0.21188354,-9.539703,5.6826324,0.11769104,0.4139862,-0.42655945,0.9461248,-0.7982073,3.6703281
1570715065,-0.21188354,-9.539703,5.6826324,0.11769104,0.4139862,-0.42655945,0.9461248,-0.7982073,3.6703281
1570715065,-0.21188354,-9.539703,5.6826324,0.11769104,0.4139862,-0.42655945,0.9461248,-0.7982073,3.6703281
1570715065,-0.21188354,-9.539703,5.6826324,0.11769104,0.4139862,-0.42655945,0.9461248,-0.7982073,3.6703281
1570715065,2.8054047,-10.306442,1.6430206,0.11769104,0.4139862,-0.42655945,4.3852863,-1.3786478,-2.7563434
1570715065,1.1510162,-10.576981,2.2499542,0.72488403,-0.62997437,0.6174011,4.3852863,-1.3786478,-2.7563434
1570715065,-0.6781616,-9.464279,2.7138214,-1.1276093,-1.228653,-1.4247131,0.4012437,0.37919903,4.026236
1570715065,-2.7647095,-10.407593,-1.225235,-0.8708801,-1.0848389,-1.1104584,-2.371395,-0.27116585,0.35456598
1570715065,-2.803009,-10.262146,-1.3269806,-0.9113617,-1.1082764,-1.1136627,-2.5143423,-0.005877495,0.2164917
1570715065,-4.158127,-10.17775,-1.3946228,-1.461029,-1.8145447,-0.47982788,-4.1302547,0.09722328,0.56043386
1570715065,-3.9354706,-10.600327,-0.5392914,-1.3758087,-2.0542297,-0.031341553,-3.979357,-0.21121693,1.3625021
1570715065,-0.056259155,-12.519287,2.3936005,-0.19656372,-0.9655304,1.1489716,0.6688304,-2.4631863,4.943443
1570715065,4.2880096,-11.868652,2.3253632,-0.65356445,0.6685791,0.37451172,5.291632,-1.7904911,4.84017
1570715065,4.2880096,-11.868652,2.3253632,-0.65356445,0.6685791,0.37451172,5.291632,-1.7904911,4.84017
1570715065,3.5877075,-13.080719,2.1577759,-0.29882812,0.841156,-0.1133728,4.5913386,-3.0224638,5.0297556
1570715065,3.6954498,-11.863861,2.1446075,0.26895142,-0.42118835,0.07624817,4.5635786,-2.1703548,4.7405605
1570715066,2.8239594,-16.320068,7.056305,2.346222,0.4044037,-0.22096252,3.7868292,-5.8783884,8.7751255
1570715066,2.8874054,-16.646286,7.2239075,2.4612732,0.57377625,-0.25611877,3.7868292,-5.8783884,8.7751255
1570715066,1.6112976,-15.461761,3.775055,3.6202698,1.9916382,-0.32643127,2.3760743,-5.509595,5.7135086
1570715066,-0.0029907227,-14.499283,-2.3211823,4.3648987,1.7881775,-0.19859314,0.7012663,-3.9412794,-2.2292345
1570715066,-4.122223,-15.600021,-9.237427,2.3728485,0.64727783,0.69729614,-3.2003412,-5.7608223,-11.388113
1570715066,-7.5836334,-12.672516,-6.139923,1.6495361,-2.086197,-0.3455963,-6.6585307,-2.2473125,-8.317085
1570715066,2.565979,-11.426331,8.689758,1.0061188,1.2416992,-0.17303467,2.9490862,-1.333066,6.6353664
1570715066,7.0934143,-9.615112,0.44352722,1.4428711,1.7966919,-0.4851532,6.8769383,0.39620972,-0.36406946
1570715066,5.9519806,-11.623856,-1.4778137,1.2809601,0.16151428,-1.3000793,6.7296934,-1.378849,-4.5684967
1570715066,0.1490326,-11.645401,2.6102753,2.047943,1.7050781,-0.6289673,0.21793741,-1.8773441,-0.097741604
1570715066,-2.8538818,-4.3341064,-3.3512878,0.79200745,2.3016357,-0.7631836,-2.0902343,5.195505,-7.85317
1570715066,-3.1525726,-4.3939514,-3.2459412,0.67163086,2.1876526,-0.7876892,-2.0902343,5.195505,-7.85317
1570715066,-3.9516296,-4.7901917,-2.2074585,-0.33184814,1.1223907,-0.6705017,-3.4129748,4.6485767,-6.6606436
1570715066,-2.8239594,-5.4324493,-1.8153992,-1.0519714,0.5897522,-0.37435913,-2.2661462,4.147291,-5.860227
1570715066,-1.7848816,-6.5672913,-0.4920044,-1.4866028,0.07203674,-0.13148499,-1.237317,3.1276388,-4.415307
1570715066,-2.261917,-9.144058,3.5045166,-2.019226,-0.6821747,-0.013244629,-1.590914,0.8972721,-0.11413574
1570715066,3.6858673,-19.612701,18.522736,-0.7909851,0.63023376,0.3851776,1.8094052,-9.575363,16.357615
1570715066,3.509903,-18.515564,10.152618,-0.1635437,0.9061432,-0.40951538,5.44604,-9.467849,9.245016
1570715066,-1.4257507,-6.5164185,3.2842407,0.17947388,0.25738525,-0.17835999,-0.29103833,2.9516258,1.3937292
1570715066,-8.291122,-11.274887,-6.487091,-0.9528961,-1.245697,0.6802521,-6.8203583,-0.1682167,-8.318716
1570715066,-7.6698303,-18.850754,0.23043823,-0.6663513,-3.5487976,1.1596222,-7.002386,-8.275786,-2.821961
1570715066,-1.474823,-8.441956,2.323578,-0.49591064,-0.44462585,0.44802856,-0.4424373,1.7540846,0.48451233
1570715066,-1.474823,-8.441956,2.323578,-0.49591064,-0.44462585,0.44802856,-0.4424373,1.7540846,0.48451233
1570715066,-1.932724,-8.7699585,0.30645752,0.33605957,0.16151428,0.6536102,-0.7779478,1.5034161,-1.4890816
1570715066,2.0578156,-8.074448,-2.1457977,-0.7121582,3.768509,0.92951965,3.691356,2.568801,-3.7798572
1570715066,1.742981,-12.554001,-3.885788,-1.123352,3.9410706,0.65148926,3.8313375,-2.259673,-4.9549713
1570715066,5.747284,-12.262497,-7.0940247,-2.0565186,0.31811523,-0.6694336,8.078945,-2.0881271,-7.743966
1570715066,3.2399597,-10.446503,-0.4010315,-2.4932709,-3.3975372,-1.1647949,5.1123915,-0.41944122,-1.0617833
1570715066,3.3147736,-9.210495,1.8722687,-1.9819489,-4.441498,-1.4811707,4.9175186,1.0852337,2.1932664
1570715066,0.45610046,-11.237778,1.2288208,-1.9606476,-5.1275177,-1.8114014,1.3816922,-0.716712,2.0900016
1570715066,-0.6655884,-13.329117,4.6824646,-2.3611755,-4.592758,-1.1307068,0.15181988,-3.0849142,5.4175224
1570715066,-1.450882,-10.06044,4.4693756,0.20291138,0.1434021,0.13909912,-1.0233338,0.28694153,7.554105
1570715066,-1.450882,-10.06044,4.4693756,0.20291138,0.1434021,0.13909912,-1.0233338,0.28694153,7.554105
1570715066,0.21487427,-11.195282,-2.1715393,1.2255554,0.16897583,0.8613434,0.98899436,-0.8492069,-0.37152553
1570715066,0.21487427,-11.195282,-2.1715393,1.2255554,0.16897583,0.8613434,0.98899436,-0.8492069,-0.37152553
1570715067,1.2222443,-11.529877,0.19392395,-0.77926636,-1.7793884,-0.0015258789,2.4872077,-1.2756052,1.2314793
1570715067,1.2222443,-11.529877,0.19392395,-0.77926636,-1.7793884,-0.0015258789,2.4872077,-1.2756052,1.2314793
1570715067,1.4658508,-11.434708,2.032074,-0.6279907,-0.8387604,-0.0664978,2.6382651,-1.0796709,3.348528
1570715067,1.0330963,-12.31398,1.2874756,-1.0583649,2.8332062,-0.19007874,2.1101067,-1.9128942,3.4643726
1570715067,0.41479492,-13.423096,1.0761871,-0.8314667,2.5221405,-0.110183716,1.3216419,-3.1446714,3.3367722
1570715067,1.5179291,-15.835846,5.5114594,-0.0697937,1.286438,0.03895569,1.8626038,-5.2646723,6.8083706
1570715067,0.79966736,-12.746124,-1.0127411,4.209366,1.9937744,-0.33494568,1.2552032,-2.4895096,0.42454332
1570715067,0.79966736,-12.746124,-1.0127411,4.209366,1.9937744,-0.33494568,1.2552032,-2.4895096,0.42454332
1570715067,-4.2066193,-15.078079,-6.5445557,2.4452972,0.5130615,0.83258057,-3.7140257,-4.6293325,-8.201727
1570715067,-4.2365417,-15.093048,-6.4769135,2.3270416,0.42782593,0.92419434,-3.7140257,-4.6293325,-8.201727
1570715067,-6.4858856,-12.397171,-0.47166443,0.5981293,0.30532837,-0.45851135,-5.904049,-1.8939409,-3.154132
1570715067,0.9546814,-11.407776,5.31752,1.329956,2.2089539,-0.04626465,1.4777205,-1.1520815,4.541712
1570715067,4.1198273,-10.180145,-1.1785431,1.7304993,1.4781799,-0.13360596,4.9345093,0.20462799,-3.6519632
1570715067,4.1198273,-10.180145,-1.1785431,1.7304993,1.4781799,-0.13360596,4.9345093,0.20462799,-3.6519632
1570715067,4.1198273,-10.180145,-1.1785431,1.7304993,1.4781799,-0.13360596,4.9345093,0.20462799,-3.6519632
1570715067,4.1198273,-10.180145,-1.1785431,1.7304993,1.4781799,-0.13360596,4.9345093,0.20462799,-3.6519632
1570715067,4.1198273,-10.180145,-1.1785431,1.7304993,1.4781799,-0.13360596,4.9345093,0.20462799,-3.6519632
1570715067,4.1198273,-10.180145,-1.1785431,1.7304993,1.4781799,-0.13360596,4.9345093,0.20462799,-3.6519632
1570715067,4.1198273,-10.180145,-1.1785431,1.7304993,1.4781799,-0.13360596,4.9345093,0.20462799,-3.6519632
1570715067,4.1198273,-10.180145,-1.1785431,1.7304993,1.4781799,-0.13360596,4.9345093,0.20462799,-3.6519632
1570715067,4.1198273,-10.180145,-1.1785431,1.7304993,1.4781799,-0.13360596,4.9345093,0.20462799,-3.6519632
1570715067,4.1198273,-10.180145,-1.1785431,1.7304993,1.4781799,-0.13360596,4.9345093,0.20462799,-3.6519632
1570715067,4.1198273,-10.180145,-1.1785431,1.7304993,1.4781799,-0.13360596,4.9345093,0.20462799,-3.6519632
1570715067,4.1198273,-10.180145,-1.1785431,1.7304993,1.4781799,-0.13360596,4.9345093,0.20462799,-3.6519632
1570715067,-7.2274933,-18.868103,-0.14006042,-0.42666626,-3.3719635,1.4344635,-6.7586374,-8.565488,-3.6186235
1570715067,-7.2274933,-18.868103,-0.14006042,-0.42666626,-3.3719635,1.4344635,-6.7586374,-8.565488,-3.6186235
1570715067,-0.7362213,-8.960297,4.0970764,-0.45115662,0.27656555,0.52685547,0.66575134,1.1462288,1.8577361
1570715067,-0.7362213,-8.960297,4.0970764,-0.45115662,0.27656555,0.52685547,0.66575134,1.1462288,1.8577361
1570715067,0.14964294,-8.349182,2.1039124,0.41062927,2.6904602,1.0488281,1.1416239,1.478199,0.5351598
1570715067,5.7496796,-13.57991,-6.032791,-1.8626404,0.9721832,-0.5085907,7.830798,-3.1230688,-8.317927
1570715067,5.7496796,-13.57991,-6.032791,-1.8626404,0.9721832,-0.5085907,7.830798,-3.1230688,-8.317927
1570715067,1.4879913,-8.982452,2.482788,-1.268219,-1.9242706,-1.2595978,3.1366208,1.2403126,2.141651
1570715067,1.4879913,-8.982452,2.482788,-1.268219,-1.9242706,-1.2595978,3.1366208,1.2403126,2.141651
1570715068,-0.5608368,-8.771759,0.5877838,-1.076477,-1.897644,-1.486496,0.9805504,1.7021637,1.1254936
1570715068,-1.869873,-11.492172,0.91937256,-1.3385315,-2.7509155,-1.3970184,-1.2476287,-0.965724,1.8554813
1570715068,-1.9734192,-11.531067,0.8164215,-1.2937927,-2.7786102,-1.3512115,-1.5663472,-1.0453615,1.7841325
1570715068,-2.33255,-10.208282,0.31604004,-1.1979065,-2.7509155,-0.60339355,-2.3230114,-0.0518713,1.5238796
1570715068,-2.2709045,-9.814438,0.26216125,-1.2959137,-2.647583,-0.53414917,-2.2883816,0.42535877,1.7366433
1570715068,-2.9005737,-11.225815,0.37348938,-1.4258881,-2.7626343,-0.09739685,-2.8348641,-0.71435547,2.0798597
1570715068,-1.146225,-12.706024,3.1615448,-1.377945,-2.0212097,0.7739868,-1.528882,-2.2405415,4.601737
1570715068,2.2499542,-11.887817,6.6187744,-0.5640869,1.063797,0.47251892,2.6152325,-1.9687719,9.31451
1570715068,4.2108,-12.412735,2.7509308,0.3339386,3.1900635,0.2871704,4.411645,-2.1747427,6.173236
1570715068,3.0532074,-14.774612,2.4360962,2.2897644,-1.0411682,-0.65026855,3.70862,-4.1875772,4.350175
1570715068,3.0532074,-14.774612,2.4360962,2.2897644,-1.0411682,-0.65026855,3.70862,-4.1875772,4.350175
1570715068,-2.9167328,-15.068512,3.3303375,3.1238708,1.2970886,-0.5724945,-3.2623053,-4.645975,3.8261206
1570715068,-2.9167328,-15.068512,3.3303375,3.1238708,1.2970886,-0.5724945,-3.2623053,-4.645975,3.8261206
1570715068,-9.746201,-12.949036,-8.5993805,2.3078766,-1.7133484,-0.053710938,-9.168516,-2.9724035,-10.923882
1570715068,-9.746201,-12.949036,-8.5993805,2.3078766,-1.7133484,-0.053710938,-9.168516,-2.9724035,-10.923882
1570715068,-2.9580383,-8.905228,1.6466064,0.7291565,-1.8262634,0.32551575,-4.6490984,1.1998339,-0.57828736
1570715068,-2.9580383,-8.905228,1.6466064,0.62475586,-1.5141449,0.37239075,-3.8904777,1.285716,-1.11777
1570715068,1.1671753,-11.094131,0.9864044,2.2279816,-0.09840393,0.649353,1.6743588,-1.9769335,-3.3926394
1570715068,1.1671753,-11.094131,0.9864044,2.2279816,-0.09840393,0.649353,1.6743588,-1.9769335,-3.3926394
1570715068,1.6418304,-5.779602,-2.1134796,0.53100586,0.44914246,-0.45957947,2.2334385,3.427143,-6.3567095
1570715068,1.6418304,-5.779602,-2.1134796,0.53100586,0.44914246,-0.45957947,2.2334385,3.427143,-6.3567095
1570715068,-1.0522461,-5.0846863,-2.1547852,-0.55236816,0.08161926,-0.62364197,-1.0157263,4.5835323,-6.496767
1570715068,-1.9015961,-5.739502,-1.367691,-1.0477142,-0.21026611,-0.24121094,-1.8043983,4.048374,-5.43893
1570715068,-1.1851349,-11.520294,6.83963,-1.4461212,-2.4973907,0.22964478,-1.6629797,-0.44500923,1.849932
1570715068,-1.1851349,-11.520294,6.83963,-1.4461212,-2.4973907,0.22964478,-1.6629797,-0.44500923,1.849932
1570715068,-0.8271942,-17.991821,15.252258,-0.4607544,-3.4944763,0.065597534,-1.9882703,-6.745367,11.546803
1570715068,-3.4135284,-7.0970154,0.43275452,-0.5885773,-1.3799133,0.18595886,-3.909916,2.774438,1.014379
1570715068,-3.5763397,-7.1203613,-0.6613922,-0.60243225,-1.4619446,0.22325134,-4.1657214,3.0581903,-1.395952
1570715068,-5.8645935,-15.874161,-5.5138397,-1.6059113,-3.4326782,1.2554932,-7.5368276,-3.5014372,-8.797859
1570715068,-3.1729126,-10.348343,-0.7146759,-0.45436096,-2.6571655,0.1880951,-4.7437253,-0.6571398,-2.7679763
1570715068,-3.1729126,-10.348343,-0.7146759,-0.45436096,-2.6571655,0.1880951,-4.7437253,-0.6571398,-2.7679763
1570715068,0.2460022,-8.6436615,-1.561615,-1.3065643,1.9831238,0.5332489,-0.4217829,2.1769447,-2.1168516
1570715068,0.42497253,-8.723267,-1.5675964,-1.4216156,2.3943176,0.5747833,-0.4217829,2.1769447,-2.1168516
1570715069,4.4412384,-11.623245,-4.648941,-0.5853882,2.3048248,0.25201416,3.6783066,0.105587006,-5.1046925
1570715069,4.4412384,-11.623245,-4.648941,-0.5853882,2.3048248,0.25201416,3.6783066,0.105587006,-5.1046925
1570715069,4.4568024,-10.714645,2.3139954,-1.7007141,-7.3177032,-1.6154022,3.9322624,-1.033844,2.65514
1570715069,4.4568024,-10.714645,2.3139954,-1.7007141,-7.3177032,-1.6154022,3.9322624,-1.033844,2.65514
