time,ax,ay,az,gx,gy,gz,la_x,la_y,la_z,fox,foy,foz
1570715482,1.0887604,3.5224762,9.124298,-0.30203247,0.04220581,-0.689682,1.2264364,1.8751056,-0.9005451
1570715482,0.6715698,3.1256256,10.986389,0.07081604,-0.9293213,1.0349884,-0.2686741,1.013945,1.0527592
1570715482,2.7359772,3.1328125,9.88327,-0.2104187,-1.5716705,0.32870483,2.5675855,1.7416828,-0.9074688
1570715482,-0.2561798,0.90919495,11.556808,-0.33717346,-1.039032,-0.07182312,-0.46860015,-0.2896706,1.2491951
1570715482,-0.2561798,0.90919495,11.556808,-0.33717346,-1.039032,-0.07182312,-0.46860015,-0.2896706,1.2491951
1570715482,-0.2561798,0.90919495,11.556808,-0.33717346,-1.039032,-0.07182312,-0.46860015,-0.2896706,1.2491951
1570715482,-0.2561798,0.90919495,11.556808,-0.33717346,-1.039032,-0.07182312,-0.46860015,-0.2896706,1.2491951
1570715482,-0.6320648,-0.29808044,5.4330444,-0.3201294,-0.40733337,-0.70565796,-1.9275295,-1.6448706,-4.057358
1570715482,0.23103333,-1.1348572,3.8361053,-0.98272705,-0.9378357,-0.77490234,-1.2417998,-2.3024216,-6.056883
1570715482,-3.6816864,-4.641754,3.4518433,-1.443985,-0.8408966,-0.6321564,-4.13153,-4.4598584,-6.1253386
1570715482,-3.4715881,-5.1696777,3.4045563,-1.7113647,-0.7141266,-0.11656189,-5.3518105,-5.8442287,-6.41644
1570715482,-3.4715881,-5.1696777,3.4045563,-1.7113647,-0.7141266,-0.11656189,-5.3518105,-5.8442287,-6.41644
1570715482,-3.4715881,-5.1696777,3.4045563,-1.7113647,-0.7141266,-0.11656189,-5.3518105,-5.8442287,-6.41644
1570715482,-3.4715881,-5.1696777,3.4045563,-1.7113647,-0.7141266,-0.11656189,-5.3518105,-5.8442287,-6.41644
1570715482,11.364075,-8.219299,11.375458,-4.0283203,-4.537369,0.54496765,6.522482,-4.1880956,3.4304504
1570715482,4.991913,-10.427353,16.188995,-3.6267242,-3.345337,0.41073608,2.0902824,-3.8663235,8.398983
1570715482,4.9081116,-5.922058,14.465759,-1.7699585,-2.647583,1.6730804,-0.954278,-0.67179394,9.339002
1570715482,5.023041,-5.609619,14.01326,-1.666626,-2.663559,1.7668152,-0.954278,-0.67179394,9.339002
1570715482,5.023041,-5.609619,14.01326,-1.666626,-2.663559,1.7668152,-0.954278,-0.67179394,9.339002
1570715482,5.023041,-5.609619,14.01326,-1.666626,-2.663559,1.7668152,-0.954278,-0.67179394,9.339002
1570715482,5.023041,-5.609619,14.01326,-1.666626,-2.663559,1.7668152,-0.954278,-0.67179394,9.339002
1570715482,8.429382,-4.5723267,1.6298523,-2.9939575,-1.1412964,1.0062256,3.0770726,2.9226837,-1.6037179
1570715482,7.474106,-6.3021393,5.6640778,-2.8384247,2.8992462,-0.33387756,0.5719242,1.6849751,4.330245
1570715482,7.3663635,-6.6516876,0.58717346,-2.7425537,3.1762085,-0.9858246,1.2256527,1.8664889,3.7956467
1570715482,7.3663635,-6.6516876,0.58717346,-2.7425537,3.1762085,-0.9858246,1.2256527,1.8664889,3.7956467
1570715482,7.3663635,-6.6516876,0.58717346,-2.7425537,3.1762085,-0.9858246,1.2256527,1.8664889,3.7956467
1570715482,7.3663635,-6.6516876,0.58717346,-2.7425537,3.1762085,-0.9858246,1.2256527,1.8664889,3.7956467
1570715482,15.310913,-10.172363,8.009796,2.4974823,5.3408356,-0.44360352,-0.5028806,-1.9367514,13.253206
1570715482,12.241547,-6.264435,7.530365,2.157669,5.0883636,-1.3022156,7.4463353,-0.4428959,0.60144424
1570715482,12.055405,-3.6152496,8.553284,1.997879,4.3373566,-3.144043,7.372887,2.6456943,0.9230342
1570715482,11.239578,-4.3263245,8.04512,2.011734,3.9687653,-3.7682953,7.651144,1.9825368,0.37767982
1570715482,11.239578,-4.3263245,8.04512,2.011734,3.9687653,-3.7682953,7.651144,1.9825368,0.37767982
1570715483,11.239578,-4.3263245,8.04512,2.011734,3.9687653,-3.7682953,7.651144,1.9825368,0.37767982
1570715483,11.239578,-4.3263245,8.04512,2.011734,3.9687653,-3.7682953,7.651144,1.9825368,0.37767982
1570715483,11.239578,-4.3263245,8.04512,2.011734,3.9687653,-3.7682953,7.651144,1.9825368,0.37767982
1570715483,5.7999573,-6.016632,8.807068,2.4303741,2.6638184,-1.3117981,2.9932027,-5.165273,-1.3036814
1570715483,3.9205017,-5.565323,11.335342,1.9691162,1.3940277,-0.6832886,1.9769108,-4.6753902,0.8263283
1570715483,3.9785614,-5.699997,11.444885,1.984024,1.239563,-0.5586548,1.9769108,-4.6753902,0.8263283
1570715483,3.9785614,-5.699997,11.444885,1.984024,1.239563,-0.5586548,1.9769108,-4.6753902,0.8263283
1570715483,3.9785614,-5.699997,11.444885,1.984024,1.239563,-0.5586548,1.9769108,-4.6753902,0.8263283
1570715483,3.9785614,-5.699997,11.444885,1.984024,1.239563,-0.5586548,1.9769108,-4.6753902,0.8263283
1570715483,0.9606781,-0.06225586,4.967972,-0.7419739,-0.5128021,0.42245483,-1.675035,-1.3616079,-5.277961
1570715483,-0.2531891,0.7050934,3.965393,-1.0913849,-0.9282532,0.88264465,-3.4490435,-0.19871473,-6.040827
1570715483,0.36271667,1.1767426,3.4835663,-1.1776733,-0.7428894,0.789978,-3.203549,0.40528196,-6.3660307
1570715483,0.40821838,1.1599884,3.3788147,-1.2224121,-0.6097412,0.63656616,-2.8887258,0.7388761,-6.593833
1570715483,0.40821838,1.1599884,3.3788147,-1.2224121,-0.6097412,0.63656616,-2.8887258,0.7388761,-6.593833
1570715483,0.40821838,1.1599884,3.3788147,-1.2224121,-0.6097412,0.63656616,-2.8887258,0.7388761,-6.593833
1570715483,5.41568,-14.129974,2.771286,-5.0030365,-2.455841,-0.39353943,1.2235279,-10.097277,-5.584113
1570715483,6.6038055,-16.594208,5.4019165,-6.6925507,-2.9213562,-0.13148499,1.3088112,-12.921198,-5.2757273
1570715483,11.003754,-19.612701,8.99202,-7.9144135,-2.9224243,-0.5831604,5.3914857,-13.028526,3.8497572
1570715483,11.003754,-19.612701,8.99202,-7.9144135,-2.9224243,-0.5831604,5.3914857,-13.028526,3.8497572
1570715483,9.410416,-19.612701,10.591949,-7.1527405,-2.4771423,1.1127472,2.096703,-11.898272,8.692718
1570715483,15.244476,-5.7532654,12.714401,-3.8674622,-2.3695526,1.1670685,9.834383,2.346755,12.666487
1570715483,15.244476,-5.7532654,12.714401,-3.8674622,-2.3695526,1.1670685,9.834383,2.346755,12.666487
1570715483,5.304947,1.7896729,10.056244,3.3614197,-2.9565125,0.63230896,-0.8301892,10.29472,11.726564
1570715483,5.304947,1.7896729,10.056244,3.3614197,-2.9565125,0.63230896,-0.8301892,10.29472,11.726564
1570715483,7.7847443,4.1844635,5.343857,2.0809631,-2.3237457,-1.5269775,2.4453034,13.31178,5.684924
1570715483,8.340195,-5.0583496,3.3734283,-0.36488342,-0.46592712,-1.9189911,0.8402791,6.003948,4.6282744
1570715483,8.340195,-5.0583496,3.3734283,-0.36488342,-0.46592712,-1.9189911,0.8402791,6.003948,4.6282744
1570715483,13.122025,-15.0433655,1.1073151,-0.32226562,1.1862946,-2.1725311,6.2717366,-7.418636,1.1220114
1570715483,12.402557,-15.508438,1.304245,-0.4192047,1.2896271,-2.2918396,6.2717366,-7.418636,1.1220114
1570715483,17.657242,-16.1866,-2.427719,-1.0690155,4.9754486,-4.4276886,10.365975,-8.133047,-4.0368114
1570715483,16.944962,-15.350418,-2.0177155,-0.89004517,4.841217,-4.1890717,9.172315,-10.97221,-4.538347
1570715483,-2.0626068,-13.031647,5.7371063,-1.6826019,2.914154,-0.7440033,-16.643892,-14.370664,4.1735983
1570715483,-2.0626068,-13.031647,5.7371063,-1.6826019,2.914154,-0.7440033,-16.643892,-14.370664,4.1735983
1570715484,-4.957794,-6.1890106,5.5958405,2.8053436,-1.531189,-0.88142395,-14.188595,-3.9682565,3.1352992
1570715484,-4.957794,-6.1890106,5.5958405,2.8053436,-1.531189,-0.88142395,-14.188595,-3.9682565,3.1352992
1570715484,-2.3546906,-1.0857697,-2.7844543,2.4580688,-1.1466217,0.74417114,-12.9022455,0.6840956,-5.9308753
1570715484,-2.526474,-3.0579987,2.545639,2.3994904,-1.641983,2.337799,-12.345007,0.31534123,-0.027402878
1570715484,-2.526474,-3.0579987,2.545639,2.3994904,-1.641983,2.337799,-12.345007,0.31534123,-0.027402878
1570715484,16.843216,-13.664902,-5.617401,2.4697876,-2.584732,3.2539215,2.4499588,-9.619241,-6.825988
1570715484,16.843216,-13.664902,-5.617401,2.4697876,-2.584732,3.2539215,2.4499588,-9.619241,-6.825988
1570715484,8.274368,-17.085022,7.9487457,0.3850708,0.42889404,0.8155365,2.7472906,-12.113178,3.7496998
1570715484,19.612701,-5.1648865,-0.8271942,0.11981201,2.7778015,6.190857,10.372482,0.54889774,-2.2191675
1570715484,19.612701,-5.1648865,-0.8271942,0.11981201,2.7778015,6.190857,10.372482,0.54889774,-2.2191675
1570715484,11.571182,-11.675919,15.7903595,-7.003601,-6.7318115,5.9607697,8.435665,-3.5090055,8.781566
1570715484,16.482285,-6.3182983,18.121109,-3.8610687,-0.7333069,2.304779,10.537741,3.5659323,16.422596
1570715484,4.202423,-4.155136,-0.09635925,-1.809372,1.0254517,-0.15171814,3.6962905,5.787237,-0.21391046
1570715484,2.8933868,-4.3185425,0.846344,-2.0724945,1.0179901,-0.2071228,0.372921,5.2246456,1.3047705
1570715484,5.3157196,-1.5658112,9.762955,-2.7276306,1.4728546,-1.0816956,-0.08355665,6.837307,9.221439
1570715484,5.913086,-4.076126,1.4796143,0.69506836,3.0121613,-1.4119263,0.3490572,4.92167,3.5467434
1570715484,5.913086,-4.076126,1.4796143,0.69506836,3.0121613,-1.4119263,0.3490572,4.92167,3.5467434
1570715484,9.094971,-12.160751,-2.4360962,2.0064087,2.2675476,0.9114075,1.6569691,-3.7500973,-1.8803324
1570715484,9.094971,-12.160751,-2.4360962,2.0064087,2.2675476,0.9114075,1.6569691,-3.7500973,-1.8803324
1570715484,11.684906,-19.612701,16.706146,-0.30628967,3.9741058,-2.5826569,7.233905,-11.627596,-6.991039
1570715484,11.684906,-19.612701,16.706146,-0.30628967,3.9741058,-2.5826569,7.233905,-11.627596,-6.991039
1570715484,14.987106,-3.1363983,-3.012497,2.0703125,0.69522095,-2.0830536,7.8184843,2.9879665,-6.7180815
1570715484,14.987106,-3.1363983,-3.012497,2.0703125,0.69522095,-2.0830536,7.8184843,2.9879665,-6.7180815
1570715484,-1.3581085,-8.376709,2.0925293,0.74938965,1.5463562,-1.9424286,-5.4612617,-1.7006779,-0.9636116
1570715484,-12.35228,4.7088013,-2.0452423,-0.2849884,-2.3972473,0.67492676,-18.81754,10.338245,-5.659585
1570715484,-12.35228,4.7088013,-2.0452423,-0.2849884,-2.3972473,0.67492676,-18.81754,10.338245,-5.659585
1570715484,-9.680954,1.9985657,-4.893753,-0.9401245,-4.986908,2.2067719,-19.734503,9.1523285,-10.095766
1570715484,-6.8210754,1.1402435,6.159683,1.1286163,-1.6494293,1.3385773,-12.332993,8.402151,5.051276
1570715484,13.553574,-16.770782,4.6142273,1.8274384,-1.8443756,-0.5671692,10.045843,-8.621512,7.9259167
1570715484,13.553574,-16.770782,4.6142273,1.8274384,-1.8443756,-0.5671692,10.045843,-8.621512,7.9259167
1570715484,5.8604126,-19.612701,-19.612701,-1.3225555,1.3535461,1.0403137,0.51444054,-12.741552,-21.866606
1570715484,5.8604126,-19.612701,-19.612701,-1.3225555,1.3535461,1.0403137,0.51444054,-12.741552,-21.866606
1570715484,-9.042297,-19.612701,-6.9042816,-5.023285,-0.64701843,5.0979004,-13.37048,-12.036818,-8.2702465
1570715484,7.684189,-19.612701,2.4384918,-5.9564514,-12.681305,9.701981,7.1249285,-10.254767,-0.74524677
1570715485,16.019608,-15.072098,2.434906,-3.3327026,-0.5660553,9.967224,17.511086,-3.9944115,8.12545
1570715485,12.237366,-19.612701,9.46907,0.50331116,2.0544891,5.0520935,18.709618,-11.072019,15.106977
1570715485,12.237366,-19.612701,9.46907,0.50331116,2.0544891,5.0520935,18.709618,-11.072019,15.106977
1570715485,17.823029,-0.4806366,15.10083,0.6631012,6.0438995,-0.9772949,21.91047,8.902287,19.333427
1570715485,17.460907,-1.430542,14.428055,0.7089081,6.783203,-0.96131897,21.91047,8.902287,19.333427
1570715485,2.260727,-5.5713043,1.1534119,4.4309387,-1.1956329,-1.4119263,5.7736435,3.3119516,3.8587794
1570715485,-8.466492,-19.612701,3.446457,5.886093,0.14553833,-1.4023438,-5.052783,-8.851482,4.1615477
1570715485,-19.612701,-19.612701,17.891876,8.323425,-2.0030975,2.6211548,-17.642338,-9.757976,15.470775
1570715485,-15.102631,-19.612701,-19.612701,5.169174,-1.5919037,0.37771606,-8.6951,-10.217855,-17.989025
1570715485,-19.612701,-19.612701,-3.5404205,1.7944183,-7.5627136,-4.04953,-17.352057,-10.223866,-11.133203
1570715485,0.58000183,-0.40760803,-18.125305,7.0365753,4.4023285,-1.8018188,-0.3573776,-3.881505,-23.12458
1570715485,-1.2719269,-0.15621948,-13.845673,6.746826,4.262787,-1.9296417,1.4968281,6.314807,-24.97708
1570715485,-1.4048004,19.3685,-19.612701,-0.5214691,4.3075256,0.5470886,0.3932736,26.369125,-26.414518
1570715485,-0.09158325,17.84877,-19.317017,-0.98165894,3.9900818,0.7047577,0.3932736,26.369125,-26.414518
1570715485,-2.7640991,9.570816,-14.626175,-4.071991,-0.19322205,1.7945099,-0.25927925,15.454536,-22.143265
1570715485,-10.125076,-0.38487244,-0.74998474,-5.4525757,-6.5432587,2.0448456,-7.6920395,8.2306795,-7.3372626
1570715485,-19.612701,-2.7102356,19.6109,-2.7159119,-6.4878693,2.7532501,-15.255878,4.8561754,15.633349
1570715485,-19.612701,-19.591751,-19.537277,-5.98201,-4.171982,2.127945,-16.852255,-10.863785,-22.484749
1570715485,-16.341019,-19.612701,-16.73906,-3.4743805,-4.399948,2.0906525,-16.637833,-10.738725,-20.952019
1570715485,10.404007,-5.37558,-4.2155914,-6.316513,8.968063,0.4714508,14.195439,5.4740744,-5.457627
1570715485,19.612701,-19.612701,-12.899353,-7.4243774,-17.147964,-1.1871643,23.91128,-11.3579445,-16.96739
1570715485,1.9279327,-19.612701,19.612701,-9.222549,-17.416412,-1.453476,23.586401,-11.456844,0.85198593
1570715485,0.9935913,-8.491043,2.6820984,-1.6847382,0.99668884,2.4730835,5.513847,-1.3408227,5.010175
1570715485,1.6334381,-8.491043,2.6820984,-1.6847382,0.99668884,2.4730835,5.513847,-1.3408227,5.010175
1570715485,15.98848,-9.384079,11.722015,-0.8783417,-0.43823242,2.2003784,18.94747,-1.3890734,7.693157
1570715485,19.612701,-7.736267,8.701721,1.0604401,4.0934143,-0.10165405,25.114132,-0.9330783,15.296279
1570715485,6.0938416,-7.8889008,3.0621796,3.5776672,0.90293884,-2.7360535,12.142258,-1.2229881,7.1819525
1570715485,-6.657074,-8.526352,2.8317413,4.4469147,-2.2086945,-2.7946472,-0.46010756,0.09028721,4.787813
1570715485,-13.022064,-19.612701,3.75531,5.118042,1.5346375,-3.0577698,-8.227179,-10.710574,10.136597
1570715485,-9.922165,-19.612701,3.9312744,5.449341,0.5993347,-3.6766815,-8.04277,-10.419005,3.464038
1570715485,6.6600647,-19.612701,5.976532,5.5760956,1.4387665,-4.9986725,4.4987817,-10.225626,5.2940817
1570715485,-5.6628876,-19.612701,-19.13446,4.6280212,-0.72691345,-5.9052124,-0.57043946,-10.4165325,-18.766645
1570715485,-8.714294,-13.0047,-17.27118,6.3537445,6.602112,-2.5112762,-12.730116,-11.238847,-12.584957
1570715486,-8.714294,-13.0047,-17.27118,6.3537445,6.602112,-2.5112762,-12.730116,-11.238847,-12.584957
1570715486,-15.868164,19.612701,-19.612701,3.0546265,7.1592407,-0.8089905,-19.280264,21.384048,-26.116562
1570715486,-10.840347,1.7525482,-3.4099426,-4.260544,-5.2638702,2.0725555,-11.546309,10.322325,-11.920171
1570715486,-10.840347,1.7525482,-3.4099426,-4.260544,-5.2638702,2.0725555,-11.546309,10.322325,-11.920171
1570715486,-3.5057068,-1.869278,0.74339294,-4.296768,-6.154434,2.3623047,-4.0250864,5.9966917,-3.6051207
1570715486,-1.1911163,-9.214691,-0.9606781,-4.211548,-7.9270325,0.30207825,-2.1080854,1.0377846,-2.0308073
1570715486,-0.5793915,-14.289795,5.596451,-0.50868225,-7.1728363,4.3053436,-1.0429745,-9.278764,4.4504814
1570715486,-0.893631,-12.673111,6.0633087,-0.27859497,-6.665756,4.1412964,-1.0429745,-9.278764,4.4504814
1570715486,14.879364,-19.612701,-1.7926636,3.590454,8.913727,4.646225,14.2744055,-10.450061,4.4588876
1570715486,17.656631,-19.582169,-14.624985,3.0205383,10.360352,4.646225,18.51312,-11.078263,-10.145035
1570715486,4.786606,-19.612701,19.612106,-14.417847,-8.049545,0.4309845,11.178179,-11.241689,-12.807148
1570715486,-2.7826538,-15.8298645,5.015259,-2.956665,2.3133545,3.1687012,-2.2349062,-10.086625,9.8652
1570715486,19.612701,-2.0350647,9.410416,0.7089081,-1.5993652,1.9148865,24.00068,5.2704916,14.592407
1570715486,17.444748,-8.5598755,4.146759,1.3992004,2.0640717,-0.86331177,23.392052,-0.66671085,6.8868647
1570715486,14.553162,-8.403641,5.062546,1.4514008,2.3037567,-1.3192596,21.128984,-1.0103688,6.49364
1570715486,7.8918915,-8.492233,8.098389,3.3582153,-0.27630615,-2.7403107,12.623831,-0.52409506,10.586937
1570715486,-1.2461853,-6.95636,-8.122925,4.5385284,-1.2158661,-4.1091766,-0.056138873,1.3378639,-7.358322
1570715486,-1.2461853,-6.95636,-8.122925,4.5385284,-1.2158661,-4.1091766,-0.056138873,1.3378639,-7.358322
1570715486,0.7954712,-19.612701,0.19392395,5.423767,2.73732,-7.4391937,-0.6342408,-11.248622,0.59380245
1570715486,0.9870148,-19.612701,-2.6228485,5.2831573,2.496582,-7.5425262,-0.6342408,-11.248622,0.59380245
1570715486,-10.128067,-19.612701,-19.600723,1.5323639,-0.82385254,-7.7843475,-4.334339,-11.812174,-23.038303
1570715486,-15.051147,7.5806427,-11.666351,3.8983154,7.576828,-1.9573517,-18.555555,8.166255,-18.22958
1570715486,-15.304932,9.879074,-10.046066,3.781128,7.4862823,-1.8710632,-18.555555,8.166255,-18.22958
1570715486,-10.822983,12.744934,-19.612701,-1.9467926,7.3456573,0.743103,-12.04368,20.277885,-24.183498
1570715486,-9.838974,7.4381866,-19.612701,-4.551361,-0.93569946,1.6464386,-10.814671,13.341341,-25.032068
1570715486,-3.5937042,0.8307953,-5.8568115,-5.278946,-6.6529846,-0.04626465,-4.971354,9.642126,-12.757284
1570715486,-12.785629,-6.343445,19.465454,-3.8568115,-2.8478546,-0.8558655,-8.449503,3.7060356,13.016453
1570715486,-5.4539948,-10.794861,-14.709976,-0.7952423,-8.020782,0.50341797,-5.4329166,1.6107664,-20.234749
1570715486,-5.4539948,-10.794861,-14.709976,-0.7952423,-8.020782,0.50341797,-5.4329166,1.6107664,-20.234749
1570715486,0.5632324,-10.216064,-7.118561,2.0799103,-6.5091705,3.2209015,1.9913902,-5.07786,-4.495681
1570715486,-3.0986938,-2.8856049,-4.760269,0.59706116,-7.4370117,2.6041107,-3.6880367,3.5222425,-10.742388
1570715486,-18.981827,-19.612701,-4.7890015,2.5539398,5.221527,3.453125,-16.130636,-11.322997,-2.164228
1570715486,19.612701,-19.612701,19.612701,-5.184128,-11.296463,1.2256622,22.153187,-12.135035,21.74563
1570715486,19.612701,-19.612701,19.612701,-5.184128,-11.296463,1.2256622,22.153187,-12.135035,21.74563
1570715487,19.093155,-9.426575,18.470673,0.914505,-0.7663269,1.9127655,20.583447,-2.4913063,20.726059
1570715487,19.093155,-9.426575,18.470673,0.914505,-0.7663269,1.9127655,20.583447,-2.4913063,20.726059
1570715487,13.689453,-7.0413513,2.5151062,1.6985474,2.76503,-0.15278625,19.418554,-0.87132454,5.1302466
1570715487,8.892059,-0.5524597,8.485046,4.0794067,-0.56073,-1.9466858,12.387788,6.347375,9.016763
1570715487,8.892059,-0.5524597,8.485046,4.0794067,-0.56073,-1.9466858,12.387788,6.347375,9.016763
1570715487,11.911758,-19.612701,1.6304474,5.3300323,3.5032501,-8.138016,19.507185,-11.79817,-0.6191697
1570715487,9.682144,-19.612701,3.5033112,5.3033905,3.1889954,-8.062378,19.507185,-11.79817,-0.6191697
1570715487,-17.92659,-19.612701,-2.0925293,1.851944,-4.508606,-5.1371613,-20.917646,-12.590644,-12.255796
1570715487,-17.92659,-19.612701,-2.0925293,1.851944,-4.508606,-5.1371613,-20.917646,-12.590644,-12.255796
1570715487,-9.01178,-8.817841,-15.500656,4.178482,6.431656,-2.328064,-8.718986,-8.907063,-14.8443985
1570715487,-17.697937,12.482773,-11.181519,3.0365143,6.530731,-1.8390961,-18.79263,15.746688,-19.250862
1570715487,-16.414642,7.119751,-15.768219,-1.8455963,6.299576,1.9372559,-19.559444,15.437233,-24.194874
1570715487,-11.772888,7.510605,-19.612701,-2.4101868,0.08375549,2.8992004,-14.051764,11.352747,-24.837906
1570715487,-5.5874634,2.3810272,-2.3128052,-3.8877106,-6.5879974,1.2405853,-6.8912582,9.455982,-8.940679
1570715487,-3.918106,-1.1994934,2.2445679,-4.4075623,-3.8651886,0.83044434,-5.2794166,5.026105,-1.0850141
1570715487,-6.7977448,-7.8769226,1.3048401,-4.498108,-4.225235,0.4363098,-8.072549,1.0688567,1.6216679
1570715487,-6.154892,-19.612701,-4.024048,1.4535217,-6.1938477,5.6220093,-12.0230255,-12.406092,-9.826971
1570715487,-6.154892,-19.612701,-4.024048,1.4535217,-6.1938477,5.6220093,-12.0230255,-12.406092,-9.826971
1570715487,0.88046265,-3.8534698,10.171768,-0.5065613,-3.790619,3.4456787,-0.83751714,3.2405171,0.48066437
1570715487,-15.599426,-19.612701,-19.612701,0.2828064,10.519089,5.376999,-15.519447,-12.313586,-18.982859
1570715487,0.037109375,-19.612701,19.612701,-2.797943,-4.8196564,1.1894379,20.997261,-12.548763,21.230335
1570715487,4.519058,-19.612701,4.6465454,-2.2184448,-4.1176453,2.4113007,-0.43704677,-12.5987835,-5.5073786
1570715487,19.612701,-7.7937317,7.1927795,1.0828247,-1.4481049,1.3918457,22.72659,-1.1814508,9.3877945
1570715487,19.612701,-7.7937317,7.1927795,1.0828247,-1.4481049,1.3918457,22.72659,-1.1814508,9.3877945
1570715487,13.165115,-1.2276306,7.858963,1.9882965,2.7117615,-0.6555939,14.433457,4.379963,8.63977
1570715487,11.875244,-0.48542786,6.977295,3.5489044,1.3982849,-1.679306,15.339249,6.231683,8.463631
1570715487,2.818573,-3.1076813,0.64463806,4.2817993,1.575119,-2.5315247,5.538786,4.097873,1.8670199
1570715487,4.5561676,-13.591278,-1.0983429,5.2746277,0.53862,-3.9994507,3.9466217,-3.7116318,-1.0352322
1570715487,-1.3766632,-19.612701,-0.08200073,4.447983,-1.3873749,-7.5947266,-0.8548938,-12.719465,0.744256
1570715487,-1.3766632,-19.612701,-0.08200073,4.447983,-1.3873749,-7.5947266,-0.8548938,-12.719465,0.744256
1570715487,18.933945,-19.612701,1.7387848,3.4562225,7.931549,-2.8681488,7.748306,-13.576471,0.7592242
1570715487,16.727692,-19.612701,-2.6851044,3.5872498,8.814667,-2.8351288,7.748306,-13.576471,0.7592242
1570715488,-16.91504,12.637192,-19.612701,-0.42027283,7.260437,0.54815674,-17.093552,21.783018,-24.772789
1570715488,-16.91504,12.637192,-19.612701,-0.42027283,7.260437,0.54815674,-17.093552,21.783018,-24.772789
1570715488,-5.980118,-1.5227051,-1.0947418,-4.4629517,-7.154724,0.35960388,-6.8396435,5.9991903,-8.972475
1570715488,-5.980118,-1.5227051,-1.0947418,-4.4629517,-7.154724,0.35960388,-6.8396435,5.9991903,-8.972475
1570715488,-7.9906464,-2.474411,18.152832,-3.9633331,-3.5956726,0.35853577,-7.3504534,2.979857,4.6599617
1570715488,-1.7112579,-8.587402,-12.832916,-0.85383606,-1.9913788,1.1734619,-1.5968455,-4.6131196,-5.6976147
1570715488,-6.5092316,-19.612701,-13.163315,0.20503235,-8.946487,3.0707092,-3.5552387,-12.955843,-13.537216
1570715488,-11.694473,-19.612701,-10.089767,0.13899231,-7.9078674,3.085617,-3.5552387,-12.955843,-13.537216
1570715488,-4.1443634,-4.849457,-3.942047,0.30517578,-3.4795532,2.9055939,-1.3969679,3.504365,-1.508742
1570715488,-7.277176,-8.503006,-8.170212,-0.099624634,-1.5706024,2.859787,-4.7716236,0.9896469,-6.931173
1570715488,-7.490265,-19.612701,-17.829025,-2.8085938,-5.067871,1.6698761,2.4579678,-13.201662,15.300446
1570715488,-7.490265,-19.612701,-17.829025,-2.8085938,-5.067871,1.6698761,2.4579678,-13.201662,15.300446
1570715488,19.612701,-7.9828644,9.293091,1.2724304,-2.8915253,1.7817383,22.601267,-0.89916945,17.621267
1570715488,19.612701,-7.9828644,9.293091,1.2724304,-2.8915253,1.7817383,22.601267,-0.89916945,17.621267
1570715488,12.98735,-4.68425,7.9254,3.0663452,2.3112183,-1.0039368,15.633969,1.2441173,10.131804
1570715488,12.583923,-4.412506,7.3597717,3.3518372,1.9788513,-1.1232452,15.440333,1.3762231,9.930513
1570715488,5.629959,-3.2746735,2.2487488,4.447983,0.9242401,-2.2119446,9.074579,3.1997123,3.9989147
1570715488,12.519287,-19.612701,-3.3423004,5.0136414,3.9709015,-5.02211,15.712641,-12.858231,-4.0863466
1570715488,-5.0966644,-19.612701,13.069351,5.709259,1.5761871,-5.9552765,-0.15144381,-12.791445,5.675328
1570715488,5.9753265,-19.612701,-8.5963745,5.1105804,2.9152222,-6.0863037,1.4823973,-13.268796,-3.9804876
1570715488,8.20314,-19.612701,9.410416,4.8708954,1.5378418,-3.5062408,-13.959758,-13.84701,-7.8278227
1570715488,11.332352,-19.612701,6.873749,4.8570557,3.2816772,-3.4593658,-13.959758,-13.84701,-7.8278227
1570715488,-19.612701,19.612106,-19.612701,-0.088974,5.923538,-0.17303467,-21.025919,23.958958,-24.687565
1570715488,-19.612701,19.612106,-19.612701,-0.088974,5.923538,-0.17303467,-21.025919,23.958958,-24.687565
1570715488,-7.3591766,4.910507,-9.165009,-3.5489502,-5.302231,2.9663086,-9.133888,11.545845,-19.843136
1570715488,-7.3591766,4.910507,-9.165009,-3.5489502,-5.302231,2.9663086,-9.133888,11.545845,-19.843136
1570715488,3.3530731,-18.08699,-13.248917,-6.7543335,-3.9621277,-0.17303467,1.7792103,-9.947167,-13.00005
1570715488,3.3530731,-18.08699,-13.248917,-6.7543335,-3.9621277,-0.17303467,1.7792103,-9.947167,-13.00005
1570715488,-5.1595,-16.534958,-7.483673,1.2734985,-12.1966095,0.7079468,-5.2825,-9.387171,-8.131766
1570715488,-5.1595,-16.534958,-7.483673,1.2734985,-12.1966095,0.7079468,-5.2825,-9.387171,-8.131766
1570715488,-14.477142,-3.4775848,3.9935303,1.2734985,-9.440781,2.9631042,-15.2557125,2.8818126,1.9700608
1570715488,6.3823395,-19.612701,-19.612701,-3.4541473,12.142548,8.481186,-4.38516,-13.265167,-20.624756
1570715488,19.612701,-19.612701,-19.612701,-11.066528,15.853928,6.9152374,19.229424,-13.310989,-19.927778
1570715489,19.182343,-4.78421,18.050491,1.8785706,-0.943161,1.9809418,17.860388,1.5599594,21.71907
1570715489,19.182343,-4.78421,18.050491,1.8785706,-0.943161,1.9809418,17.860388,1.5599594,21.71907
1570715489,11.880035,-1.9668427,1.272522,1.010376,2.6073608,0.07304382,13.991591,2.8671622,3.0062969
1570715489,11.880035,-1.9668427,1.272522,1.010376,2.6073608,0.07304382,13.991591,2.8671622,3.0062969
1570715489,5.2319336,-1.4814148,5.064926,4.4597015,2.1088257,-2.1672058,8.460377,4.7868404,6.521017
1570715489,4.523239,-1.8201904,4.751892,4.5566406,2.0406494,-2.2609406,7.232903,4.7392874,5.853869
1570715489,18.41919,-19.612701,16.632523,5.3193665,0.14234924,-6.99498,15.464178,-13.35194,9.415922
1570715489,18.41919,-19.612701,16.632523,5.3193665,0.14234924,-6.99498,15.464178,-13.35194,9.415922
1570715489,-1.1342468,-19.612701,-13.267471,2.758484,-3.1120453,-6.373932,-7.932367,-14.393942,-22.806515
1570715489,2.308014,-19.612701,-5.206192,2.6743164,-2.457962,-6.1875153,-7.932367,-14.393942,-22.806515
1570715489,-8.605957,19.612701,-19.612701,2.6274567,9.392029,-2.1970367,-10.8643875,23.293594,-24.611092
1570715489,-8.605957,19.612701,-19.612701,2.6274567,9.392029,-2.1970367,-10.8643875,23.293594,-24.611092
1570715489,-5.3857574,10.150818,-16.497849,-3.8717346,-3.9184418,1.2437744,-5.2464995,14.978103,-24.126612
1570715489,-5.3857574,10.150818,-16.497849,-3.8717346,-3.9184418,1.2437744,-5.2464995,14.978103,-24.126612
1570715489,-8.266586,-3.3177643,1.7878723,-5.7881317,-6.1118317,0.5460205,-7.800817,2.7582984,-3.9219668
1570715489,-15.936401,-8.834,15.243286,-4.198761,-4.128296,2.287735,-16.8081,-2.8212233,15.561943
1570715489,-1.9177551,-7.6392975,-14.336487,-4.8070374,-8.338226,1.6304626,-3.1538982,-3.9946923,-16.276241
1570715489,2.2810822,-9.059662,-4.8135376,-1.8221588,-3.521103,4.710144,-2.055163,-10.997244,-10.477292
1570715489,2.2810822,-9.059662,-4.8135376,-1.8221588,-3.521103,4.710144,-2.055163,-10.997244,-10.477292
1570715489,19.612701,-19.612701,-19.612701,-9.205505,8.050873,5.074463,7.8722816,-13.690984,-20.015007
1570715489,19.612701,-19.612701,-19.612701,-9.205505,8.050873,5.074463,7.8722816,-13.690984,-20.015007
1570715489,-10.621277,-11.766907,17.803284,-3.9835815,-1.3191986,1.6304626,-11.124928,-13.369301,-6.1572485
1570715489,-9.500198,-6.4535675,19.612701,-3.7939606,-0.3892212,1.9042358,-11.124928,-13.369301,-6.1572485
1570715489,19.612701,-6.70018,10.93132,0.6652374,2.4592896,0.32977295,21.748816,-0.62795305,14.242093
1570715489,16.939575,-6.2135468,5.15831,0.74086,3.947464,-0.52456665,20.873693,-1.8137393,9.067244
1570715489,-2.6934814,-8.001419,6.30513,4.548126,1.3674011,-3.4487152,1.0791368,-1.7458878,6.6174936
1570715489,-3.549408,-8.358749,6.335663,4.6344147,1.4217224,-3.4508514,-2.3666313,-2.3923602,7.0634866
1570715489,11.768097,-19.612701,11.848907,5.99794,6.846054,-4.0889435,10.15876,-13.696823,10.43946
1570715489,11.768097,-19.612701,11.848907,5.99794,6.846054,-4.0889435,10.15876,-13.696823,10.43946
1570715489,-8.726273,-19.612701,-15.953171,4.57901,-3.9748993,-5.6175995,-10.757086,-14.54357,-21.972338
1570715489,-9.873688,-19.612701,-13.597275,4.2359924,-4.0718384,-5.326782,-10.757086,-14.54357,-21.972338
1570715489,-10.412384,-6.312317,-15.273804,5.073303,6.5850677,-2.552826,-14.645165,-7.4780617,-18.550913
1570715489,-15.965134,19.612701,-19.612701,-0.057022095,6.9472504,0.12312317,-20.96065,22.920681,-24.318249
1570715489,-18.510773,10.878647,-19.612701,-2.3771667,5.1799774,1.9010468,-18.943918,16.78744,-24.287361
1570715489,-6.4535675,11.280884,-19.612701,-2.8970184,-4.1986084,2.7713623,-10.207629,13.157988,-23.923887
1570715490,-1.3084259,-2.620453,9.92337,-5.2576294,-7.8151855,2.0043793,-1.2840723,1.6929693,1.6891768
1570715490,-1.3084259,-2.620453,9.92337,-5.2576294,-7.8151855,2.0043793,-1.2840723,1.6929693,1.6891768
1570715490,-7.5441284,-11.141418,6.5786743,-4.1114197,-7.152588,2.5082397,-8.881041,-5.1752315,0.58474445
1570715490,-0.37887573,-5.707779,-19.612701,-1.0178833,-8.846359,3.7173157,-0.7022042,-1.717,-20.563072
1570715490,-0.37887573,-5.707779,-19.612701,-1.0178833,-8.846359,3.7173157,-0.7022042,-1.717,-20.563072
1570715490,19.612701,-19.612701,-19.612701,-17.892746,14.6267395,5.1021576,20.694904,-14.116687,-20.012379
1570715490,19.611511,-19.612701,-19.612701,-20.189453,11.912445,4.0528717,20.840952,-14.117228,-19.38572
1570715490,8.305481,-8.921997,19.612701,-3.0237732,-0.27098083,3.4456787,6.217901,-6.4772167,10.959681
1570715490,8.305481,-8.921997,19.612701,-3.0237732,-0.27098083,3.4456787,6.217901,-6.4772167,10.959681
1570715490,16.17044,-6.9868774,4.7572784,1.2266235,3.6012573,-1.4172516,21.312346,-0.6997924,5.655484
1570715490,16.17044,-6.9868774,4.7572784,1.2266235,3.6012573,-1.4172516,21.312346,-0.6997924,5.655484
1570715490,1.5562286,-9.122513,1.0893555,4.6045837,1.8371735,-2.8329926,3.018235,-4.403508,1.7076094
1570715490,1.5562286,-9.122513,1.0893555,4.6045837,1.8371735,-2.8329926,3.018235,-4.403508,1.7076094
1570715490,17.166428,-19.612701,9.926956,5.3481293,4.7165833,-5.401352,15.182841,-14.0863,3.0608091
1570715490,17.619522,-19.612701,10.111908,5.4120483,5.0521393,-5.488693,15.182841,-14.0863,3.0608091
1570715490,-12.938858,-19.612701,-14.821304,3.113205,0.04006958,-7.807785,-1.6453402,-15.009211,-12.934058
1570715490,-18.521545,-19.612701,-14.847046,3.6479797,-1.374588,-5.883911,-21.732882,-15.225739,-16.767405
1570715490,-19.612701,19.612701,-19.601334,1.8146515,6.445511,-0.73228455,-21.572983,22.765089,-23.555857
1570715490,-19.612701,19.612701,-19.601334,1.8146515,6.445511,-0.73228455,-21.572983,22.765089,-23.555857
1570715490,-5.2008057,6.6858063,-15.229523,-4.1913147,-5.0944977,2.4709625,-6.8805504,12.513488,-23.269596
1570715490,-5.2983704,5.00029,-13.001709,-4.4139404,-5.3459015,2.2898712,-5.8415627,10.949478,-20.051981
1570715490,-14.957779,-12.17572,19.384048,-5.5441895,-3.8769073,3.9197235,-14.76193,-6.635477,17.620823
1570715490,-14.957779,-12.17572,19.384048,-5.5441895,-3.8769073,3.9197235,-14.76193,-6.635477,17.620823
1570715490,-19.612701,-19.612106,-19.612701,0.4958496,-0.26245117,0.5193939,-14.425669,-14.635811,-18.472227
1570715490,-10.288483,-19.612701,-19.612701,-1.5803375,-7.984558,2.2270203,-11.904902,-14.530886,-20.795675
1570715490,-13.414719,-7.8374176,-9.264969,2.1534119,-1.7474365,4.0486145,-9.505936,3.2539349,-6.938195
1570715490,-13.414719,-7.8374176,-9.264969,2.1534119,-1.7474365,4.0486145,-9.505936,3.2539349,-6.938195
1570715490,-12.285843,-19.612701,-12.024872,-1.4567719,-4.6460266,1.0871735,-1.8617272,-14.649681,21.15791
1570715490,-2.9191284,-0.509964,12.804794,-4.261612,1.8712616,2.6967926,-5.316621,-10.89733,18.890154
1570715490,19.612106,-3.7577057,7.1173706,1.6005402,-2.04039,1.3929138,21.376406,1.8024607,17.549583
1570715490,19.137451,-5.3552246,7.1251373,0.7238159,3.7067108,-0.4936676,21.340633,-1.8555279,12.392918
1570715490,14.842255,-6.948578,13.606247,2.5912323,0.36924744,-1.901947,17.474884,-0.09094334,12.78646
1570715490,-3.8486786,-8.719086,2.0416565,3.51268,0.27124023,-2.4558868,-1.473014,-4.2546263,-1.5186102
1570715491,-4.8488617,-10.87088,0.9104004,5.4333496,1.9788513,-2.2620087,-7.6960273,-4.007923,8.394714
1570715491,5.1487274,-19.612701,1.8626862,6.5785217,2.4220123,-3.14299,2.1081603,-12.767902,-0.93623567
1570715491,13.385376,-19.612701,-9.822815,6.4794464,-1.3948364,-8.167831,12.964798,-14.856611,-6.989232
1570715491,-16.101013,-19.612701,-16.774368,3.987793,-1.149826,-8.944412,6.6268215,-15.20375,-13.55714
1570715491,-3.1753082,12.108078,-16.359573,4.7771606,7.4415283,-1.9658661,-6.969781,2.817098,-22.015903
1570715491,-4.2700653,14.179657,-17.155655,4.7153625,7.6418,-2.1821136,-5.384462,13.556557,-21.787216
1570715491,-19.0345,12.27388,-19.612701,-2.0362701,7.1539154,-0.22521973,-17.525894,16.833054,-23.855055
1570715491,-7.277176,5.9902954,-13.377609,-4.6546936,-5.5227356,0.8624115,-7.446772,11.295597,-21.480648
1570715491,-4.0061035,-5.673065,1.6226654,-4.7899933,-6.389862,0.9625397,-5.5232773,-0.89897895,-2.0544608
1570715491,-4.0061035,-5.673065,1.6226654,-4.7899933,-6.389862,0.9625397,-5.5232773,-0.89897895,-2.0544608
1570715491,-4.482544,-9.569031,-19.503174,-1.7401276,-5.054016,2.3985138,-2.14143,-10.933517,-19.774818
1570715491,0.5093689,-8.516769,-19.6109,-3.2826385,-9.148895,2.783081,-4.454195,-4.7396355,-21.649738
1570715491,-6.5720825,-19.612701,-15.895706,0.64712524,-9.414139,3.5266418,-9.161183,-14.896819,-17.943249
1570715491,-10.93013,-10.184937,-18.219269,-1.7326813,-10.152374,2.9354095,-6.9184384,-8.172187,-19.221222
1570715491,-14.875778,-19.612701,-19.444504,0.8878784,9.9917755,6.8332214,-19.11479,-14.696445,-20.751862
1570715491,19.611511,-19.612701,-19.612701,-15.360611,14.700241,4.6323853,20.772724,-14.6501465,-19.686525
1570715491,-1.9422913,-19.612701,19.602524,-0.8474426,-2.8350677,-0.30511475,13.806774,-14.892924,21.13768
1570715491,-5.0583496,-2.8646698,19.099152,-3.8440247,0.9913635,3.0174408,-8.681129,-11.764845,17.404636
1570715491,19.612106,-2.3044128,4.8512573,1.4354248,-4.109131,1.509018,21.586552,1.715498,11.6503315
1570715491,15.911865,-7.7057343,4.9781494,0.5342102,2.1450348,-0.6630554,19.925194,-3.347642,7.4863462
1570715491,4.6651,-6.3099213,3.7642822,3.9015045,1.6432953,-2.9405823,6.658783,-2.2231736,5.406824
1570715491,4.6651,-6.3099213,3.7642822,3.9015045,1.6432953,-2.9405823,6.658783,-2.2231736,5.406824
1570715491,7.723694,-19.612701,-3.5284576,6.1598663,1.9362488,-3.670288,4.867347,-12.1568165,-0.94562244
1570715491,-0.6536102,-19.612701,10.023926,6.823532,1.4835052,-6.535858,-0.10152161,-14.772217,6.7170987
1570715491,-0.6536102,-19.612701,10.023926,6.823532,1.4835052,-6.535858,-0.10152161,-14.772217,6.7170987
1570715491,5.1571045,-19.612701,-9.333801,4.069824,-3.3890076,-4.5970764,-5.858284,-15.527031,-20.955576
1570715491,-7.5680695,-16.016617,-19.48462,4.354248,5.173584,-3.4029083,5.691409,-15.886403,-17.216972
1570715491,-15.620377,8.148666,-14.027023,4.702591,6.976013,-2.2993011,-17.1771,6.1244884,-14.071754
1570715491,-18.591568,15.965729,-19.612701,-0.9678192,8.172302,-0.53414917,-19.025629,22.178682,-23.750015
1570715491,-8.274963,-1.5424652,-6.162674,-4.3819885,-6.5603027,1.5857239,-8.564976,5.267379,-13.702785
1570715491,-8.274963,-1.5424652,-6.162674,-4.3819885,-6.5603027,1.5857239,-8.564976,5.267379,-13.702785
1570715491,-11.10849,-17.37413,11.063599,-2.0906067,1.7413025,4.0134583,-13.044035,-12.254154,15.203699
1570715491,-11.10849,-17.37413,11.063599,-2.0906067,1.7413025,4.0134583,-13.044035,-12.254154,15.203699
1570715492,-0.77871704,-10.793655,-10.491989,-1.3864594,-7.104645,3.4254303,0.696422,-8.267185,-14.290757
1570715492,-0.77871704,-10.793655,-10.491989,-1.3864594,-7.104645,3.4254303,0.696422,-8.267185,-14.290757
1570715492,7.8613586,-19.557632,-19.612701,2.094818,4.840164,5.5943146,5.6127696,-14.972941,-16.092611
1570715492,7.8613586,-19.557632,-19.612701,2.094818,4.840164,5.5943146,5.6127696,-14.972941,-16.092611
1570715492,19.612701,-19.612701,-19.612701,-19.856018,4.8657227,1.477066,21.15682,-14.982937,-19.543665
1570715492,-14.910492,-14.536392,14.212585,-4.052826,1.3482208,2.6850739,-17.08291,-14.664044,9.783245
1570715492,19.612701,0.31723022,6.282379,1.9392853,-3.8822327,1.8062286,21.610851,2.257512,11.901167
1570715492,19.612701,-0.29808044,6.5014496,1.4343567,0.7846985,0.100738525,21.694408,4.6912117,8.59119
1570715492,6.7456665,-7.523773,7.8541718,3.9196167,1.9500885,-2.8841248,9.613291,-2.8723054,11.798089
1570715492,6.7456665,-7.523773,7.8541718,3.9196167,1.9500885,-2.8841248,9.613291,-2.8723054,11.798089
1570715492,1.9099731,-6.361389,-0.99957275,5.023224,1.448349,-3.3698883,3.075789,-1.4336023,0.9095109
1570715492,14.314331,-19.612701,7.459732,4.95932,4.325638,-5.1733856,15.615038,-14.843704,3.7053175
1570715492,-4.542404,-19.612701,-17.005417,2.7009583,-2.0925903,-7.3678284,-3.5415282,-15.4044895,-15.756552
1570715492,-4.542404,-19.612701,-17.005417,2.7009583,-2.0925903,-7.3678284,-3.5415282,-15.4044895,-15.756552
1570715492,4.6231995,-19.612701,6.609787,3.1568909,2.639328,-4.5651093,-1.7298355,-15.773515,5.0411863
1570715492,-16.355988,19.612701,-19.609116,1.4524689,9.66687,-0.5032654,-20.974377,20.660366,-23.264832
1570715492,-16.355988,19.612701,-19.609116,1.4524689,9.66687,-0.5032654,-20.974377,20.660366,-23.264832
1570715492,-8.364151,8.805283,-16.087234,-3.098343,-2.0030975,1.3609467,-8.102504,13.53175,-22.088356
1570715492,-8.489243,7.4052734,-14.092865,-3.3071442,-2.3407898,1.3023682,-8.102504,13.53175,-22.088356
1570715492,-5.8406525,-3.284851,-0.80085754,-4.995575,-4.443619,0.99876404,-6.7382293,0.6701727,-4.8893394
1570715492,4.2311554,-16.590027,-5.194824,-2.4879456,-3.3975372,-0.11656189,5.0201793,-7.8403964,-5.7093563
1570715492,4.2311554,-16.590027,-5.194824,-2.4879456,-3.3975372,-0.11656189,5.0201793,-7.8403964,-5.7093563
1570715492,-14.404114,-19.612701,-11.501144,-0.02079773,-10.300446,2.8352814,-11.348458,-15.428806,-9.4570055
1570715492,0.6470337,-7.994232,-6.6283417,-0.8186798,-9.671936,1.3716125,1.2101088,-7.263825,-8.876938
1570715492,-19.52951,-19.54985,-19.612701,-0.97846985,5.2438965,6.066223,-18.7734,-13.670116,-20.168768
1570715492,-19.52951,-19.54985,-19.612701,-0.97846985,5.2438965,6.066223,-18.7734,-13.670116,-20.168768
1570715492,19.612701,-19.612701,19.60492,-8.559952,0.20732117,0.522583,20.790686,-15.39941,21.100485
1570715492,16.216522,-19.612701,19.612701,-4.167877,0.2137146,0.10180664,20.790686,-15.39941,21.100485
1570715492,19.612701,-7.250244,12.11586,1.233017,-0.52557373,1.5931854,19.555777,-1.3805666,13.575083
1570715492,17.798492,-5.43544,6.6307373,1.6676483,0.16790771,-0.3125763,20.211523,-1.7632165,7.388774
1570715492,17.798492,-5.43544,6.6307373,1.6676483,0.16790771,-0.3125763,20.211523,-1.7632165,7.388774
1570715492,6.656479,-2.9939423,13.248917,3.9537048,-0.26779175,-1.8817139,8.974379,1.7835097,14.11021
1570715492,5.0793,-11.593323,7.086838,6.397415,2.5509033,-3.1472473,3.8642814,-2.7575188,6.652961
1570715493,2.3828278,-19.612701,0.10295105,5.424835,3.3445282,-5.647415,6.1132913,-15.172123,-4.553334
1570715493,1.9758148,-19.612701,1.2707214,5.406723,2.8726196,-5.7464905,2.6732948,-15.200947,-1.9434158
1570715493,-12.49295,-19.612701,-13.330917,2.7041473,-5.8060913,-4.687622,-12.743768,-15.644922,-18.72086
1570715493,-8.409042,-3.873825,-19.612701,4.1752777,7.8292847,-3.2750854,-6.009263,-4.7888975,-21.180845
1570715493,-8.409042,-3.873825,-19.612701,4.1752777,7.8292847,-3.2750854,-6.009263,-4.7888975,-21.180845
1570715493,-19.612701,19.603119,-19.595947,1.2884064,8.12117,-1.0433502,-20.965471,22.257635,-22.39687
1570715493,-11.531677,6.6073914,-19.612701,-3.1526794,3.119751,1.1372528,-13.414774,10.061446,-23.022617
1570715493,-9.969452,-2.091339,-1.5209198,-4.1305847,-4.905945,0.8421631,-10.345743,2.6084883,-5.2267475
1570715493,-2.0524292,-1.8267822,16.104004,-4.836853,-2.7136383,1.5047607,-4.533016,0.06300044,6.3870316
1570715493,0.044296265,-14.78479,-7.237076,-2.3270874,-4.1069946,1.553772,-2.531901,-10.227198,-2.2565222
1570715493,-7.7590027,-19.612701,-7.9882507,0.8367462,-11.83017,3.9740448,-4.270597,-15.488991,-13.584746
1570715493,-0.91218567,-19.496582,-5.372589,1.246872,-7.8162537,4.8635406,-7.254258,-15.387447,-7.0552483
1570715493,-0.27592468,-3.6074677,8.884277,-0.71855164,-3.7096558,1.809433,-1.217533,0.77007437,5.759812
1570715493,-0.27592468,-3.6074677,8.884277,-0.71855164,-3.7096558,1.809433,-0.23052233,1.5588627,8.170235
1570715493,19.612701,-19.612701,-19.612701,-10.171707,13.105545,3.8376923,20.697079,-15.213285,-19.613693
1570715493,19.612701,-19.612701,-19.612701,-10.171707,13.105545,3.8376923,20.697079,-15.213285,-19.613693
1570715493,7.258026,-5.146942,17.578827,-0.8676758,0.12635803,2.9971924,2.1797388,-0.16313124,19.182125
1570715493,7.258026,-5.146942,17.578827,-0.8676758,0.12635803,2.9971924,2.1797388,-0.16313124,19.182125
1570715493,19.516937,-5.6000366,5.4186707,1.1850891,0.59614563,-0.015365601,21.480038,-0.14491224,5.3004136
1570715493,15.940598,-2.731781,12.772461,2.6913605,0.80493164,-0.7418823,17.384947,1.3188548,13.361511
1570715493,15.935211,-2.7329865,12.484558,2.9065552,0.98176575,-0.92404175,17.384947,1.3188548,13.361511
1570715493,11.232391,-19.612701,-5.962158,5.376892,1.270462,-4.7557983,9.83695,-12.320236,-7.972433
1570715493,11.232391,-19.612701,-5.962158,5.376892,1.270462,-4.7557983,9.83695,-12.320236,-7.972433
1570715493,-2.9646149,-19.612701,9.609726,6.377182,2.6702118,-6.883133,-1.2921531,-15.253458,9.793188
1570715493,-0.9038086,-19.612701,-19.594147,2.3707275,-4.252945,-5.321457,-3.5734546,-15.735514,-21.745655
1570715493,1.0073547,-19.612701,-10.918762,3.7534332,5.518738,-4.750473,2.2810373,-16.096325,-3.363352
1570715493,-19.423553,0.8230133,-10.238205,3.829071,5.9778595,-2.6306,-19.336666,-1.5335629,-19.270767
1570715493,-19.047073,19.612701,-16.606781,2.394165,7.8133087,-1.4289703,-21.200563,20.891928,-20.575975
1570715493,-14.11441,12.184692,-19.612701,-1.9180298,6.014084,0.88797,-16.076096,16.255913,-22.9485
1570715493,-9.707291,6.854004,-12.980164,-3.7470856,-3.4028625,1.3918457,-9.118626,12.029016,-18.556295
1570715493,-10.77211,-4.4939117,3.3010101,-3.9015503,-5.337372,1.3939819,-11.577508,1.2071028,-2.7712476
1570715493,-8.422195,-12.895172,19.612701,-0.87727356,0.40652466,1.6730804,-6.46324,-3.3155465,17.443598
1570715493,-10.824188,-19.612701,-8.944733,-0.19656372,-9.5686035,3.1601868,-19.161978,-15.651642,-11.576913
1570715493,-10.824188,-19.612701,-8.944733,-0.19656372,-9.5686035,3.1601868,-19.161978,-15.651642,-11.576913
1570715494,-3.2938232,-0.051467896,3.2088318,-0.35635376,-6.0489807,2.5998535,-4.233276,3.806079,-3.8944223
1570715494,-3.2938232,-0.051467896,3.2088318,-0.35635376,-6.0489807,2.5998535,-4.233276,3.806079,-3.8944223
1570715494,19.612106,-19.612701,-19.612701,-17.312164,10.723618,3.9484863,20.502617,-15.412458,-20.084621
1570715494,19.612106,-19.612701,-19.612701,-17.312164,10.723618,3.9484863,20.502617,-15.412458,-20.084621
1570715494,-9.935333,-19.612701,0.88764954,-3.62352,-3.2920685,2.464569,-12.34605,-15.498391,-16.97907
1570715494,19.612701,-6.0788727,19.612701,-1.5419922,0.57164,3.0312805,13.941156,-0.7458253,21.10369
1570715494,13.642166,-5.225937,3.6427765,0.9975891,3.995407,-1.2414856,17.102266,-0.12936163,5.884762
1570715494,13.642166,-5.225937,3.6427765,0.9975891,3.995407,-1.2414856,17.102266,-0.12936163,5.884762
1570715494,6.75943,-7.3615723,17.229279,3.7747345,-1.0166626,-2.952301,9.881974,-2.891464,17.423574
1570715494,-13.648148,-12.070969,4.912903,3.7278748,-0.5575409,-3.0503082,-8.509193,-7.956191,-0.64195716
1570715494,-0.025741577,-19.612701,2.0464478,5.9702454,1.6592712,-2.4186096,-0.57062477,-12.070472,2.3426456
1570715494,5.834076,-19.612701,-0.60572815,7.318878,0.29360962,-6.7968445,7.49878,-15.401957,1.1086026
1570715494,4.9308624,-19.612701,-2.2643127,7.2602844,-0.18469238,-6.9299927,7.49878,-15.401957,1.1086026
1570715494,16.974884,-19.612701,8.784927,3.4999084,1.9990997,-3.7714844,2.7785017,-16.110996,7.010783
1570715494,-10.773315,2.755722,-8.350983,2.857544,5.66893,-2.1608124,-13.157355,-0.43207145,-14.15439
1570715494,-12.052414,15.622772,-13.667297,2.7201233,7.4447327,-2.3600159,-12.259325,14.409217,-13.833623
1570715494,-14.615402,12.5533905,-19.612106,-0.7963104,8.588821,-0.42016602,-17.578129,18.065443,-22.931992
1570715494,-12.53006,4.3700104,-19.612701,-3.2687836,0.4832306,2.1961212,-13.004321,6.938345,-22.654663
1570715494,-2.0805664,-4.394562,-2.4642334,-3.736435,-8.015457,0.3372345,-2.713492,-0.017816305,-3.1432457
1570715494,-10.880447,-7.9565277,19.612701,-4.4629517,-5.318207,0.94337463,-3.026744,-1.8429346,5.7490478
1570715494,-2.4091644,-0.95947266,-19.612701,-2.2440033,-3.0044556,2.639267,-2.7315662,3.5190015,-21.241072
1570715494,-2.4091644,-0.95947266,-19.612701,-2.2440033,-3.0044556,2.639267,-2.7315662,3.5190015,-21.241072
1570715494,-17.723083,-19.612701,-9.135071,-0.34144592,-10.797928,1.9809418,-19.728561,-15.604181,-16.282032
1570715494,-1.8543091,-11.623245,-18.397644,-1.0892639,-5.5866547,1.9021149,-2.8555984,-10.496651,-13.763708
1570715494,1.6298523,-15.666458,6.910858,0.08679199,-2.6049805,3.8366241,-1.317331,-7.8020134,6.4476657
1570715494,19.522919,-19.612701,-19.612701,-3.674652,8.627167,4.848633,18.08816,-15.408115,-20.3391
1570715494,19.612701,-19.612701,-3.1280212,-20.392914,-2.9458618,1.858429,20.6799,-15.460566,-18.59778
1570715494,-3.7229767,5.2762146,19.612701,-1.4471893,1.9660797,2.6850739,-9.787299,6.947672,21.360449
1570715494,19.084778,-6.727707,8.159439,1.5078583,-2.7850037,1.696518,19.930473,-3.2683454,12.367178
1570715494,15.280991,-3.6421814,10.883438,1.8157196,0.16044617,-0.80152893,15.380555,0.19960332,7.5554476
1570715494,15.280991,-3.6421814,10.883438,1.8157196,0.16044617,-0.80152893,15.380555,0.19960332,7.5554476
1570715494,4.806366,-5.612015,6.171646,4.7771606,1.9053497,-2.8947754,7.4426208,-0.44486904,7.8105636
1570715495,11.571777,-19.612701,-5.371994,6.1651917,4.581299,-4.9337006,12.25912,-15.31793,-3.8316798
1570715495,11.66156,-19.612701,-5.6006317,5.9510803,4.6409607,-4.880432,12.25912,-15.31793,-3.8316798
1570715495,-8.042725,-19.612701,8.510788,3.6799316,-2.7328033,-6.5603485,-10.063112,-15.699004,8.440394
1570715495,-8.042725,-19.612701,8.510788,3.6799316,-2.7328033,-6.5603485,-10.063112,-15.699004,8.440394
1570715495,8.669998,-19.597137,-2.8365326,2.535843,5.412201,-3.9898682,4.402459,-16.061802,5.7751136
1570715495,-9.384674,11.273102,-6.815689,3.269806,6.798111,-2.5911713,-8.453381,11.640163,-9.512767
1570715495,-12.679092,1.8207855,-19.612701,-1.9872742,5.446289,1.0339203,-13.204712,5.7378416,-22.703218
1570715495,-10.419571,6.625946,-19.612701,-2.527359,-2.0126953,2.113037,-12.877234,7.410823,-22.479292
1570715495,-4.371216,-4.7327423,-1.0917511,-4.140167,-8.0048065,0.99557495,-5.306978,-0.5839095,-3.715486
1570715495,-4.371216,-4.7327423,-1.0917511,-4.140167,-8.0048065,0.99557495,-5.306978,-0.5839095,-3.715486
1570715495,-13.275848,-8.346191,19.612701,-4.232849,-2.917099,2.2366028,-12.044582,-2.5036056,18.233438
1570715495,-7.8493958,-19.612701,-11.309616,-3.0621338,-3.2270966,4.0006714,-6.6433563,-11.70908,-1.3348224
1570715495,-17.025162,-19.612701,-19.398422,0.1581726,-4.570389,2.3899994,-19.581514,-15.530422,-20.47451
1570715495,2.3421326,-1.7399902,-3.909729,-1.0136261,-4.528839,2.430481,2.8939393,2.177281,-2.1859741
1570715495,0.31124878,-4.5555725,-3.0071106,-0.8399811,-4.191147,2.5700226,0.8415029,1.3297939,-4.632557
1570715495,19.612701,-19.612701,-19.612701,-15.817596,0.3617859,0.25094604,20.585995,-15.401745,-19.10408
1570715495,19.612701,-19.612701,-19.612701,-15.817596,0.3617859,0.25094604,20.585995,-15.401745,-19.10408
1570715495,-10.886429,-7.1065826,19.510956,-2.1183014,2.272873,2.752182,-15.203234,-6.6148524,19.255466
1570715495,7.6542664,-8.120529,17.835007,-0.021865845,-0.22624207,2.5817413,5.386998,-3.8121707,18.414276
1570715495,17.767365,-5.4420166,5.242111,2.3994904,-0.57351685,1.3204803,20.046663,-1.9176848,6.4442835
1570715495,12.794022,-0.3040619,10.759537,3.336914,-0.9335785,-1.4598694,15.323568,4.069358,10.889397
1570715495,12.794022,-0.3040619,10.759537,3.336914,-0.9335785,-1.4598694,15.323568,4.069358,10.889397
1570715495,4.4376526,-12.836517,4.5513763,6.059738,2.2014923,-3.5467224,3.5024514,-5.977171,6.0941
1570715495,4.4376526,-12.836517,4.5513763,6.059738,2.2014923,-3.5467224,3.5024514,-5.977171,6.0941
1570715495,16.379333,-19.612701,3.063385,5.183014,5.2758484,-4.8079987,14.169984,-15.378746,4.9804726
1570715495,1.0761871,-19.612701,9.749786,4.525757,-2.85318,-6.648773,-1.3601086,-15.595645,2.5651164
1570715495,7.0467377,-19.612701,-9.282913,2.8671417,5.5826416,-3.2100983,3.1976886,-16.183456,-7.5179973
1570715495,5.6634827,-18.588577,-7.0174103,2.8681946,6.0694733,-3.063095,5.292001,-16.229921,-12.154698
1570715495,-15.880142,16.573257,-15.307922,2.251419,8.061523,-2.0553436,-16.155046,16.845215,-16.895363
1570715495,-14.0234375,3.6062622,-19.612701,-3.335907,2.2632904,1.7519073,-16.334911,5.817321,-22.659586
1570715495,-9.731232,5.6461334,-19.612701,-3.3401642,-1.6473083,1.9575043,-11.86542,7.8235736,-22.5054
1570715495,-4.855438,-5.154114,-1.5789795,-3.7087402,-7.406128,1.2139435,-5.3069987,-0.3888166,-5.526103
1570715495,-3.122635,-6.3308716,2.301422,-3.6501465,-6.9555206,1.6560364,-4.7068505,-2.7402883,-0.26106143
1570715495,-5.182251,-19.612701,-5.901703,-2.3121796,-2.4132233,2.1790771,-3.312823,-14.149564,-2.2117128
1570715495,-9.204514,-19.555237,-13.933655,-1.9936676,-4.370117,2.1865387,-3.312823,-14.149564,-2.2117128
1570715496,-5.004486,-16.446365,-8.642471,1.4055939,-8.513992,1.3385773,-3.2613742,-14.929615,-11.827653
1570715496,-1.7573395,-4.7249603,9.636658,0.032470703,-0.1538086,2.5529785,-1.5554327,3.4157639,7.15801
1570715496,-1.7573395,-4.7249603,9.636658,0.032470703,-0.1538086,2.5529785,-1.5554327,3.4157639,7.15801
1570715496,19.6109,-19.612701,-19.612701,-18.327362,10.417877,3.4126587,20.686172,-15.464749,-19.3491
1570715496,0.9684601,-19.612701,14.578293,1.0231628,-1.8592834,-0.020690918,11.568804,-15.64615,20.903723
1570715496,-1.154602,-7.387909,16.133331,-3.7865143,0.45765686,2.5540466,-0.26203704,-9.606951,20.307642
1570715496,15.747864,-4.807556,3.0304565,1.8338318,1.286438,-0.47555542,19.913654,-1.239054,5.4096212
1570715496,14.066528,-4.8332977,2.407364,1.7624512,1.4888306,-0.60339355,19.913654,-1.239054,5.4096212
1570715496,6.353607,-3.1842957,8.424591,4.1997833,1.5154724,-2.3397827,8.446823,0.894017,11.1504545
1570715496,6.353607,-3.1842957,8.424591,4.1997833,1.5154724,-2.3397827,8.446823,0.894017,11.1504545
1570715496,2.5127106,-19.612701,5.5365906,3.9995117,4.077423,-5.2202454,4.43587,-15.415003,4.310117
1570715496,2.5127106,-19.612701,5.5365906,3.9995117,4.077423,-5.2202454,4.43587,-15.415003,4.310117
1570715496,-3.1854858,-19.612701,-8.122925,3.5062866,-2.3024445,-5.310791,1.2109852,-15.679413,-2.240868
1570715496,-3.1854858,-19.612701,-8.122925,3.5062866,-2.3024445,-5.310791,1.2109852,-15.679413,-2.240868
1570715496,-0.04788208,-19.612701,2.6342163,2.7137299,-3.0395966,-4.833557,1.0304093,-15.890917,-4.096585
1570715496,-17.21431,16.681,-19.612701,1.8700409,8.766724,-0.21138,-19.88612,18.657297,-21.368763
1570715496,-16.335632,17.112564,-19.558838,1.3746948,8.628235,-0.023895264,-19.88612,18.657297,-21.368763
1570715496,-11.486786,7.857773,-19.612701,-2.6360168,4.075302,1.5324554,-12.570423,10.720593,-22.729912
1570715496,-9.642654,2.3750458,-13.195648,-3.65654,-5.8380585,1.3716125,-9.696154,7.6910534,-19.136055
1570715496,-11.775284,-6.9641266,19.598343,-4.8123627,-2.821228,2.08107,-9.681183,-1.404856,17.95755
1570715496,-11.775284,-6.9641266,19.598343,-4.8123627,-2.821228,2.08107,-9.681183,-1.404856,17.95755
1570715496,-17.429794,-19.612701,-19.262543,-0.18165588,-8.724915,2.9513855,-6.61647,-15.756996,-20.963547
1570715496,5.260666,-19.612701,-19.612701,1.6793671,-10.7947235,3.036621,3.082626,-15.716009,-20.939024
1570715496,2.8568878,-4.3777924,1.388031,0.4820099,-0.82492065,3.739685,1.7105529,0.54287815,-1.0317025
1570715496,3.2615051,-5.549164,-0.061645508,0.7802887,0.03262329,3.563919,1.7105529,0.54287815,-1.0317025
1570715496,19.558838,-19.612701,-19.612701,-3.5659943,8.484421,6.204712,15.678613,-15.526905,-20.32545
1570715496,19.612701,-19.612701,-10.041885,-20.658173,4.4662476,1.7646942,20.811651,-15.5394535,-18.92749
1570715496,-14.970352,-19.612701,-19.612701,-1.6698303,-0.94955444,0.4160614,-11.1981535,-15.728743,5.5901117
1570715496,19.612701,-0.98402405,2.7126312,2.0799103,-2.7839355,1.3918457,21.041203,2.040245,4.8689337
1570715496,19.612701,-0.98402405,2.7126312,2.0799103,-2.7839355,1.3918457,21.041203,2.040245,4.8689337
1570715496,11.267715,-0.12509155,14.541183,2.9502258,0.21690369,-2.0297852,13.819822,3.3989673,17.066896
1570715496,11.267715,-0.12509155,14.541183,2.9502258,0.21690369,-2.0297852,13.819822,3.3989673,17.066896
1570715497,13.2165985,-19.578583,-0.6320648,5.5888824,1.3737946,-5.533432,11.302776,-13.497982,-6.645806
1570715497,12.76947,-19.597137,1.0169373,5.407791,1.5761871,-5.737976,13.5654745,-15.461102,-2.8206897
1570715497,1.4239502,-19.612701,5.6826324,4.478882,1.1799164,-7.073807,1.6979535,-15.506308,5.041729
1570715497,-6.383545,-19.612701,-11.713638,1.6751099,-2.153305,-5.1755066,-9.3205595,-15.887264,-16.31192
1570715497,-6.383545,-19.612701,-11.713638,1.6751099,-2.153305,-5.1755066,-9.3205595,-15.887264,-16.31192
1570715497,-19.612701,9.312241,-19.23143,1.0338135,5.763748,-1.4651947,-21.4098,10.076401,-19.92097
1570715497,-19.612701,10.745773,-19.612701,0.7323456,5.471863,-1.1338959,-21.4098,10.076401,-19.92097
1570715497,-19.612701,14.875168,-12.488159,-1.5388031,4.2308197,1.157486,-20.986002,18.2509,-17.55373
1570715497,-10.743973,5.8053436,-14.423874,-1.6389313,-2.8659668,3.1069183,-13.524136,11.565754,-19.06865
1570715497,-5.6006317,-3.3746338,5.515045,-2.730835,-3.4358826,1.9809418,-6.8650804,-0.61614466,1.786972
1570715497,-8.711304,-5.8843536,11.677719,-3.3870392,-1.2883148,1.8456421,-8.827806,-1.1764317,9.494443
1570715497,-13.674484,-19.612701,-17.524963,-1.2075043,-9.628265,1.5953064,-2.5847788,-15.2860985,-12.998327
1570715497,-4.5801086,-14.714172,-12.349884,2.1938934,-9.396042,3.3892212,-4.5726004,-15.2472725,-12.614952
1570715497,-4.1210175,-2.6539764,-11.589737,0.57362366,-9.329987,2.9279633,-5.5986204,-0.68269014,-13.844196
1570715497,-3.7343597,-0.21907043,1.0684052,0.40957642,-3.0257568,2.4880066,-1.1879187,4.756476,2.3476834
1570715497,1.6304474,-19.612701,-19.612701,-2.1204376,12.091415,6.6467896,-2.4659932,-15.647486,-20.332882
1570715497,9.906006,-16.944366,19.612701,0.89746094,-2.0968475,-0.46704102,19.382608,-15.773413,20.890186
1570715497,-9.002792,-19.612701,-3.1639404,-3.671463,-2.2172241,1.2906494,-11.394671,-15.745235,-18.063105
1570715497,11.776474,-9.610321,19.579178,0.27534485,-0.72584534,2.5679016,10.491598,-4.095564,21.050808
1570715497,19.612701,-7.9978333,12.31398,1.296936,1.2012177,1.7039642,21.211134,-6.080748,13.65297
1570715497,15.176239,-4.925476,4.598068,1.5515289,2.5541077,-0.28167725,16.446129,-1.098191,4.4644375
1570715497,11.677719,-2.5187073,8.934555,3.7864532,0.04966736,-1.6473541,14.408164,0.54182744,9.558894
1570715497,7.6039886,-19.612701,1.272522,4.814438,2.5871277,-5.51001,9.423626,-15.522977,-4.9066153
1570715497,6.8881226,-19.612701,2.3385315,4.6461334,3.2784882,-5.4748535,7.986581,-15.529573,-0.53784084
1570715497,-1.4131775,-19.612701,7.4483643,5.108444,5.109665,-4.816513,-0.9725858,-15.533953,8.114877
1570715497,-4.9326477,-19.612701,-0.059249878,5.5878143,-1.6643524,-3.986679,-8.219325,-15.740111,-3.5129445
1570715497,8.719681,-19.612701,-7.2484436,0.60983276,-4.1357574,-4.527832,2.2715464,-15.937517,-21.315182
1570715497,2.3660736,-15.300751,-4.221573,2.9012299,5.888382,-3.7182312,9.516626,-16.098337,8.56706
1570715497,-19.612701,15.13974,-16.709732,1.6090546,7.2668304,-1.4481506,-19.27481,14.777283,-17.278688
1570715497,-13.2764435,8.759186,-19.612701,-2.59021,4.5599976,1.4568329,-15.705263,12.922902,-22.42539
1570715497,-9.474457,8.273163,-19.363708,-2.9279022,-3.7682495,2.016098,-11.375339,11.5947075,-22.152016
1570715497,-4.8650208,-3.7217865,1.4478912,-2.9502716,-7.0833435,0.96681213,-5.825599,0.38232112,-2.8207607
1570715497,-2.2972412,-3.862442,4.4089203,-4.152954,-4.94429,0.7154083,-3.384001,-0.8330555,1.323307
1570715497,-0.4399414,-7.5291595,1.2198486,-2.2301483,1.7636719,1.0680084,-0.51046747,-10.363397,14.037052
1570715498,-7.3657684,-16.874329,-12.320557,-1.6900635,-4.81221,1.5281982,-4.7663493,-3.2382984,-16.254158
1570715498,-3.613449,-5.3420563,-12.260101,-1.394989,-5.688919,2.223816,-4.565896,-3.4618301,-14.090048
1570715498,-3.613449,-5.3420563,-12.260101,-1.394989,-5.688919,2.223816,-4.565896,-3.4618301,-14.090048
1570715498,4.361038,-13.831299,5.581482,-1.1489105,1.1969604,1.0680084,6.5769386,-5.088114,5.1509094
1570715498,19.612106,-19.612701,-19.568405,-16.462082,5.607147,1.9500427,20.547527,-15.519897,-19.138033
1570715498,-9.314636,-8.116943,19.612701,-2.5955353,-0.2368927,2.2813416,-12.836554,-11.802658,7.349319
1570715498,-9.160812,-6.5134277,19.434937,-2.159851,0.4374237,2.446457,-8.569952,-5.3181677,21.220617
1570715498,19.612701,-6.633728,9.640854,1.8615265,-3.8854218,1.9575043,20.104734,-4.2753067,12.928245
1570715498,17.304688,-4.7028046,4.2796326,2.063919,-0.36473083,0.6440277,21.031872,-0.6487751,4.8463745
1570715498,11.028885,1.5652161,8.426987,3.3518372,0.33088684,-1.5163269,12.610603,4.7732162,9.43117
1570715498,10.720642,1.8375549,8.119339,3.4945831,0.35006714,-1.6537476,12.610603,4.7732162,9.43117
1570715498,5.1684875,-3.213623,7.558502,4.8218994,0.5897522,-2.7552338,7.305849,3.9671054,8.180766
1570715498,1.625061,-19.612701,2.0254974,4.050644,2.4720764,-6.612549,5.3266525,-15.5144415,-1.9629015
1570715498,1.625061,-19.612701,2.0254974,4.050644,2.4720764,-6.612549,5.3266525,-15.5144415,-1.9629015
1570715498,-11.942276,-19.612701,-3.4362793,4.5065765,-1.6121521,-5.9222565,-9.124249,-15.723675,-0.45129776
1570715498,5.47554,-11.349121,-7.641693,2.170456,6.6127625,-3.427414,6.68676,-12.756286,-11.752663
1570715498,4.602249,-9.073425,-5.4426117,2.3483582,6.4114227,-3.268692,6.68676,-12.756286,-11.752663
1570715498,-19.612701,9.28891,-19.415771,-1.4525146,5.5442963,0.6482849,-20.811382,12.4633465,-21.722942
1570715498,-19.612701,9.28891,-19.415771,-1.4525146,5.5442963,0.6482849,-20.811382,12.4633465,-21.722942
1570715498,-6.8881226,-2.7257996,-0.2340393,-2.604065,-6.5720215,2.0299377,-8.683578,1.3080089,-3.9040825
1570715498,-6.8881226,-2.7257996,-0.2340393,-2.604065,-6.5720215,2.0299377,-8.683578,1.3080089,-3.9040825
1570715498,-2.8245544,0.715271,18.247406,-3.2794342,-2.6656952,1.6709442,-4.3073378,2.2998707,10.319372
1570715498,-15.462952,-19.612701,2.778473,0.78134155,-2.9288177,2.5476532,-18.438063,-15.882033,18.338507
1570715498,0.053863525,-3.711609,-0.0018005371,-1.8818207,-6.864975,3.084549,-0.28993502,-2.2471766,-8.008607
1570715498,0.30526733,-3.711609,-0.0018005371,-1.8818207,-6.864975,3.084549,-0.28993502,-2.2471766,-8.008607
1570715498,-9.078217,-19.612701,-19.52951,0.6726837,6.050293,2.828888,-5.442283,-15.615236,-20.638283
1570715498,-8.180389,-19.612701,-19.612701,-0.019729614,6.511551,3.6246338,-5.442283,-15.615236,-20.638283
1570715498,-15.596436,-19.612701,10.792465,0.82928467,1.2246552,0.09754944,-7.569045,-15.742196,21.045273
1570715498,-17.914612,-19.612701,-19.574997,0.3339386,1.049942,0.40434265,-7.569045,-15.742196,21.045273
1570715498,19.610306,-8.266586,10.324402,1.9755096,-3.089676,2.095993,21.309986,-5.502187,13.14498
1570715498,19.610306,-8.266586,10.324402,1.9755096,-3.089676,2.095993,21.309986,-5.502187,13.14498
1570715498,11.97879,-0.99838257,10.135254,2.0894928,0.42144775,-0.94215393,13.524066,2.5888414,9.252308
1570715498,11.97879,-0.99838257,10.135254,2.0894928,0.42144775,-0.94215393,13.524066,2.5888414,9.252308
1570715498,5.804138,-1.625061,4.013275,4.27861,0.9061432,-2.5965118,7.6436367,3.3125188,5.609625
1570715499,12.251129,-19.612701,-14.241318,4.8272247,1.5602112,-4.593872,9.824155,-10.682932,-8.23014
1570715499,-4.616028,-19.612701,5.4605713,4.5374756,1.8052216,-5.834915,-1.9029741,-15.418083,3.911759
1570715499,-1.7226257,-19.612701,4.8195343,5.2501373,0.808136,-6.0980225,-2.9923365,-15.515612,7.4745264
1570715499,3.2172089,-19.612701,-17.263992,1.4972076,-3.730957,-3.8332825,-3.03851,-15.785794,-21.22667
1570715499,-1.4574738,-15.3594055,-3.8714294,2.157669,4.7229767,-3.4689484,10.322783,-15.93491,-1.4043876
1570715499,-11.28627,-0.36691284,-6.764221,2.9821777,6.0566864,-2.2087555,-11.900281,-0.009313345,-8.281094
1570715499,-15.286972,9.817429,-16.715118,1.5504608,9.22052,-0.5724945,-17.674894,12.822225,-15.552847
1570715499,-10.465652,7.226898,-19.612701,-2.704193,-4.496887,1.8861237,-12.484397,11.002674,-22.080639
1570715499,-5.63356,-4.4645844,2.7647095,-2.8661194,-6.5879974,0.82406616,-6.681876,-0.903877,0.7247555
1570715499,-5.63356,-4.4645844,2.7647095,-2.8661194,-6.5879974,0.82406616,-6.681876,-0.903877,0.7247555
1570715499,-11.137222,-7.8936768,19.56482,-2.9992828,-1.2478333,1.2288666,-10.066574,-1.7285583,18.201132
1570715499,-19.612701,-19.612701,-19.600723,1.1893463,-11.11644,3.3849487,-18.338957,-15.6700325,-20.66328
1570715499,5.254074,-19.612701,-18.980042,0.8825531,-9.327866,5.137314,-0.5265427,-15.627039,-20.376991
1570715499,-1.5197144,-4.4532166,-8.910019,-1.0072327,-6.7957306,3.0174408,-2.0880704,-5.355401,-13.826426
1570715499,0.17536926,-19.612701,4.4442444,3.8471832,3.93042,2.6158295,2.8293233,-10.789333,15.613435
1570715499,19.612701,-19.612701,-19.612701,-1.5196228,9.054352,7.4926147,10.672287,-15.46025,-20.471836
1570715499,14.378372,-19.612701,19.612701,-13.895874,-9.564346,1.3204803,19.831257,-15.581603,-8.582947
1570715499,6.450577,-6.154892,19.611511,-1.205368,0.87524414,3.0611115,-1.6756793,3.3994954,21.316706
1570715499,6.450577,-6.154892,19.611511,-1.205368,0.87524414,3.0611115,-1.6756793,3.3994954,21.316706
1570715499,19.612701,-1.1761475,4.232956,1.8018646,0.33302307,0.102874756,21.209408,3.3862066,5.7318883
1570715499,9.652817,-3.728363,3.39917,1.0721588,0.87524414,-1.1573334,11.279629,-0.112880945,3.2374427
1570715499,0.67396545,-6.183029,3.8923798,4.209366,0.9444885,-3.1163483,2.765212,-1.7471299,3.6956718
1570715499,0.67396545,-6.183029,3.8923798,4.209366,0.9444885,-3.1163483,2.765212,-1.7471299,3.6956718
1570715499,10.207077,-19.612701,7.2274933,4.751587,2.402832,-4.255127,9.603399,-15.358972,3.760056
1570715499,7.65007,-19.612701,3.0615845,5.5420074,1.5037537,-6.1001587,8.531163,-15.510837,3.0405478
1570715499,6.5236053,-19.612701,1.4287415,5.660263,0.9285126,-6.233322,8.531163,-15.510837,3.0405478
1570715499,-6.4374084,-15.049347,-12.543228,2.5177307,4.4950104,-4.069763,5.2778044,-16.179134,-11.93371
1570715499,-6.4374084,-15.049347,-12.543228,2.5177307,4.4950104,-4.069763,5.2778044,-16.179134,-11.93371
1570715499,-19.612701,13.696625,-19.60791,-1.2639618,6.625534,0.046417236,-21.06391,17.705898,-22.020323
1570715499,-17.762589,10.2920685,-19.612701,-2.5848846,3.802597,1.2650757,-19.760973,15.265844,-22.427954
1570715499,-6.392517,4.2203827,-8.99501,-3.3327026,-6.1864014,2.5284882,-7.445989,9.095872,-13.144912
1570715499,-1.5209198,-0.296875,12.707825,-2.826706,-2.2939148,1.5164795,-2.8815782,1.6825757,9.65729
1570715499,-2.1912994,-0.26934814,13.361435,-2.7702484,-1.8891144,1.4706726,-2.520759,3.0336413,11.069248
1570715500,-19.573792,-19.555237,-8.35936,1.0540619,-10.641327,1.2629547,-8.430762,-15.722783,-5.7482643
1570715500,-19.612701,-19.612701,-15.644318,2.1960144,-10.515625,2.3282166,-8.430762,-15.722783,-5.7482643
1570715500,0.3896637,0.41479492,8.793304,-0.38830566,-6.741394,2.2621613,0.3308577,4.6888294,3.525333
1570715500,0.3896637,0.41479492,8.793304,-0.38830566,-6.741394,2.2621613,0.3308577,4.6888294,3.525333
1570715500,-19.612701,-19.612701,-17.19635,2.1129303,8.711334,5.583664,-17.990608,-14.032686,-3.1881933
1570715500,19.612701,-19.612701,-19.612701,-13.248184,15.019821,5.268341,20.714647,-15.505001,-19.466272
1570715500,-6.5014496,-19.612701,-19.612701,-1.0306702,-3.9951477,0.027236938,0.28410006,-15.789944,4.274618
1570715500,17.032349,-9.293091,19.612106,0.34777832,-1.4172058,2.511444,12.649258,-2.6752248,21.479784
1570715500,10.956467,-3.3435059,3.7559052,1.4173126,2.4646149,-0.9304352,13.724965,0.53230906,4.644042
1570715500,10.956467,-3.3435059,3.7559052,1.4173126,2.4646149,-0.9304352,13.724965,0.53230906,4.644042
1570715500,3.9037476,-5.3037567,3.4434662,4.597122,1.1319733,-3.5019836,6.615518,-0.21007943,5.6650434
1570715500,3.9037476,-5.3037567,3.4434662,4.597122,1.1319733,-3.5019836,6.615518,-0.21007943,5.6650434
1570715500,4.2760468,-19.612701,-6.649292,4.9998016,0.6728363,-4.643936,3.3068917,-13.829977,-5.7688932
1570715500,5.2630463,-19.612701,9.187149,6.010727,5.8479004,-4.875107,5.289748,-15.37291,11.89515
1570715500,0.19871521,-19.612701,-6.597229,5.45253,-0.61079407,-5.7635345,-3.0043912,-15.6295395,-9.841709
1570715500,4.8488617,-19.612701,7.6853943,1.9297028,-4.127243,-4.7909546,-7.155364,-15.900085,-16.706486
1570715500,-11.1091,5.102646,-14.446014,3.255951,7.042053,-2.0958252,-11.293857,4.6747074,-18.617577
1570715500,-16.96112,12.722794,-19.612701,-2.6349487,6.2676086,1.2480316,-19.016764,18.99143,-22.408068
1570715500,-16.96112,12.722794,-19.612701,-2.6349487,6.2676086,1.2480316,-19.016764,18.99143,-22.408068
1570715500,-2.9550476,-2.6503754,3.2166138,-2.4634552,-8.648224,1.2980957,-3.705996,1.3829644,1.3321413
1570715500,-2.9550476,-2.6503754,3.2166138,-2.4634552,-8.648224,1.2980957,-3.705996,1.3829644,1.3321413
1570715500,-3.624817,-12.369644,-0.15142822,-2.2802277,4.1104584,2.0267487,-6.7627006,-7.8092604,10.523288
1570715500,-3.624817,-12.369644,-0.15142822,-2.2802277,4.1104584,2.0267487,-6.7627006,-7.8092604,10.523288
1570715500,-3.5691528,-19.612701,-11.866257,0.5874634,-8.142227,2.4485931,0.641727,-15.667045,-10.545347
1570715500,-3.5691528,-19.612701,-11.866257,0.5874634,-8.142227,2.4485931,0.641727,-15.667045,-10.545347
1570715500,-8.056488,-19.612701,-19.612701,2.9235992,3.0995178,3.9207764,-5.120904,-15.516759,-12.301007
1570715500,-9.313446,-19.612701,-19.5307,2.4911041,3.8569183,4.535446,-6.9278116,-15.487942,-20.06267
1570715500,15.786163,-19.612701,19.612701,-3.6256561,-6.329132,0.029373169,18.713827,-15.812549,21.100067
1570715500,6.178833,1.2437897,18.248001,-0.8964386,0.50772095,2.7117157,2.409399,5.395317,21.408022
1570715500,6.178833,1.2437897,18.248001,-0.8964386,0.50772095,2.7117157,2.409399,5.395317,21.408022
1570715500,19.612701,-4.4568024,9.258972,1.8860321,-0.37431335,0.7942352,21.03102,-1.0241354,10.271015
1570715500,13.077133,-5.1092224,12.363052,3.0791168,-0.052597046,-1.5674591,16.58369,-1.2288766,11.937655
1570715500,12.13681,-5.118805,12.282852,3.363556,0.052856445,-1.6974182,16.58369,-1.2288766,11.937655
1570715501,2.410965,-5.487503,6.103424,5.0147095,1.4078827,-3.0226135,5.068691,0.51767683,6.4940276
1570715501,13.996506,-19.612701,-1.2395935,6.3548126,2.0726013,-4.72171,6.5726576,-12.421575,-1.8647977
1570715501,17.151459,-19.612701,1.7184448,5.789154,4.188217,-5.80188,16.279898,-15.510202,1.688322
1570715501,-13.940842,-19.612701,-9.541489,2.9619446,-4.8835754,-5.610138,-12.519327,-16.107853,-17.008974
1570715501,-13.940842,-19.612701,-9.541489,2.9619446,-4.8835754,-5.610138,-12.519327,-16.107853,-17.008974
1570715501,-1.482605,-18.419785,-11.54245,2.618927,6.1685486,-2.9277954,10.466246,-16.469803,-7.926509
1570715501,-17.499817,16.472702,-12.606064,2.5401,6.8843994,-2.1586761,-13.217356,13.539778,-17.563065
1570715501,-13.1818695,3.5428162,-19.612701,-3.0152588,-0.37217712,2.0235443,-13.676915,7.658233,-22.359358
1570715501,-13.1818695,3.5428162,-19.612701,-3.0152588,-0.37217712,2.0235443,-13.676915,7.658233,-22.359358
1570715501,-0.66677856,-3.7134094,1.7645264,-3.5628052,-6.1778717,1.7348633,-1.9624454,-0.34576154,-0.70445657
1570715501,-0.66677856,-3.7134094,1.7645264,-3.5628052,-6.1778717,1.7348633,-1.9624454,-0.34576154,-0.70445657
1570715501,-1.2473755,-6.1961975,2.8353271,-3.401947,-2.867035,1.8935852,-2.9783976,-6.4276886,11.502718
1570715501,1.0546417,-19.612701,-14.415482,0.7802887,-5.2958374,4.66008,1.227888,-15.747869,-20.085743
1570715501,1.0546417,-19.612701,-14.415482,0.7802887,-5.2958374,4.66008,1.227888,-15.747869,-20.085743
1570715501,0.24958801,-2.1799164,9.299072,-0.29989624,-5.3938446,1.3694763,0.7251367,2.8305178,5.724666
1570715501,-12.263107,-15.392914,4.6279907,1.7794952,0.33728027,1.5015717,-7.368847,-5.4094467,7.9434514
1570715501,19.612701,-19.612701,19.612701,-20.052032,-3.5264282,1.1393738,19.351843,-15.756168,-18.312778
1570715501,-8.89386,-16.454742,14.287399,-3.7140656,-1.9487762,1.6325989,-15.382893,-15.860447,-16.363373
1570715501,-7.1341248,-5.4144897,19.612701,-3.4264526,0.101867676,2.11409,-9.531801,-14.259283,8.916605
1570715501,19.612701,-7.1329193,6.5559235,2.12677,-1.437439,0.62272644,20.885984,-3.8473256,8.359053
1570715501,14.11322,-2.214035,12.761093,2.1853638,0.04434204,-0.60020447,14.902898,1.3900883,11.740809
1570715501,13.801376,-2.2074585,13.530838,2.44635,0.027297974,-0.7599945,14.902898,1.3900883,11.740809
1570715501,5.795761,-13.919296,3.1202393,6.2109985,2.6467743,-3.766159,4.718558,-6.9370937,3.197684
1570715501,6.479904,-15.463547,1.6071014,6.3388367,2.7969818,-3.908905,4.718558,-6.9370937,3.197684
1570715501,-1.2737122,-19.612701,2.2158356,5.4173737,0.98709106,-5.686844,-1.1054614,-15.713009,0.34536052
1570715501,-1.5873566,-19.612701,2.7970276,5.54628,0.14447021,-5.7454224,-1.1054614,-15.713009,0.34536052
1570715501,10.542267,-19.612701,14.119202,2.6476898,-1.6228027,-4.6492615,3.4739492,-16.311785,4.841621
1570715501,10.466858,-19.612701,4.7536926,2.682846,2.050232,-4.4756317,8.649208,-16.36521,11.0513115
1570715501,-19.539078,15.971725,-19.612701,0.6087799,8.277771,-0.39779663,-21.071222,19.76125,-20.948135
1570715501,-19.539078,15.971725,-19.612701,0.6087799,8.277771,-0.39779663,-21.071222,19.76125,-20.948135
1570715501,-12.877213,7.1915894,-19.612701,-2.7318878,2.2994995,2.032074,-13.50116,9.971504,-22.501074
1570715501,-3.9223022,-6.4050903,0.8565216,-3.2144623,-8.463928,1.5835876,-5.571236,-2.6039808,-2.3559108
1570715501,-3.9223022,-6.4050903,0.8565216,-3.2144623,-8.463928,1.5835876,-5.571236,-2.6039808,-2.3559108
1570715501,-13.171707,-4.94104,19.612701,-2.9619904,2.83107,2.035263,-12.48405,0.1603651,18.095085
1570715502,-3.4266968,-19.612701,-8.869919,-1.1318665,-9.265015,1.6698761,0.94500136,-15.88887,-8.480425
1570715502,-3.4266968,-19.612701,-8.869919,-1.1318665,-9.265015,1.6698761,0.94500136,-15.88887,-8.480425
1570715502,3.487152,-4.122223,4.5172577,0.6673584,-1.7133484,4.1306458,0.9867301,0.6217222,0.29428637
1570715502,9.680954,-19.60672,-19.612701,2.9257202,3.0270844,4.2052155,7.7315745,-15.724306,-9.376972
1570715502,-0.74220276,-19.612701,19.500168,-8.647308,-9.569672,0.57159424,4.5747995,-15.714874,20.542885
1570715502,-5.355835,-15.860992,13.346481,-3.9526825,-0.12397766,2.939682,-6.9779716,-15.708884,-2.6602705
1570715502,-5.355835,-15.860992,13.346481,-3.9526825,-0.12397766,2.939682,-6.9779716,-15.708884,-2.6602705
1570715502,19.612701,0.37828064,1.2946625,1.6761627,1.7423706,-0.0899353,21.02563,4.9794006,2.9643745
1570715502,19.612701,0.37828064,1.2946625,1.6761627,1.7423706,-0.0899353,21.02563,4.9794006,2.9643745
1570715502,5.0661316,-3.3818054,6.792343,3.9228058,1.5239868,-3.0055695,6.6528897,0.9089124,9.323914
1570715502,4.526245,-3.6990356,5.8292847,4.0133667,1.5442352,-3.093979,6.6528897,0.9089124,9.323914
1570715502,4.9907074,-11.827957,1.538269,5.5100555,1.4909668,-3.9334106,3.8900094,-6.5249796,3.7867727
1570715502,4.2359467,-19.612701,5.4821167,4.3095093,0.12849426,-5.915863,3.8500936,-15.700619,1.4375249
1570715502,4.2359467,-19.612701,5.4821167,4.3095093,0.12849426,-5.915863,3.8500936,-15.700619,1.4375249
1570715502,8.380905,-19.612701,-3.771469,1.8977509,-0.478714,-5.103073,2.9685988,-16.270826,-13.715868
1570715502,8.380905,-19.612701,-3.771469,1.8977509,-0.478714,-5.103073,2.9685988,-16.270826,-13.715868
1570715502,-16.141113,3.1004944,-11.765106,2.5635376,6.052429,-3.1696167,-13.364265,-0.07201743,-13.848542
1570715502,-16.396088,7.3029175,-19.611511,-2.828827,2.8363953,1.842453,-19.589529,12.210176,-22.285337
1570715502,-16.396088,7.3029175,-19.611511,-2.828827,2.8363953,1.842453,-19.589529,12.210176,-22.285337
1570715502,-5.455185,-3.5392303,0.36212158,-3.4445496,-5.0114136,1.3002319,-6.4891777,1.3140087,-3.4605935
1570715502,-5.455185,-3.5392303,0.36212158,-3.4445496,-5.0114136,1.3002319,-6.49619,-0.08929992,-1.8610734
1570715502,-3.7086182,-10.14064,0.28311157,-4.1263275,0.19348145,1.4483032,-5.984807,-7.340185,8.04381
1570715502,-4.823715,-15.175644,-6.072891,-3.225113,-5.8529663,1.6709442,-4.9075847,-0.81097794,-13.57061
1570715502,-4.776428,-5.5126495,-5.3821716,-0.25302124,-6.1927795,1.6645508,-6.022313,-3.9542835,-9.040329
1570715502,-4.776428,-5.5126495,-5.3821716,-0.25302124,-6.1927795,1.6645508,-6.022313,-3.9542835,-9.040329
1570715502,-2.9753876,-19.612701,-19.612701,0.13366699,8.26712,5.219345,-7.966017,-15.715311,-20.144442
1570715502,-2.9753876,-19.612701,-19.612701,0.13366699,8.26712,5.219345,-7.966017,-15.715311,-20.144442
1570715502,19.612701,-19.612701,-12.375626,-21.13327,3.1570435,2.2131653,20.466244,-15.772917,-18.242895
1570715502,13.829514,-18.34198,19.60791,0.88894653,-2.6262817,-0.2848816,16.9749,-15.933968,20.994444
1570715502,13.972565,-8.096588,19.522919,0.40530396,-0.35513306,2.3729553,8.463066,3.22091,21.18178
1570715502,19.612701,-5.4581757,7.800308,1.8604584,-0.12716675,1.2160797,19.397732,-5.9435625,12.015885
1570715502,13.858231,-2.1553802,5.71257,1.568573,1.0190582,-0.58421326,14.885024,1.2472286,4.537304
1570715502,9.542084,-2.2026672,10.296265,3.0684662,-0.0014648438,-1.7038116,11.572837,1.3622322,10.589597
1570715503,2.1841125,-3.8905792,5.9783173,4.596054,0.84329224,-3.2910614,3.723681,0.7557895,6.5770307
1570715503,8.710709,-17.282547,-0.41360474,5.680496,2.481659,-5.198944,5.7312946,-7.9675884,1.8732555
1570715503,2.9382782,-19.612701,3.5039215,4.0453186,-0.43928528,-5.724121,1.5068389,-15.795362,0.26534855
1570715503,3.078949,-19.612701,4.2951965,3.702301,-1.0582123,-5.6506195,1.7501127,-15.87456,3.1342611
1570715503,3.2962189,-19.612701,4.0803223,1.8359528,-1.5535583,-5.0807037,-1.1546438,-16.239933,-2.6104379
1570715503,-6.2207336,-8.486252,-11.128845,2.7563477,7.00264,-2.5954437,-4.4588785,-11.575382,-10.511965
1570715503,-19.612701,19.442719,-19.612701,-1.1947174,5.6604156,0.32019043,-21.033876,22.226902,-22.381533
1570715503,-19.612701,19.442719,-19.612701,-1.1947174,5.6604156,0.32019043,-21.033876,22.226902,-22.381533
1570715503,-9.612122,0.21368408,-7.3298492,-3.0014038,-3.9876862,2.0214233,-9.961754,5.724627,-10.939693
1570715503,-9.925156,-1.5011597,-6.5571136,-2.9971466,-4.623657,2.01503,-10.265496,3.844947,-9.687551
1570715503,-3.273468,-3.5553894,11.52269,-2.7894135,-4.3754425,2.4230194,-6.129658,-3.3989227,3.0346203
1570715503,-17.706924,-19.612701,7.7620087,-1.4802094,-9.498306,1.668808,-8.162173,-15.97603,-10.082038
1570715503,-17.706924,-19.612701,7.7620087,-1.4802094,-9.498306,1.668808,-8.162173,-15.97603,-10.082038
1570715503,-10.511749,-19.492386,-12.595291,0.70783997,-10.249313,1.873352,-10.859373,-15.795172,-14.891818
1570715503,-2.4600372,-3.9665985,-4.3418884,-0.07086182,-5.493973,4.123184,-3.7213745,0.08827853,-5.6301165
1570715503,-6.598419,-14.511261,-4.833893,0.5800171,4.854004,2.875763,-3.6623938,-4.7545605,-0.6054209
1570715503,14.225143,-19.612701,-19.612701,-4.820877,7.835678,6.8076477,4.316214,-15.574032,-19.802773
1570715503,-8.570648,-19.53189,-19.157806,-1.4375916,-1.1104126,0.23710632,-2.4412355,-15.649578,-6.127864
1570715503,-6.4918823,-4.3825836,19.30983,-2.0053864,-1.2052155,1.7071686,-6.3103313,-12.741708,-8.129973
1570715503,17.74582,-5.6311646,5.19722,1.5387573,-1.5908508,1.331131,18.34132,-1.8443694,7.6334877
1570715503,18.229446,-4.360443,5.4019165,1.1627045,1.0574036,0.77719116,18.992697,-1.3749707,7.0662413
1570715503,12.39119,-3.1537628,13.008896,1.904129,0.21903992,-1.2894287,15.164518,-0.4993887,12.887756
1570715503,3.2866364,-3.273468,4.7177734,4.692993,0.5066681,-2.9203491,4.705842,2.9044771,5.571265
1570715503,3.2866364,-3.273468,4.7177734,4.692993,0.5066681,-2.9203491,4.705842,2.9044771,5.571265
1570715503,13.823517,-19.558228,4.9990997,5.011505,0.11784363,-5.516388,9.69207,-12.778439,-4.372086
1570715503,-4.195236,-19.612701,-5.403717,5.1766357,-1.3309174,-6.755295,-3.7101183,-15.881813,-0.40625548
1570715503,-4.195236,-19.612701,-5.403717,5.1766357,-1.3309174,-6.755295,-3.7101183,-15.881813,-0.40625548
1570715503,-1.972229,-7.94635,-12.363663,2.7211914,6.5829315,-3.0673523,-0.07521486,-9.155547,-11.81298
1570715503,-1.972229,-7.94635,-12.363663,2.7211914,6.5829315,-3.0673523,-0.07521486,-9.155547,-11.81298
1570715503,-13.483551,8.154053,-19.612701,-2.019226,2.462494,2.9354095,-18.44608,12.123923,-21.124672
1570715503,-12.480377,7.8715363,-19.612701,-2.0043182,1.6603394,3.0536652,-15.523153,11.190836,-21.743042
1570715503,-4.9087067,-1.9835968,-1.0247192,-2.7926178,-4.95282,1.6347198,-6.070619,2.658913,-3.4914007
1570715503,-4.9087067,-1.9835968,-1.0247192,-2.7926178,-4.95282,1.6347198,-6.070619,2.658913,-3.4914007
1570715504,-8.896851,-8.132507,14.751282,-4.311676,-1.1242523,1.7668152,-7.9766374,-2.3709185,10.333466
1570715504,-4.0892944,-19.612701,-1.3485413,-1.9276276,0.53648376,2.3079681,-3.2069325,-15.919392,5.609405
1570715504,-5.055359,-19.612701,-16.200958,1.9233093,-6.5070343,3.993225,-6.961301,-15.808812,-13.616953
1570715504,-4.7213593,-13.212997,-4.4167023,0.644989,-7.787491,1.397171,-4.5820103,-11.653286,-6.4399595
1570715504,-5.039795,-0.746994,-7.831436,-0.16461182,-8.293488,0.9902344,-5.048116,2.3321767,-7.749091
1570715504,-4.7967834,-10.948685,4.0336304,-1.2937927,1.9831238,2.464569,-3.9131513,-0.081856966,2.3145947
1570715504,17.216705,-19.612701,-19.612701,-5.1170197,6.863098,6.7437286,0.7372334,-15.550782,-19.633362
1570715504,10.982803,-16.1064,19.607315,-0.4618225,-3.6105804,-0.24972534,17.89479,-15.794889,21.401932
1570715504,-3.8726196,-19.612701,-14.574097,-1.983017,-3.2633057,0.24562073,-2.7266045,-15.83558,-17.870245
1570715504,8.001419,-7.673416,19.612106,-0.23171997,0.49494934,2.9673767,5.098793,0.67758393,21.515509
1570715504,12.90535,-2.2086487,1.1396332,1.8604584,2.6904602,0.522583,12.773182,1.1169515,2.5064254
1570715504,12.90535,-2.2086487,1.1396332,1.8604584,2.6904602,0.522583,12.773182,1.1169515,2.5064254
1570715504,2.7922363,-3.6176453,8.365341,4.974228,-0.42863464,-3.1216736,4.302445,1.8496337,9.523373
1570715504,2.7922363,-3.6176453,8.365341,4.974228,-0.42863464,-3.1216736,4.302445,1.8496337,9.523373
1570715504,0.037704468,-19.612701,9.066238,4.9518585,2.2174835,-5.9073486,2.037229,-15.542704,7.419664
1570715504,0.037704468,-19.612701,9.066238,4.9518585,2.2174835,-5.9073486,2.037229,-15.542704,7.419664
1570715504,13.263275,-19.612701,19.612701,1.7997437,-0.11012268,-4.9059906,4.3842745,-15.988016,5.4223995
1570715504,13.263275,-19.612701,19.612701,1.7997437,-0.11012268,-4.9059906,4.3842745,-15.988016,5.4223995
1570715504,-17.00003,5.1888275,-12.580933,3.3060303,5.798889,-2.3589478,-17.401468,4.853627,-13.268887
1570715504,-14.557938,10.077194,-19.612701,-2.5348206,5.044693,1.0935669,-16.755302,14.266649,-22.400806
1570715504,-13.858231,9.378082,-19.612701,-2.746811,4.5642548,1.26828,-16.755302,14.266649,-22.400806
1570715504,-7.5447235,-4.284424,1.6974945,-2.6935425,-7.204788,2.290924,-8.77503,0.25528193,-1.6318448
1570715504,-7.5447235,-4.284424,1.6974945,-2.6935425,-7.204788,2.290924,-8.77503,0.25528193,-1.6318448
1570715504,-2.7677002,0.205307,9.982025,-3.0791779,-3.4678345,1.7636261,-3.520609,2.7890222,6.8528214
1570715504,-6.4852905,-6.296753,-0.77812195,-3.7353668,-1.581253,0.9976959,-7.5501804,0.35764122,10.572602
1570715504,-19.494186,-19.612701,-13.4027405,1.2734985,-8.819733,5.8755493,-20.216171,-15.840829,-9.4901085
1570715504,1.7848816,-0.0909729,-7.5686646,0.37548828,-3.3527832,2.3612366,2.1922941,3.9808235,-7.224407
1570715504,1.7848816,-0.0909729,-7.5686646,0.37548828,-3.3527832,2.3612366,2.1922941,3.9808235,-7.224407
1570715504,2.7581177,-19.612701,-19.534286,0.75045776,7.819702,2.2131653,3.3567412,-14.026409,-20.077047
1570715504,19.612701,-19.612701,-19.612701,-10.365585,5.827652,4.4768524,19.571104,-15.591635,-19.865232
1570715504,-9.576813,-14.07132,9.593567,-2.9960785,0.6451416,1.6006317,-10.509439,-14.294024,4.2777143
1570715504,-11.052826,-7.064087,15.294754,-1.8125763,0.9242401,3.0344849,-11.355977,-6.3951273,13.077101
1570715504,19.612701,-6.597229,10.240601,1.5536652,-1.8656769,2.3484497,20.880974,-4.6498356,13.360433
1570715505,12.825134,-2.5797577,1.2461853,1.1105194,2.001236,-0.44999695,14.882385,0.9732547,1.8773403
1570715505,7.5590973,-1.8650818,9.395447,3.4008331,0.034744263,-1.8518829,10.587427,1.959408,10.610204
1570715505,4.016876,-1.960846,5.423462,4.0570374,1.4547424,-2.1970367,5.755129,2.541137,6.8319907
1570715505,2.597107,-9.106949,3.9540253,5.451462,1.9298553,-2.7072906,2.0437212,-3.9292889,4.7142687
1570715505,5.2247467,-11.282074,-3.7104187,6.024582,2.373001,-3.0417786,4.9825463,-6.899994,-1.590801
1570715505,14.604034,-19.612701,4.3269196,4.4586334,2.2781982,-6.726532,19.05009,-15.617477,2.0195708
1570715505,-1.1132965,-19.612701,5.197815,3.8556976,-1.5503693,-7.5798187,0.53306055,-15.788446,0.043208957
1570715505,-0.41299438,-19.612701,3.1836853,2.6306458,0.17536926,-3.9121094,-10.947904,-16.20862,1.0457313
1570715505,-7.5411377,-2.5432434,-10.997162,2.7371674,6.2953033,-2.8745422,-5.5487576,-3.9156923,-10.642584
1570715505,-17.283142,13.610443,-6.695984,1.9084015,6.386917,-1.7837067,-19.60298,13.991042,-9.616364
1570715505,-10.685928,4.0228577,-19.461273,-3.6842346,-0.22198486,1.9202118,-12.47388,7.9751368,-20.750725
1570715505,-5.922058,-1.632843,-3.7349548,-2.9470825,-7.467911,1.2746735,-7.5331726,2.8844912,-9.3811035
1570715505,-5.922058,-1.632843,-3.7349548,-2.9470825,-7.467911,1.2746735,-7.5331726,2.8844912,-9.3811035
1570715505,-7.037155,-1.0959473,19.612701,-3.1718445,-0.5106659,0.73350525,-7.004815,2.6722357,18.24232
1570715505,-4.4137115,-8.198349,10.612305,-0.90815735,1.6571503,1.2608185,-9.496986,-2.5684843,18.312325
1570715505,-3.5942993,-10.354919,-13.16272,-1.0583649,-9.168076,1.2629547,-4.844818,-4.333329,-12.052647
1570715505,6.5864563,-19.612701,-2.747345,1.851944,-9.041306,6.5935364,5.5455303,-15.780185,-8.562949
1570715505,1.9183502,-3.182495,11.584946,0.50331116,-4.347748,2.859787,-0.508585,-0.5873029,2.3101664
1570715505,-4.7734375,-17.457916,-2.8460999,2.3110657,5.381317,2.6318207,-4.03451,-8.639972,-0.6318427
1570715505,16.985062,-19.612701,13.408722,-18.952682,1.1351624,-0.1602478,20.567137,-15.669523,-18.8224
1570715505,-18.693924,-19.612701,-8.686768,-2.860794,-2.5666199,1.0019531,-17.847197,-15.758118,-16.820902
1570715505,-4.7812195,-7.9960327,11.881821,-2.9161835,1.1490173,2.9034576,-9.56482,-5.5805464,12.915003
1570715505,19.609116,-5.37558,11.697464,1.1712341,-2.82016,1.9915924,21.101168,-2.9898417,15.711283
1570715505,19.612701,-4.6549225,3.4685974,1.2532654,2.339981,-0.3083191,21.076204,-0.16810846,5.9077516
1570715505,7.2951355,-3.115448,10.49379,3.3486328,0.841156,-2.5016937,9.393656,0.68457055,12.802558
1570715505,5.573105,-2.723999,6.7013702,3.7438507,1.2459564,-2.7648163,7.8573213,0.83996654,10.524513
1570715505,3.7858276,-14.205994,-5.0182495,5.146805,0.47895813,-3.9664307,2.5801954,-8.075905,-4.4323997
1570715505,10.375275,-19.612701,3.5428162,4.3489227,7.2710876,-4.5981293,10.185016,-15.507311,4.8772826
1570715505,2.1709442,-19.612701,4.234741,4.958252,5.153351,-5.2554016,4.6645308,-15.539754,3.2314744
1570715505,-2.0961304,-19.612701,-3.3536835,2.3121338,-4.032425,-4.578964,-5.887186,-15.983049,-13.86469
1570715505,-2.0961304,-19.612701,-3.3536835,2.3121338,-4.032425,-4.578964,-5.887186,-15.983049,-13.86469
1570715505,-11.14621,11.962036,-15.959747,3.2932434,7.3019867,-1.7538757,-10.031797,12.401408,-15.147455
1570715505,-19.612701,12.871826,-18.218674,2.6934967,7.4394073,-1.6718597,-14.184429,14.832883,-18.81414
1570715506,-9.58638,5.873581,-18.905807,-3.3976898,-2.5581055,2.0597687,-11.414912,8.981264,-22.197414
1570715506,-8.807068,5.755661,-16.630722,-3.3934174,-3.3389435,2.0895996,-10.323737,8.817512,-21.760986
1570715506,-7.064087,-6.2392883,0.24002075,-3.7002258,-6.2247467,1.4408417,-7.0988564,-2.2075856,-3.0547214
1570715506,-6.059128,-6.557724,19.612106,-3.1271057,-0.30825806,1.510086,-3.2806482,-0.15169263,17.937315
1570715506,-0.20410156,-11.604095,-17.371124,-2.2738342,-7.149399,0.4938202,0.6499091,-9.451696,-18.047464
1570715506,-16.418243,-19.612701,-8.705917,-0.0058898926,-10.927887,2.9865417,-19.558302,-15.808468,-10.540577
1570715506,-5.5240173,-10.9522705,-9.518753,-0.3680725,-8.991241,2.1236877,-8.06706,-12.359136,-13.725853
1570715506,-6.58226,-19.597733,-11.477203,2.0053406,7.6535187,3.4073334,-5.9417357,-15.543357,-3.2524247
1570715506,-8.247421,-19.612701,-18.74121,1.7059937,8.571777,3.8771057,-5.9417357,-15.543357,-3.2524247
1570715506,19.60373,-19.612701,-19.612701,-10.017242,9.837311,5.326935,20.561932,-15.50393,-19.694086
1570715506,-8.494629,-19.612701,-19.612701,-0.9252014,-0.9122772,-0.293396,1.8499808,-13.725989,13.37564
1570715506,-9.160217,-13.505096,10.031708,-2.7276306,-1.0262604,1.0871735,-9.492578,-15.725115,-13.203916
1570715506,19.612701,-2.8389282,6.795944,1.4759064,-2.2843323,1.0903778,21.097593,-0.27671742,9.252287
1570715506,12.167938,-3.6385956,2.8036041,0.97628784,2.1748657,-0.3924713,15.389597,-0.32352066,4.4138575
1570715506,10.827179,-3.0406342,3.2800598,0.87083435,1.9511566,-0.49473572,13.2528105,0.19714189,4.1201887
1570715506,10.815811,-1.02771,10.854111,3.208023,1.0456848,-2.0202026,13.915642,2.529477,14.895543
1570715506,1.8674774,-6.3979034,3.8893738,4.224289,-0.083496094,-3.394394,3.9103158,-0.22090697,3.4784846
1570715506,3.1376038,-19.612701,5.6000366,4.8250885,5.1128693,-5.291626,8.468514,-15.421856,7.3249044
1570715506,3.1376038,-19.612701,5.6000366,4.8250885,5.1128693,-5.291626,8.468514,-15.421856,7.3249044
1570715506,-1.2892761,-19.612701,-0.675766,5.833893,0.24887085,-5.757141,-1.1053075,-15.5669,0.7417445
1570715506,19.612701,-19.612701,19.612701,1.4407501,1.6401062,-4.5874786,17.085598,-15.969407,17.876667
1570715506,-11.24736,-3.9139252,-13.074142,2.8010864,5.606079,-2.8319244,-13.19132,-4.9752097,-17.582745
1570715506,-13.495514,14.049774,-19.612701,-1.5995178,5.3557434,0.92526245,-15.742409,15.960211,-22.384659
1570715506,-13.495514,14.049774,-19.612701,-1.5995178,5.3557434,0.92526245,-15.742409,15.960211,-22.384659
1570715506,-4.3580475,7.680008,-15.87056,-3.0717163,-4.829254,2.2355347,-6.6170063,12.651482,-21.898924
1570715506,-3.9342651,1.2755127,-4.877594,-3.182495,-6.8276825,1.1457672,-4.7566376,6.945618,-11.042401
1570715506,-9.195526,-13.884567,19.612701,-2.9289703,3.7567902,1.5292664,-15.16363,-6.8993883,18.3625
1570715506,-5.720352,-14.2682495,19.612701,-2.5678406,4.1807556,1.6208801,-11.751828,-9.81032,18.3704
1570715506,-17.284348,-19.612701,-14.706985,0.8899994,-12.272247,5.9415894,-20.187494,-15.713781,-20.221071
1570715506,-6.4499817,-12.963409,-10.050262,-0.064468384,-9.99791,1.5196838,-7.307994,-12.815872,-9.352901
1570715506,-3.9001617,-5.005081,0.12988281,-1.0754089,-7.7001343,2.3218231,-5.3741093,-2.4621625,-4.1704597
1570715506,-12.785629,-17.906235,-8.285736,0.6354065,3.3115082,2.9950714,-13.0193815,-9.293634,-4.903428
1570715506,19.612106,-19.612701,-19.612701,-17.555054,10.895126,3.6672516,20.621538,-15.549622,-18.758553
1570715506,18.8723,-19.612701,19.612701,-6.239807,-8.469254,-0.5724945,20.6018,-15.91026,21.579304
1570715507,17.90384,-10.794266,11.739975,1.0519257,-3.3698425,1.8243408,17.879438,-7.91987,16.240707
1570715507,17.90384,-10.794266,11.739975,1.0519257,-3.3698425,1.8243408,17.879438,-7.91987,16.240707
1570715507,14.342468,-5.115814,6.2039795,1.1414032,1.8467712,-0.0579834,14.4475975,-2.001897,5.6935787
1570715507,14.342468,-5.115814,6.2039795,1.1414032,1.8467712,-0.0579834,14.4475975,-2.001897,5.6935787
1570715507,3.3339233,-5.5156403,3.4410706,5.3374786,0.4320984,-3.1238098,5.8502274,0.5199249,5.984315
1570715507,3.3022003,-7.652466,0.67456055,5.7028656,0.47044373,-3.394394,4.3264475,-1.0763168,4.7654915
1570715507,4.419693,-19.612701,-0.77931213,5.040268,4.122177,-5.4120026,6.675576,-15.373749,1.0212066
1570715507,-6.162674,-19.612701,4.7608643,5.963852,2.9493103,-4.5533905,-7.835434,-15.379522,6.28804
1570715507,-3.1411896,-19.612701,-6.3308716,5.5771637,-0.019577026,-4.531021,-3.9266562,-15.568922,-3.230876
1570715507,11.380234,-19.612701,10.551849,1.5089264,-2.245987,-4.237015,0.5267918,-15.789032,-8.785437
1570715507,-8.625107,-2.573761,-9.0225525,2.775528,2.5711517,-2.6114197,-3.2198598,-7.707123,-10.462536
1570715507,-17.879898,12.322952,-8.001419,1.7326355,5.3056793,-1.9509583,-14.394313,14.162897,-11.753569
1570715507,-10.193314,8.802887,-19.612701,-3.06958,1.2331696,2.2344666,-12.928476,12.887148,-22.072842
1570715507,-4.195236,-1.2467804,-5.9262543,-2.687149,-6.040451,1.9926605,-5.6832514,3.6049716,-10.874716
1570715507,-1.6490021,-3.114853,-0.19992065,-2.4389496,-6.674286,1.7199402,-2.8753927,0.6991143,-2.2036307
1570715507,-1.154602,-2.6749268,0.79966736,-2.4836884,-6.5890656,1.8818665,-2.426673,0.61354876,-1.0939357
1570715507,-7.5638885,-11.590927,16.28476,-3.0972748,2.83107,2.6776123,-9.732932,-9.668015,18.609264
1570715507,-15.822678,-19.600723,-11.074387,-1.5015106,-2.1000366,1.8807983,-10.70447,-15.63542,7.14373
1570715507,-3.4698029,-12.400162,-11.231796,-0.5438385,-8.822922,1.7028961,-7.047475,-15.196547,-14.684409
1570715507,2.1452026,-16.622345,-16.538544,0.41915894,1.8148041,3.639557,-0.2175349,-7.3390303,-20.150583
1570715507,2.1452026,-16.622345,-16.538544,0.41915894,1.8148041,3.639557,-0.2175349,-7.3390303,-20.150583
1570715507,19.612701,-19.612701,-19.612701,-11.002609,5.6923676,4.18071,20.561853,-15.443399,-19.32348
1570715507,0.12988281,-14.7387085,19.60971,0.2316742,-1.5237274,-1.4119263,9.235699,-15.875501,21.475931
1570715507,-15.693985,-5.517441,19.612701,-2.4559937,-0.75460815,2.3814697,-14.076978,-7.0842752,15.511387
1570715507,15.644318,-13.293213,10.134659,1.4588623,-2.9096375,2.6946716,14.799933,-9.876662,15.10369
1570715507,13.858841,-3.1525726,2.1811218,0.52568054,3.8132477,0.80807495,17.015018,0.077082634,5.633485
1570715507,15.185226,-0.8265991,7.6620483,1.2010651,1.1255798,-0.063308716,16.43966,2.31341,5.4434524
1570715507,1.2838898,-3.995926,4.712982,4.624817,0.1157074,-2.9011688,3.179432,2.1268814,4.981507
1570715507,1.2838898,-3.995926,4.712982,4.624817,0.1157074,-2.9011688,3.179432,2.1268814,4.981507
1570715507,-3.2166138,-19.612701,-5.487503,4.1582336,3.8728943,-5.3150635,2.4137254,-15.348883,-8.273304
1570715507,-3.2166138,-19.612701,-5.487503,4.1582336,3.8728943,-5.3150635,2.4137254,-15.348883,-8.273304
1570715507,-1.4011993,-19.612701,0.60453796,4.207245,1.2779083,-5.384308,-2.7596931,-15.548505,5.601099
1570715507,-7.107193,-19.612701,-19.612701,2.299347,-2.9117737,-3.8407288,-12.256587,-15.709787,-21.273863
1570715507,-4.147949,-6.9066772,-7.2675934,2.4154663,4.3693085,-3.3464508,-2.7188604,-6.6125383,-9.571243
1570715508,-19.612701,7.5010376,-13.938446,1.3427429,6.253769,-1.3224487,-16.557083,9.51794,-12.5318985
1570715508,-17.33342,12.638992,-18.426971,-2.224823,3.8143158,1.4845276,-19.345158,15.905564,-21.49525
1570715508,-9.306259,10.667969,-19.612701,-2.65094,-3.381546,2.384674,-13.538515,14.178111,-21.936127
1570715508,-4.016266,0.4554901,0.541687,-2.2408142,-7.669235,1.0850525,-5.020602,5.18021,-4.971936
1570715508,-4.687851,-2.6677399,18.158829,-3.3167267,-2.3077698,0.8996887,-4.459117,1.7474887,8.180415
1570715508,-4.7177734,-6.5595093,-11.382034,-0.7867279,-2.950119,2.2312775,-4.94403,-0.09170365,-12.417103
1570715508,-4.7177734,-6.5595093,-11.382034,-0.7867279,-2.950119,2.2312775,-4.94403,-0.09170365,-12.417103
1570715508,13.308762,-19.27153,-1.5035553,1.6165161,-6.912903,5.550644,14.539125,-15.543787,-0.19704884
1570715508,-1.0600281,-10.025116,11.139023,-0.24557495,-3.748001,2.5306091,-2.3905015,-3.4073777,4.6022267
1570715508,19.612701,-19.612701,-19.612701,-9.788208,10.905777,3.928238,20.451012,-15.420168,-20.101318
1570715508,19.612701,-19.612701,-19.612701,-9.788208,10.905777,3.928238,20.451012,-15.420168,-20.101318
1570715508,5.949585,-19.400818,19.605515,-2.1246948,-2.6699524,-0.77915955,8.496795,-15.578083,20.901716
1570715508,13.371613,-7.332245,19.612701,0.34140015,-1.2467651,2.413437,11.882072,-3.0345223,19.945154
1570715508,13.371613,-7.332245,19.612701,0.34140015,-1.2467651,2.413437,11.882072,-3.0345223,19.945154
1570715508,18.740616,-4.4963074,7.6704254,1.7496796,0.95832825,1.0296631,21.001545,-0.77204657,8.994605
1570715508,15.519211,-3.763092,8.00441,2.12677,0.8496704,-0.6161804,16.479183,-0.8574388,6.9602666
1570715508,0.84695435,-6.2237244,4.920685,5.149994,1.4419708,-3.527542,1.7365028,-0.80665874,5.7943354
1570715508,0.84695435,-6.2237244,4.920685,5.149994,1.4419708,-3.527542,1.7365028,-0.80665874,5.7943354
1570715508,8.531143,-19.612701,4.083313,5.230957,4.2776947,-4.784561,8.71261,-15.318017,4.5608444
1570715508,1.7663269,-19.612701,3.9223022,4.228546,4.254257,-4.9837646,5.0806293,-15.358866,-0.8124391
1570715508,-5.4288483,-19.612701,-6.072296,2.509201,-4.241226,-3.6095734,-11.409927,-15.819408,-11.344778
1570715508,-4.202423,-19.612701,-2.339737,2.1640625,-3.3048553,-3.6820068,-11.409927,-15.819408,-11.344778
1570715508,-19.612701,10.393829,-12.463013,1.0391388,5.0905,-1.7474823,-20.79078,12.279496,-15.481086
1570715508,-19.612701,10.393829,-12.463013,1.0391388,5.0905,-1.7474823,-20.79078,12.279496,-15.481086
1570715508,-16.575653,13.212402,-17.150269,-2.7947388,2.6979065,1.350296,-19.48838,16.899347,-18.27385
1570715508,-6.0232086,0.3728943,-6.826462,-2.5955353,-5.4886475,2.4198303,-6.9126134,5.216463,-10.8256035
1570715508,-1.5251007,-2.7455444,0.5698242,-2.2109833,-4.378647,1.6730804,-2.928411,0.7354667,-1.0429822
1570715508,-4.7530823,-4.9188843,19.612701,-2.8863525,-2.3514404,1.6911926,-2.9344306,0.4406035,7.006922
1570715508,-3.7660828,-18.85553,3.9276886,-2.0309448,1.000946,2.8565826,-4.4413295,-15.729288,17.174906
1570715508,-4.091095,-19.612701,-7.52977,-1.3971252,-8.568329,5.1650085,-6.918404,-15.53281,-16.228903
1570715508,-8.190567,-18.329407,-13.194443,1.0604401,-4.986908,1.1510925,-8.864465,-15.416002,-13.5781765
1570715508,-3.886383,-19.58397,-6.692398,-0.4927063,2.2643433,1.7210083,-0.6691827,-14.168425,-0.52735966
1570715509,19.56662,-19.612701,-19.612701,-6.206787,4.7868958,3.2848206,20.75808,-15.247019,-19.516949
1570715509,19.56662,-19.612701,-19.612701,-6.206787,4.7868958,3.2848206,20.75808,-15.247019,-19.516949
1570715509,-16.00763,4.5489807,19.612701,-1.6463928,-0.84303284,1.4014282,-9.413798,2.235602,16.619465
1570715509,-16.329056,4.392166,19.573792,-1.1329346,-0.88456726,1.6570892,-13.429992,7.797557,21.473886
1570715509,17.365738,-5.6976013,5.3935394,1.7070618,-0.22091675,1.6869202,18.378342,-2.41283,7.9358764
1570715509,15.866974,-3.0957031,5.763443,1.4055939,0.24887085,-0.44467163,16.961079,0.76052475,5.026719
1570715509,15.866974,-3.0957031,5.763443,1.4055939,0.24887085,-0.44467163,16.961079,0.76052475,5.026719
1570715509,1.4921875,-6.8366394,6.0339813,4.941208,1.874466,-2.9118195,3.0317264,-0.35991144,9.212816
1570715509,2.2505493,-7.494446,5.151718,5.149994,1.8861847,-2.9107513,3.0317264,-0.35991144,9.212816
1570715509,13.848068,-19.612701,6.716934,5.831772,6.0279236,-4.7557983,10.526481,-15.167159,6.627044
1570715509,-2.771286,-19.612701,-2.040451,4.414963,3.8931427,-4.338211,-0.6599592,-15.198247,-4.856601
1570715509,-12.358276,-19.612701,-9.38707,3.0737915,-4.5022125,-2.012741,-18.232183,-15.468563,-13.767773
1570715509,-12.358276,-19.612701,-9.38707,3.0737915,-4.5022125,-2.012741,-18.232183,-15.468563,-13.767773
1570715509,7.187393,-15.212158,-17.388489,1.7709808,5.8372498,-4.2668457,13.184578,-15.510101,-5.852418
1570715509,-19.547455,9.438538,-14.639938,0.0037078857,3.6672974,-0.6843567,-19.870447,12.013662,-11.987568
1570715509,-15.965134,10.685928,-13.334503,-2.0597076,3.263565,1.1862488,-18.988766,13.050431,-16.165037
1570715509,-3.85466,4.1760864,-10.280701,-3.8994293,-2.6422577,2.6967926,-6.671117,8.820793,-14.914108
1570715509,-3.5326385,-5.6557007,-1.3335724,-2.6615906,-5.829529,2.925827,-3.612319,0.6059532,-3.9250221
1570715509,-4.9158936,-13.122025,19.612701,-1.2437134,0.57484436,3.5053253,-2.2331998,-2.1752062,18.365314
1570715509,-0.85891724,-6.9078674,-11.368271,0.07081604,-1.9839325,3.686432,0.6154684,-1.7412934,-13.525829
1570715509,-9.010574,-15.929825,-15.6957855,0.77601624,-7.980301,1.2256622,-8.988673,-14.7618065,-20.460037
1570715509,-9.010574,-15.929825,-15.6957855,0.77601624,-7.980301,1.2256622,-8.988673,-14.7618065,-20.460037
1570715509,-5.8849487,-19.612701,-19.577988,-6.957794,9.133179,-0.47875977,-3.666723,-15.052635,-19.281816
1570715509,-5.8849487,-19.612701,-19.577988,-6.957794,9.133179,-0.47875977,-3.666723,-15.052635,-19.281816
1570715509,19.18953,-19.492996,19.612701,-4.073059,-15.204926,-0.2571869,20.790514,-15.531655,21.5648
1570715509,19.18953,-19.492996,19.612701,-4.073059,-15.204926,-0.2571869,20.790514,-15.531655,21.5648
1570715509,18.220474,-2.4319153,19.13266,-0.014404297,1.2630005,2.7394104,15.58266,11.51662,21.649273
1570715509,18.220474,-2.4319153,19.13266,-0.014404297,1.2630005,2.7394104,15.58266,11.51662,21.649273
1570715509,14.762054,-9.294296,4.9188843,0.7110443,0.99668884,0.44802856,16.882868,-5.981913,6.9817944
1570715509,12.623428,-4.050995,18.297684,2.3856354,2.418808,-1.5706482,19.408312,-0.53740287,18.683193
1570715509,15.305527,-19.612701,0.5315094,7.106888,9.068192,-5.177643,13.970289,-15.107071,10.980286
1570715509,15.943588,-19.612701,-4.4544067,7.4200745,9.7222595,-5.484436,13.970289,-15.107071,10.980286
1570715509,11.106705,-19.443314,-18.984222,5.927643,2.7724762,-4.2338104,6.471283,-14.997465,-19.667091
1570715509,2.3038177,-19.612701,14.030029,6.5444336,3.7365417,-1.2020721,-0.2824489,-15.1457615,15.550664
1570715510,13.415314,-17.423203,-12.783844,3.4125519,-4.6609344,-3.6905365,7.462144,-15.478379,-21.550785
1570715510,10.645218,-18.889053,1.1330566,2.3579407,-1.5919037,-4.732361,11.153278,-13.087019,-9.3727665
1570715510,-12.330734,3.0119019,-8.7939,0.8260956,3.7940674,-1.9083405,-14.092867,4.3584056,-9.986629
1570715510,-14.696213,10.506958,-6.8204803,-3.1814423,4.537628,1.6304626,-14.919786,15.64028,-9.978602
1570715510,-14.696213,10.506958,-6.8204803,-3.1814423,4.537628,1.6304626,-14.919786,15.64028,-9.978602
1570715510,-4.869812,4.8404846,-4.323929,-3.5340424,-1.8550262,1.6815948,-6.8695536,8.00282,-7.901394
1570715510,-3.391388,2.6000977,-1.7501678,-3.2080688,-2.8915253,1.1361847,-3.3635716,8.429362,-3.5849543
1570715510,1.2707214,-8.712494,-1.1294708,-3.591568,-1.850769,2.0405884,0.78593826,-3.7311645,-1.9291294
1570715510,1.2707214,-8.712494,-1.1294708,-3.591568,-1.850769,2.0405884,0.78593826,-3.7311645,-1.9291294
1570715510,1.1408386,-12.324158,-1.398819,-0.8921814,-3.970642,2.6243591,1.3665215,-8.252068,1.4982256
1570715510,-12.938263,-19.003372,-19.612701,-0.93692017,-0.95806885,-2.9586945,-9.190628,-9.290933,-20.163296
1570715510,-11.083954,-19.612701,7.4729004,-2.68396,1.684845,3.005722,-11.931058,-14.871593,7.8151317
1570715510,-11.083954,-19.612701,7.4729004,-2.68396,1.684845,3.005722,-11.931058,-14.871593,7.8151317
1570715510,19.611511,-19.612701,-19.612701,-9.889404,-0.7610016,1.5963745,20.356386,-14.91212,-18.451897
1570715510,10.637436,-19.612701,6.533783,-9.783951,-9.098831,1.7178192,12.391284,-15.200426,4.618063
1570715510,2.4600372,-9.286514,0.7984619,0.04951477,-0.84942627,1.6091614,4.198226,-6.199399,4.3010416
1570715510,2.4600372,-9.286514,0.7984619,0.04951477,-0.84942627,1.6091614,4.198226,-6.199399,4.3010416
1570715510,19.612701,-2.5408478,15.307327,1.9744415,2.0065613,-0.44892883,21.986593,0.2708857,16.031328
1570715510,19.612701,-2.5408478,15.307327,1.9744415,2.0065613,-0.44892883,21.986593,0.2708857,16.031328
1570715510,1.3682861,-12.002136,1.6950989,4.8368073,3.835617,-4.1400757,4.7811003,-6.7348537,4.7386856
1570715510,-1.6178894,-15.143921,0.042495728,4.3009796,3.6502533,-4.051651,-0.4843526,-9.652306,1.6224856
1570715510,11.807602,-19.612701,-19.612701,6.7074127,2.8363953,-6.1619415,8.577306,-14.731021,-14.370431
1570715510,-19.608505,-19.612701,16.569077,1.8029327,-3.0406647,-2.3717346,-20.807623,-14.754028,-9.41533
1570715510,-19.608505,-19.612701,16.569077,1.8029327,-3.0406647,-2.3717346,-20.807623,-14.754028,-9.41533
1570715510,0.6985016,-16.943161,-10.329788,3.5638123,-1.9381256,-2.5911713,-3.3540864,-14.630535,-10.908989
1570715510,5.6904144,-15.113403,-1.742981,1.4972076,-2.8968506,-6.552902,8.983418,-10.31027,-6.5909443
1570715510,5.6904144,-15.113403,-1.742981,1.4972076,-2.8968506,-6.552902,8.983418,-10.31027,-6.5909443
1570715510,-6.3386536,1.2910767,-13.740326,-1.2245483,3.4819489,2.9279633,-10.636229,4.8301735,-13.602408
1570715510,-6.2871704,1.1073151,-14.523224,-1.4961853,3.359436,3.148468,-9.460278,4.975058,-15.4079075
1570715510,-1.0187378,-10.024521,19.33377,-6.5668488,-1.5194702,7.3658447,-2.9627242,-7.058442,12.907977
1570715510,-1.1863251,-8.458115,19.612701,-6.2248993,-0.8813782,7.4286957,-2.9627242,-7.058442,12.907977
1570715510,2.857483,-0.29089355,-11.790253,-1.7582397,-2.711502,5.5655518,3.740518,3.599752,-10.791891
1570715510,2.857483,-0.29089355,-11.790253,-1.7582397,-2.711502,5.5655518,3.740518,3.599752,-10.791891
1570715511,9.98143,-16.704346,2.07518,-3.4637299,3.27742,3.161255,0.2045052,-14.675169,-1.5830464
1570715511,17.125717,-14.243103,-0.8319855,-3.9942322,4.485428,1.6879883,16.90885,-8.856662,0.9504305
1570715511,7.085037,-19.612701,-8.576035,-3.209137,-1.3106842,-3.5477905,9.561859,-14.566153,-3.5532022
1570715511,1.7172394,-19.612701,-11.453262,-4.025131,-4.301941,-2.9203491,3.745052,-14.539159,-15.273357
1570715511,-3.6086578,-11.835144,-4.56575,-3.1430817,-2.9884644,0.34788513,-4.547952,-9.362181,0.37339067
1570715511,-3.5763397,-10.611099,8.77475,-2.1183014,-3.4848785,1.3897095,-4.5474825,-7.2170763,8.256122
1570715511,1.8800507,-9.573212,-1.7064667,-0.40109253,-2.6433258,1.3343201,2.7812486,-4.936081,-0.22846603
1570715511,6.146515,-6.613388,10.383057,-0.34996033,-2.10643,1.1968994,6.582389,-2.2427373,12.088555
1570715511,4.3771973,-6.909073,7.6710205,1.106247,3.47023,-0.5693054,6.235651,-1.0718751,11.073352
1570715511,-6.8575897,-15.804123,-9.293091,1.6878815,3.4585114,-0.045196533,-5.854101,-10.184282,-4.032282
1570715511,-6.953964,-16.057312,-10.032303,1.6868286,3.0132294,0.0826416,-5.4794064,-10.4862585,-6.9546595
1570715511,-7.032364,-19.612701,-10.025116,1.5036011,-0.5809784,-0.18473816,-5.281896,-14.378763,-8.812691
1570715511,0.06285095,-14.614212,-13.583496,1.4215698,-2.8979187,-0.7738342,-0.58383274,-13.325965,-16.44157
1570715511,-8.073853,-18.371307,-8.904037,3.7108307,4.969055,-1.50354,-6.8429694,-12.266047,-6.930941
1570715511,-8.073853,-18.371307,-8.904037,3.7108307,4.969055,-1.50354,-6.8429694,-12.266047,-6.930941
1570715511,3.1854858,-2.5324707,0.28251648,3.8556976,1.5793762,-0.31150818,3.6180475,2.399538,0.2520584
1570715511,3.1854858,-2.5324707,0.28251648,3.8556976,1.5793762,-0.31150818,3.6180475,2.399538,0.2520584
1570715511,3.040039,-0.86909485,0.14724731,4.0485077,-1.6568909,-0.65345764,3.3968804,5.0839157,-1.1067755
1570715511,1.7184448,-1.0785828,3.1573486,5.3843536,-1.0592804,-1.5578766,1.7770834,4.403045,1.4820395
1570715511,1.7184448,-1.0785828,3.1573486,5.3843536,-1.0592804,-1.5578766,1.7770834,4.403045,1.4820395
1570715511,-19.612701,-19.01715,-0.76794434,3.1387787,3.4403992,-0.0899353,-3.261152,0.8290844,-4.6651053
1570715511,-0.044296265,-1.5580292,-1.5287018,1.4322205,1.5836487,2.1087646,0.19855824,5.1595035,-6.308673
1570715511,3.3022003,-13.832504,7.7225037,0.61943054,0.8773804,2.3942566,4.88042,-6.2029476,6.050872
1570715511,10.990585,-19.612701,19.196716,3.928131,1.1468811,-2.8308563,12.50914,-14.01223,14.759091
1570715511,10.990585,-19.612701,19.196716,3.928131,1.1468811,-2.8308563,12.50914,-14.01223,14.759091
1570715511,6.162079,-19.612701,6.0770874,5.515381,5.3546753,-4.6311646,6.933381,-16.005775,5.09265
1570715511,1.6316528,-19.612701,-1.6669617,4.597122,4.0167084,-4.9507446,4.2108116,-16.52459,-6.4993014
1570715511,-12.203247,-10.605118,1.2731171,-0.4927063,1.4185333,-2.1192627,-11.006483,-8.9677105,-5.248759
1570715511,-12.203247,-10.605118,1.2731171,-0.4927063,1.4185333,-2.1192627,-11.006483,-8.9677105,-5.248759
1570715511,-3.5930939,-2.4396973,15.589249,3.1483612,0.7878876,0.5406952,-2.83246,0.21425748,10.311219
1570715511,-3.5930939,-2.4396973,15.589249,3.1483612,0.7878876,0.5406952,-2.83246,0.21425748,10.311219
1570715511,-3.118454,-2.3941956,9.226654,4.6983185,3.4606476,0.360672,-1.7679442,-0.22243857,4.8503213
1570715511,-3.2980194,-0.070632935,-7.8140717,2.217331,2.416687,1.0914459,-0.647722,0.41981757,-13.01293
1570715511,-3.2980194,-0.070632935,-7.8140717,2.217331,2.416687,1.0914459,-0.647722,0.41981757,-13.01293
1570715512,-10.845734,-8.540115,3.9510345,-4.0006256,0.33622742,0.94763184,-7.6115522,-7.421033,-1.4637132
1570715512,-11.644806,-8.696335,4.1677094,-4.162552,0.45126343,1.0754547,-7.6115522,-7.421033,-1.4637132
1570715512,-14.237122,-5.594055,7.035965,-5.152176,-1.6558228,3.6874847,-11.139574,-4.004554,2.5169845
1570715512,-14.237122,-5.594055,7.035965,-5.152176,-1.6558228,3.6874847,-11.139574,-4.004554,2.5169845
1570715512,-16.221909,-6.044159,12.822739,-3.4999542,1.0520782,4.5908356,-14.043558,-5.6421843,7.919528
1570715512,-9.181763,-6.314102,12.135605,-2.893814,0.72717285,4.4917603,-8.825039,-3.8680766,8.316191
1570715512,2.5546112,-10.3980255,4.2940063,-2.9854279,-0.44995117,2.2035828,6.167462,-7.4466515,-1.3116865
1570715512,2.063202,-9.016571,8.851364,-3.4296417,-0.5213165,0.66000366,6.682957,-7.749958,3.4974108
1570715512,-2.2786865,-8.614334,8.95491,-3.6853027,1.1639252,-0.94641113,2.4197855,-5.488511,4.9398403
1570715512,-5.814911,-6.752243,4.8715973,-1.4013824,1.6678009,0.9220581,-1.2898383,-3.0519073,1.9741514
1570715512,-5.814911,-6.752243,4.8715973,-1.4013824,1.6678009,0.9220581,-1.2898383,-3.0519073,1.9741514
1570715512,-0.881073,-6.24527,7.6907806,-1.0530396,1.6092072,2.8065186,3.9769573,-3.4019923,5.296173
1570715512,0.6033325,-4.4011383,6.5134277,-0.7867279,1.7775269,2.891739,5.5493536,-1.7201083,4.030231
1570715512,-4.719574,-10.720032,8.385086,0.4393921,2.1865845,2.1364594,2.581296,-6.864693,6.4959536
1570715512,-12.261307,-14.227539,5.5557404,0.86550903,2.8875275,2.734085,-4.3068914,-11.208288,4.9921036
1570715512,-16.282364,-12.023682,8.746613,3.8791351,4.7687836,2.5061188,-8.687536,-9.75589,9.481403
1570715512,-17.100586,-15.79216,0.54467773,5.0178986,4.4502716,2.542328,-11.037043,-13.713644,2.5037766
1570715512,-12.074554,-5.657501,-9.99939,3.9696808,1.0531464,0.75694275,-4.574432,-5.6466446,-10.111817
1570715512,-12.074554,-5.657501,-9.99939,3.9696808,1.0531464,0.75694275,-4.574432,-5.6466446,-10.111817
1570715512,-11.678909,0.25079346,-5.692215,1.9126587,-1.3660736,0.72605896,-5.4739914,0.14589727,-6.889295
1570715512,-7.4573364,2.518097,5.8412476,-0.5480957,2.6350555,1.4557648,-2.650751,0.20273858,5.5816445
1570715512,-7.4573364,2.518097,5.8412476,-0.5480957,2.6350555,1.4557648,-2.650751,0.20273858,5.5816445
1570715512,-5.5533447,0.5560608,-1.2838898,2.7797852,-4.4734497,0.8102112,1.0179172,0.6217861,-0.6600932
1570715512,-5.4617767,0.63505554,-1.435318,2.8820496,-4.779175,0.8016968,1.4074388,0.27342445,-1.1624916
1570715512,-4.2981873,2.8754425,-1.6765442,3.0056152,-7.166443,0.65148926,2.3159666,2.125809,-3.7575278
1570715512,-6.821686,1.4730377,1.7172394,2.1534119,-6.6188965,-0.3221588,-0.3241744,1.0738055,-2.0944862
1570715512,-8.236649,-0.053268433,2.363083,2.0426178,-6.1608276,0.060272217,-2.006268,-0.7257948,-1.8312602
1570715512,-14.431656,0.025741577,6.3069305,2.682846,-5.5344543,1.3875885,-9.34753,-1.9536812,-0.11701918
1570715512,-12.389999,1.3545227,13.440445,3.3156128,-1.2403717,3.2241058,-8.261538,-0.36601615,10.42844
1570715512,-2.8718414,16.612167,4.226959,2.0958862,-3.727768,-0.42549133,1.0095181,13.272521,-2.4243646
1570715512,-2.8909912,16.350601,4.944626,2.0713806,-4.01326,-0.78341675,0.4534068,13.346018,-1.5815773
1570715512,0.13287354,-5.0266266,-0.42796326,-2.7915497,2.6680908,-2.188507,-0.40411782,-8.594788,1.5415759
1570715512,0.13287354,-5.0266266,-0.42796326,-2.7915497,2.6680908,-2.188507,-0.40411782,-8.594788,1.5415759
1570715513,1.3090363,-1.6262665,-4.5172577,-5.5868073,2.5903168,-2.5602875,4.77747,-4.861376,-11.759699
1570715513,-0.14665222,-10.234009,5.0338135,-4.085846,-3.0704956,1.221405,1.9170659,-10.27204,-1.7684016
1570715513,-0.14665222,-10.234009,5.0338135,-4.085846,-3.0704956,1.221405,1.9170659,-10.27204,-1.7684016
1570715513,5.7664337,-0.45429993,10.075394,1.9595337,-3.5786285,2.8853455,6.6475067,-0.74563825,3.9033294
1570715513,5.84964,-0.15023804,9.583984,2.123581,-3.7128448,2.7649689,6.6475067,-0.74563825,3.9033294
1570715513,0.9834137,1.3820496,10.055054,2.9150696,-4.147476,0.7889099,1.8305815,1.4450705,3.0749722
1570715513,1.4999695,1.328186,7.515991,1.2852173,-2.0606232,0.536438,0.3889786,0.15322125,0.4353075
1570715513,1.4999695,1.328186,7.515991,1.2852173,-2.0606232,0.536438,0.3889786,0.15322125,0.4353075
1570715513,1.9626465,0.4159851,14.353836,-1.1872559,-0.9112091,-0.09313965,0.3482045,-0.36803687,6.526669
1570715513,5.207382,-0.1484375,15.341446,-0.52893066,-0.66192627,-0.88674927,3.3109717,-1.0540406,8.099115
1570715513,5.207382,-0.1484375,15.341446,-0.52893066,-0.66192627,-0.88674927,3.3109717,-1.0540406,8.099115
1570715513,2.8365326,-1.6573792,13.870209,-0.85595703,1.9863129,-1.6867676,1.5621917,-2.3285437,7.328475
1570715513,2.7850494,-1.6071014,13.573929,-0.85595703,2.0513,-1.6835785,1.3923924,-2.263227,6.678586
1570715513,2.6503754,-0.27713013,10.698486,-0.567276,2.401764,-1.5546722,1.7478837,-0.97673106,3.754314
1570715513,2.47081,0.4046173,8.748413,-0.75050354,2.4475708,-1.7283173,2.1135812,-0.10137561,1.9341683
1570715513,0.33699036,-1.8447266,10.579376,-0.7941742,1.2001495,-1.2627869,0.23770002,-2.2323449,2.2647371
1570715513,-0.8152313,1.2665253,9.443329,1.1403351,-0.20280457,-0.45639038,-1.0387918,0.5434882,2.144209
1570715513,-0.63386536,1.5466614,9.213486,1.1083832,-0.19747925,-0.4063263,-1.0387918,0.5434882,2.144209
1570715513,-1.3575134,0.87628174,8.4808655,0.75045776,-0.77272034,-0.5171051,-1.0804379,0.2726621,0.6235633
1570715513,-1.3575134,0.87628174,8.4808655,0.75045776,-0.77272034,-0.5171051,-1.0804379,0.2726621,0.6235633
1570715513,-0.31962585,1.5502472,4.2084045,-0.4106903,-0.14208984,-0.117630005,-0.98197377,0.79835606,-3.3129373
1570715513,-0.047286987,1.4556732,4.2066193,-0.49163818,-0.14421082,-0.15065002,-0.98197377,0.79835606,-3.3129373
1570715513,-0.5883789,-0.6039429,8.094803,-1.3214874,-0.019577026,-0.5874176,-0.9141034,-1.0856783,0.4849329
1570715513,-0.5883789,-0.6039429,8.094803,-1.3214874,-0.019577026,-0.5874176,-0.9141034,-1.0856783,0.4849329
1570715513,2.7664948,1.656189,10.333374,-1.8413391,0.4842987,-0.67370605,2.532053,1.3649755,2.1350718
1570715513,2.7664948,1.656189,10.333374,-1.8413391,0.4842987,-0.67370605,2.532053,1.3649755,2.1350718
1570715513,2.7664948,1.656189,10.333374,-1.8413391,0.4842987,-0.67370605,2.532053,1.3649755,2.1350718
1570715513,2.7664948,1.656189,10.333374,-1.8413391,0.4842987,-0.67370605,2.532053,1.3649755,2.1350718
1570715513,2.7664948,1.656189,10.333374,-1.8413391,0.4842987,-0.67370605,2.532053,1.3649755,2.1350718
1570715513,-0.10055542,2.4235382,14.535797,0.15284729,-0.16978455,0.022979736,-0.87100184,2.541983,5.938754
1570715513,1.0037689,-1.8716736,14.059357,0.5672302,-0.19641113,-0.42230225,0.55060804,-1.2909926,6.798269
1570715513,1.0037689,-1.8716736,14.059357,0.5672302,-0.19641113,-0.42230225,0.55060804,-1.2909926,6.798269
1570715513,1.0037689,-1.8716736,14.059357,0.5672302,-0.19641113,-0.42230225,0.55060804,-1.2909926,6.798269
1570715513,1.0037689,-1.8716736,14.059357,0.5672302,-0.19641113,-0.42230225,0.55060804,-1.2909926,6.798269
1570715514,1.0037689,-1.8716736,14.059357,0.5672302,-0.19641113,-0.42230225,0.55060804,-1.2909926,6.798269
1570715514,0.5129547,1.1270752,7.483078,-0.16140747,0.87631226,-0.9315033,-0.15884164,0.7359947,1.8392315
1570715514,0.5129547,1.1270752,7.483078,-0.16140747,0.87631226,-0.9315033,-0.15884164,0.7359947,1.8392315
1570715514,1.2210388,-0.77812195,10.115509,-0.36488342,-2.0148163,-1.5408325,0.99998593,-1.4946438,1.0733299
1570715514,1.2210388,-0.77812195,10.115509,-0.36488342,-2.0148163,-1.5408325,0.99998593,-1.4946438,1.0733299
1570715514,1.2210388,-0.77812195,10.115509,-0.36488342,-2.0148163,-1.5408325,0.99998593,-1.4946438,1.0733299
1570715514,1.2210388,-0.77812195,10.115509,-0.36488342,-2.0148163,-1.5408325,0.99998593,-1.4946438,1.0733299
1570715514,-1.6669617,1.10672,8.832809,0.41383362,1.4526215,0.30847168,-1.7125187,-0.48355532,2.9716272
1570715514,-1.6669617,1.10672,8.832809,0.41383362,1.4526215,0.30847168,-1.7125187,-0.48355532,2.9716272
1570715514,-1.2030792,1.2144623,10.324997,0.091049194,0.37243652,0.5609436,-1.1442446,-0.26368523,2.1334162
1570715514,-1.2030792,1.2144623,10.324997,0.091049194,0.37243652,0.5609436,-1.1442446,-0.26368523,2.1334162
1570715514,-1.2030792,1.2144623,10.324997,0.091049194,0.37243652,0.5609436,-1.1442446,-0.26368523,2.1334162
1570715514,-1.2030792,1.2144623,10.324997,0.091049194,0.37243652,0.5609436,-1.1442446,-0.26368523,2.1334162
1570715514,-1.2030792,1.2144623,10.324997,0.091049194,0.37243652,0.5609436,-1.1442446,-0.26368523,2.1334162
1570715514,-1.2030792,1.2144623,10.324997,0.091049194,0.37243652,0.5609436,-1.1442446,-0.26368523,2.1334162
1570715514,0.14305115,0.6380615,11.040863,-0.56941223,-0.49362183,-0.39779663,0.034584686,-0.4974543,2.755663
1570715514,-0.8355713,-1.2324219,13.895355,-1.1574402,-0.27523804,-0.20817566,-1.0670328,-2.0379617,5.3273687
1570715514,-1.0588379,-1.5316925,14.907501,-0.97953796,-0.1942749,-0.042007446,-1.2788184,-2.2645671,6.2818995
1570715514,-1.0588379,-1.5316925,14.907501,-0.97953796,-0.1942749,-0.042007446,-1.2788184,-2.2645671,6.2818995
1570715514,-1.0588379,-1.5316925,14.907501,-0.97953796,-0.1942749,-0.042007446,-1.2788184,-2.2645671,6.2818995
1570715514,-1.0588379,-1.5316925,14.907501,-0.97953796,-0.1942749,-0.042007446,-1.2788184,-2.2645671,6.2818995
1570715514,0.70988464,0.9229584,10.035294,-0.42559814,-0.14846802,-0.10697937,0.75719225,0.1483283,1.3736572
1570715514,0.032318115,0.3501587,10.723633,-0.42666626,0.064575195,-0.15492249,-0.062388152,-0.50333863,2.3963032
1570715514,-0.11073303,0.42138672,11.486176,-0.22746277,0.46618652,-0.013244629,-0.35542876,-0.5024905,3.1106358
1570715514,-0.11073303,0.42138672,11.486176,-0.22746277,0.46618652,-0.013244629,-0.35542876,-0.5024905,3.1106358
1570715514,-0.11073303,0.42138672,11.486176,-0.22746277,0.46618652,-0.013244629,-0.35542876,-0.5024905,3.1106358
1570715514,-0.11073303,0.42138672,11.486176,-0.22746277,0.46618652,-0.013244629,-0.35542876,-0.5024905,3.1106358
1570715514,-0.11073303,0.42138672,11.486176,-0.22746277,0.46618652,-0.013244629,-0.35542876,-0.5024905,3.1106358
1570715514,-0.29748535,2.2080536,8.286331,0.23274231,0.60679626,0.45228577,0.52615756,0.9616209,0.07870197
1570715514,-0.24481201,2.4175415,8.333618,0.21356201,0.4171753,0.5119324,0.65924585,1.175278,-0.011977196
1570715514,-0.052078247,3.3824158,8.513779,0.37760925,0.04434204,0.52578735,0.9050111,1.7191509,0.6017523
1570715514,-0.052078247,3.3824158,8.513779,0.37760925,0.04434204,0.52578735,0.9050111,1.7191509,0.6017523
1570715514,-0.052078247,3.3824158,8.513779,0.37760925,0.04434204,0.52578735,0.9050111,1.7191509,0.6017523
1570715515,-0.052078247,3.3824158,8.513779,0.37760925,0.04434204,0.52578735,0.9050111,1.7191509,0.6017523
1570715515,-0.052078247,3.3824158,8.513779,0.37760925,0.04434204,0.52578735,0.9050111,1.7191509,0.6017523
1570715515,-2.087143,2.502533,11.821976,0.49266052,2.0694122,0.34362793,-0.48575962,1.0219557,3.6198835
1570715515,-2.5564117,3.5906982,10.83197,0.75364685,1.8595428,0.5620117,-0.5101156,1.6995906,3.0327435
1570715515,-2.9903564,5.222946,8.817841,0.59706116,1.5591431,0.55773926,-0.8403003,3.1138644,1.1212435
1570715515,-2.9903564,5.222946,8.817841,0.59706116,1.5591431,0.55773926,-0.8403003,3.1138644,1.1212435
1570715515,-2.9903564,5.222946,8.817841,0.59706116,1.5591431,0.55773926,-0.8403003,3.1138644,1.1212435
1570715515,-2.9903564,5.222946,8.817841,0.59706116,1.5591431,0.55773926,-0.8403003,3.1138644,1.1212435
1570715515,-1.3970184,0.6715698,10.699692,0.09425354,-0.3157196,0.18276978,-0.016272902,-1.2404772,2.3880959
1570715515,-1.3970184,0.6715698,10.699692,0.09425354,-0.3157196,0.18276978,-0.016272902,-1.2404772,2.3880959
1570715515,-2.6898804,0.7685394,7.9409637,-0.7153473,0.6835022,0.12631226,-0.95607936,-1.0452418,-0.63451767
1570715515,-2.6898804,0.7685394,7.9409637,-0.7153473,0.6835022,0.12631226,-0.95607936,-1.0452418,-0.63451767
1570715515,-2.597702,0.5381012,8.744217,-0.534256,1.0179901,0.60887146,-0.9421443,-0.6776247,0.8578749
1570715515,-2.597702,0.5381012,8.744217,-0.534256,1.0179901,0.60887146,-0.9421443,-0.6776247,0.8578749
1570715515,-2.597702,0.5381012,8.744217,-0.534256,1.0179901,0.60887146,-0.9421443,-0.6776247,0.8578749
1570715515,-2.597702,0.5381012,8.744217,-0.534256,1.0179901,0.60887146,-0.9421443,-0.6776247,0.8578749
1570715515,-2.597702,0.5381012,8.744217,-0.534256,1.0179901,0.60887146,-0.9421443,-0.6776247,0.8578749
1570715515,-2.597702,0.5381012,8.744217,-0.534256,1.0179901,0.60887146,-0.9421443,-0.6776247,0.8578749
1570715515,-2.597702,0.5381012,8.744217,-0.534256,1.0179901,0.60887146,-0.9421443,-0.6776247,0.8578749
1570715515,-2.597702,0.5381012,8.744217,-0.534256,1.0179901,0.60887146,-0.9421443,-0.6776247,0.8578749
1570715515,-2.597702,0.5381012,8.744217,-0.534256,1.0179901,0.60887146,-0.9421443,-0.6776247,0.8578749
1570715515,-2.597702,0.5381012,8.744217,-0.534256,1.0179901,0.60887146,-0.9421443,-0.6776247,0.8578749
1570715515,-0.5093689,2.3457184,10.636841,-0.46820068,0.0059814453,-0.95173645,1.2491549,1.9271665,2.3597918
1570715515,-1.201889,1.3784637,10.936707,-0.5427704,-0.3146515,-0.79833984,-0.2334727,0.77315974,2.028861
1570715515,-1.201889,1.3784637,10.936707,-0.5427704,-0.3146515,-0.79833984,-0.2334727,0.77315974,2.028861
1570715515,-1.201889,1.3784637,10.936707,-0.5427704,-0.3146515,-0.79833984,-0.2334727,0.77315974,2.028861
1570715515,-1.201889,1.3784637,10.936707,-0.5427704,-0.3146515,-0.79833984,-0.2334727,0.77315974,2.028861
1570715515,-1.201889,1.3784637,10.936707,-0.5427704,-0.3146515,-0.79833984,-0.2334727,0.77315974,2.028861
1570715515,-1.7154388,-2.8724365,11.76152,-0.54704285,0.60466003,-1.2265778,-0.766336,-2.7327015,3.6278725
1570715515,-1.7154388,-2.8724365,11.76152,-0.54704285,0.60466003,-1.2265778,-0.766336,-2.7327015,3.6278725
1570715515,-1.3191986,-2.1613617,12.897568,0.0068969727,-0.32104492,-0.016433716,-1.2173688,-2.0411317,3.9513454
1570715515,-1.3191986,-2.1613617,12.897568,0.0068969727,-0.32104492,-0.016433716,-1.2173688,-2.0411317,3.9513454
1570715515,-1.3191986,-2.1613617,12.897568,0.0068969727,-0.32104492,-0.016433716,-1.2173688,-2.0411317,3.9513454
1570715516,-1.3191986,-2.1613617,12.897568,0.0068969727,-0.32104492,-0.016433716,-1.2173688,-2.0411317,3.9513454
1570715516,-0.116119385,-0.28012085,10.465652,0.3350067,0.34474182,-0.1453247,0.17113766,-0.84680367,1.7920179
1570715516,-0.116119385,-0.28012085,10.465652,0.32435608,0.3905487,-0.1453247,0.17113766,-0.84680367,1.7920179
1570715516,0.025146484,0.47644043,9.138672,0.2828064,0.6153259,-0.2625122,0.56796587,0.12231682,0.316926
1570715516,-0.026931763,0.86190796,8.602371,0.21356201,0.5396881,-0.43614197,0.6994174,0.53436065,-0.35523033
1570715516,-0.026931763,0.86190796,8.602371,0.21356201,0.5396881,-0.43614197,0.6994174,0.53436065,-0.35523033
1570715516,-0.026931763,0.86190796,8.602371,0.21356201,0.5396881,-0.43614197,0.6994174,0.53436065,-0.35523033
1570715516,-0.026931763,0.86190796,8.602371,0.21356201,0.5396881,-0.43614197,0.6994174,0.53436065,-0.35523033
1570715516,-1.3257904,1.9812012,9.165009,0.007965088,-0.11651611,-0.022827148,-0.25728273,1.687313,0.17576694
1570715516,-1.3257904,1.9812012,9.165009,0.007965088,-0.11651611,-0.022827148,-0.25728273,1.687313,0.17576694
1570715516,-1.2695312,2.54982,10.444702,-0.18165588,-0.05152893,0.14549255,-0.13113856,2.2193701,1.5958529
1570715516,-1.2084808,2.724594,10.702087,-0.2796631,0.043273926,0.2392273,-0.06652713,2.3125944,1.5813046
1570715516,-1.2084808,2.724594,10.702087,-0.2796631,0.043273926,0.2392273,-0.06652713,2.3125944,1.5813046
1570715516,-1.2084808,2.724594,10.702087,-0.2796631,0.043273926,0.2392273,-0.06652713,2.3125944,1.5813046
1570715516,-1.2084808,2.724594,10.702087,-0.2796631,0.043273926,0.2392273,-0.06652713,2.3125944,1.5813046
1570715516,-1.2084808,2.724594,10.702087,-0.2796631,0.043273926,0.2392273,-0.06652713,2.3125944,1.5813046
1570715516,-1.3790588,1.7202301,11.420944,-1.4812775,0.17643738,-0.24333191,0.25445294,2.5091424,1.5822086
