time,ax,ay,az,gx,gy,gz,la_x,la_y,la_z,fox,foy,foz
1570715472,-7.602112,-10.524597,10.379059,-5.1477966,-1.9239349,0.43952942,-3.3915277,-2.7085004,5.635586
1570715472,-6.6157074,-10.193008,4.6305695,-5.0774994,0.5815735,1.5175781,-3.885629,-1.6018429,1.0019851
1570715472,-8.261719,-3.6340942,37.09236,-2.5943604,5.032242,1.1266174,-1.4892969,2.2725134,14.694531
1570715472,0.78118896,-8.763672,4.5743103,-1.8518829,3.839157,0.22328186,5.021226,-0.018143654,7.118235
1570715472,-8.808792,-8.999496,0.8118286,-1.2553253,-0.7979431,-0.8803406,-1.4859862,-0.39808655,-0.79687095
1570715472,-10.423676,-10.10083,-0.19374084,-2.0159302,0.41325378,-0.80789185,-6.3585863,-0.8872156,-0.4778087
1570715472,-2.543167,-8.386581,0.6143036,-2.107544,0.31526184,-0.7184143,1.5319076,0.8261347,0.78164303
1570715472,-3.0519257,-7.4492493,0.37010193,-2.2556152,-0.027755737,-1.0220184,1.0720172,2.0951557,1.1684983
1570715473,-6.8958282,-8.598465,0.105529785,-2.1778412,-0.2919464,-0.872879,-2.833887,0.6410036,1.3397802
1570715473,-9.410934,-10.658676,-0.6546173,-0.7748871,-1.0791779,-0.08351135,-5.3310804,-0.98629284,1.0334303
1570715473,-12.8741455,-19.834457,2.5775452,1.0680084,-2.8933258,4.254242,-17.77418,-6.3204813,1.9961842
1570715473,10.244263,0.6060333,-1.1454315,-1.0753021,1.7874451,-3.0417633,22.849693,7.8824396,-4.44233
1570715473,-4.90744,-8.183075,-6.759842,0.102890015,-0.40272522,-0.029190063,-1.1031334,1.1337538,-5.4641113
1570715473,2.0010376,-1.3931122,1.1362457,-0.32002258,0.8670654,0.77827454,4.287554,7.044219,0.7178489
1570715473,4.2384186,-3.9201965,2.7008514,0.38198853,1.1312561,-1.5674286,8.115649,5.2523127,3.8297415
1570715473,3.066452,-6.1887054,2.370453,0.9849243,2.5874634,-3.2899628,5.786767,3.5735264,2.9342327
1570715473,-17.268707,-10.799942,-11.37825,0.2083435,-1.2474823,0.09651184,-13.607046,-1.9196682,-6.9921184
1570715473,-1.0467834,-14.38884,2.866043,-0.785553,2.4095612,0.14657593,1.6733723,-4.8226614,3.9911852
1570715473,-6.321213,-18.269852,-2.981781,-0.40737915,-0.17475891,0.82302856,-4.009488,-8.880229,-1.6372027
1570715473,1.449173,-9.264053,0.7447815,-0.24865723,0.026565552,0.5897217,1.4247909,0.45934296,1.2999799
1570715473,-3.9473572,-7.3678436,-0.43554688,-0.94107056,-0.0053863525,-0.101623535,-1.0754666,2.6247444,1.5426315
1570715473,-2.71315,-10.463547,-1.5117493,-0.18048096,-0.29727173,-0.22520447,0.0074636936,-1.1311026,0.35012496
1570715473,-2.1385498,-9.201813,0.42636108,-0.18473816,-1.256012,-0.7557068,0.5839422,0.4892578,2.4082928
1570715473,-2.5096436,-8.357849,-5.657303,-1.3522644,-0.7745056,-1.6100464,-0.15547156,1.0648928,-3.6422768
1570715473,-1.5591431,-7.2445526,-0.75279236,-0.32641602,1.7192688,-1.1136322,0.30899394,2.5105371,1.6239285
1570715473,-0.30697632,-6.622055,-0.2571869,0.7761383,0.36958313,0.11141968,0.94794595,3.387723,2.2315116
1570715473,-4.6512604,-6.58255,-1.4075928,0.14337158,0.0020751953,0.17427063,-2.9494324,3.2092962,0.39381146
1570715473,-4.6273193,-1.2159424,-0.42956543,0.09222412,-0.7659912,0.67814636,-2.3484993,7.848858,1.8655617
1570715473,-3.9090576,4.533722,-3.079956,0.5854492,0.5868988,2.1759033,-1.80194,14.207301,-1.0058204
1570715473,-2.225937,-1.1034241,-4.174103,-0.74186707,0.60180664,2.8470306,-0.117064476,10.390967,-2.1490939
1570715473,0.9284363,-6.6603546,-3.7455444,-0.98794556,2.0931854,-1.2702179,4.1786976,2.3599653,-2.1182885
1570715473,3.77034,-20.349213,-1.735611,-0.81111145,-0.19714355,-2.8745117,3.9060657,-3.0482197,2.5276244
1570715473,1.4216309,-20.709534,5.06752,0.3574829,-0.25146484,-6.0244904,3.0941145,-13.025531,6.9273143
1570715473,-5.4557037,-38.427826,-0.24162292,-0.9304199,-4.997223,-4.8622894,-3.6123662,-19.735956,1.3358817
1570715473,-0.9330597,-3.3096771,3.932663,1.2363281,0.8233948,0.095443726,-1.4816315,6.8127337,6.3122387
1570715473,4.374878,-11.335037,2.663742,1.6602936,0.60180664,-0.22306824,4.1567016,-1.5475664,4.495775
1570715473,1.3641815,-10.969925,1.6845093,1.8030396,-0.58595276,-0.5405121,1.0291443,-1.0537643,3.1689143
1570715473,-3.2123413,-10.246872,1.0105438,1.7199554,-1.0770416,-0.53944397,-3.6271105,-0.29117775,1.9769136
1570715473,-3.0327759,-9.534607,-2.6154785,1.9021149,-0.31645203,-0.04623413,-3.706736,0.47375584,-2.1901479
1570715473,-1.5375977,-9.684235,-1.214859,1.6826782,-0.6935425,0.14978027,-2.150764,0.34293652,-2.0170755
1570715473,1.260025,-9.922455,2.5392456,2.5796204,-2.3947754,0.23072815,0.6396469,0.15267658,1.7314405
1570715473,2.2332764,-9.30954,0.72683716,2.5647125,-2.101822,-0.25076294,1.6011436,0.5269413,-0.88062537
1570715474,3.2460175,-8.039429,1.537262,2.4390106,-0.34947205,-0.51174927,2.3182442,1.5928574,-0.749702
1570715474,-0.19206238,-8.454819,1.6258545,2.6925354,-0.68289185,-0.7365265,-0.5052547,1.1604424,-1.0140648
1570715474,-1.9134827,-8.171097,1.734787,2.507187,-1.7396393,-0.24118042,-3.3350246,1.0455465,-2.0678856
1570715474,1.3210754,-6.6759186,2.3465118,2.317566,-1.671463,-0.1697998,-1.086977,1.8128309,-1.7771268
1570715474,2.007019,-5.163986,2.881607,2.1364746,-1.3050079,-0.39990234,0.2592473,3.303667,-1.9128056
1570715474,0.6686554,-3.9405518,3.9745636,1.5953217,-0.8916931,-0.28805542,-1.277765,4.274314,-1.2141151
1570715474,2.3027039,-3.325241,5.122589,1.061615,-0.58062744,-0.0440979,0.053271294,4.67068,-0.3665514
1570715474,3.113144,-2.8021088,8.11055,0.67385864,-0.5124512,0.05709839,0.8254335,4.927283,2.537097
1570715474,3.1418762,-1.4086761,4.6820526,-0.69499207,-1.0791779,0.27334595,0.05692959,6.1388493,-0.435843
1570715474,4.287491,0.8167267,-1.9798126,-1.5898285,-0.43894958,0.27653503,1.8557932,8.713877,-6.7484274
1570715474,2.8521729,-3.965683,0.53289795,-1.8540039,1.977066,0.735672,0.61525273,4.726672,-4.6255183
1570715474,12.766556,-18.663696,2.6362,-2.1011505,2.2061005,0.40437317,11.189348,-10.079079,-1.338315
1570715474,-1.5495758,-10.046967,-0.8593292,-2.0510864,3.0753632,-0.32000732,-3.8136592,-1.5898266,-9.046839
1570715474,-3.238678,-9.09407,-7.6073914,-2.8383179,2.3136902,0.1359253,-3.8782115,-0.033284187,-10.543134
1570715474,-4.499222,-13.431168,-2.5400543,-3.0886536,3.6633759,0.59931946,-5.2853584,-3.919444,-5.0567565
1570715474,-2.021225,-17.546799,-0.67855835,-3.4721375,4.0372925,-0.10908508,-2.5853739,-7.5964727,-2.3042116
1570715474,-3.4709167,-19.123383,-3.3421173,-3.8694916,0.8233948,-1.0177612,-3.791658,-9.202934,-3.8162637
1570715474,-6.266144,-25.250137,-0.3541565,-5.394943,1.097168,-0.6630249,-6.6746664,-14.997381,-0.15754491
1570715474,-5.5658417,-23.24739,16.57286,-4.6535187,-2.6387177,1.3833466,-7.509391,-13.813304,16.303095
1570715474,8.90831,-20.608978,13.290405,-2.4846497,-0.40699768,1.4707031,7.0288963,-11.866584,17.617022
1570715474,6.3141785,-5.379471,9.040695,-1.4971466,2.1091614,-0.8845978,7.6922817,2.5375042,13.516408
1570715474,-10.678665,0.9998932,2.2267914,-1.4215088,0.19488525,-0.88352966,-10.554262,9.997292,6.319601
1570715474,-11.819504,-3.6304932,11.395401,-0.080337524,-2.0645447,-0.105895996,-12.054619,6.696618,13.375313
1570715474,-6.416977,-6.223419,11.631226,1.8946533,-1.7790527,0.43632507,-8.31621,1.8418608,17.356058
1570715474,9.069916,0.78082275,2.7906342,3.3167877,-0.83309937,-0.30082703,9.6606655,9.858271,5.7800674
1570715474,9.284195,0.19662476,3.4981232,3.927185,-2.275467,-1.2414551,9.273526,10.27521,5.5613127
1570715474,1.5664825,-16.627426,2.5380402,4.8752747,-0.6669159,-1.7389374,2.805656,-5.3085003,3.172258
1570715474,-3.0315857,-37.57788,-4.022064,5.7818146,0.33335876,-0.86009216,-4.185237,-27.217995,-4.617482
1570715474,2.0752563,-27.619202,2.9857635,4.3990936,0.042541504,-0.8377228,0.98178756,-18.388565,-3.292134
1570715474,-7.760132,-32.512955,8.169205,6.3559875,-0.763855,1.5846863,-8.695841,-24.94017,8.555325
1570715474,-10.555359,-12.325043,0.048080444,4.5429077,-6.8838043,0.04537964,-10.368628,-5.9938126,-3.9501877
1570715474,-4.19516,-10.907669,-10.606125,3.8110657,-9.06546,-0.14424133,-7.355796,-3.3312125,-16.110151
1570715474,6.8277435,-0.124191284,-12.02948,1.600647,-5.226242,-0.12612915,1.871283,6.0245223,-18.275188
1570715475,4.632263,9.098267,-8.779343,-0.07926941,-0.15345764,0.11248779,1.8048062,15.565945,-14.303611
1570715475,-3.1213684,8.284241,-8.152069,-2.254547,2.5533752,0.304245,-6.6312804,15.888817,-14.040885
1570715475,-1.0276337,8.068771,-7.1884003,-3.2772064,3.6772308,1.0158386,-4.3007135,15.624142,-12.088861
1570715475,2.6055603,-1.4218445,-0.7372284,-3.9014435,5.2815247,1.5718994,-1.168189,8.343937,-6.30056
1570715475,8.889145,-9.768036,15.513428,-2.187439,4.1320953,0.36709595,7.382619,-0.12565613,8.279694
1570715475,7.8153534,-21.814468,21.00093,3.159134,0.3876953,-1.4332123,8.401046,-11.8606825,32.522858
1570715475,-2.9477844,-10.468338,-22.93866,-0.53201294,2.439392,-1.9967346,-4.557769,-3.3501043,-31.957232
1570715475,-6.3200226,-8.305176,-20.806625,-4.051651,0.75201416,-0.19111633,-7.2986426,1.1844311,-22.178535
1570715475,-4.2921295,-19.371185,-14.149536,-6.045822,3.8040009,0.15722656,-7.664971,-8.40367,-17.599146
1570715475,-5.587387,-38.427826,8.753387,-6.271652,1.751236,-1.7112427,-3.0912318,-28.956713,6.0072846
1570715475,-15.398834,-28.548157,10.678329,-6.234375,-2.9348602,2.678711,-16.578241,-19.051262,11.611319
1570715475,7.1748962,-25.087341,17.595184,-3.8513794,1.5381775,2.5636597,3.5559714,-16.288246,19.309649
1570715475,15.397781,-17.92508,15.5481415,-2.4942322,0.605011,0.8432617,15.481293,-10.609381,18.327463
1570715475,4.16658,-0.605423,10.094147,-1.6942139,1.3219299,-0.7226715,6.4404073,7.397113,14.69537
1570715475,-11.164688,-2.9816742,0.05645752,0.6834564,0.37490845,-0.85050964,-11.448635,5.830578,4.387165
1570715475,-15.6203,-2.9960327,21.29303,2.2408752,-4.7085266,-0.70562744,-17.546288,5.6840477,27.503988
1570715475,1.9495544,2.050949,-3.2319794,3.4882965,0.6412201,-0.37113953,0.2887275,10.8495865,2.3894117
1570715475,10.302933,-0.84724426,9.644043,3.2347565,-1.4083405,-1.0763397,9.142696,9.444638,9.16215
1570715475,6.660141,-8.378204,2.1920776,4.4928436,-4.185486,-1.9104462,7.132899,2.3599768,2.7968254
1570715475,-3.9294128,-31.610336,-0.8413696,5.263031,-1.6746521,-2.8755798,-2.661591,-17.401585,0.8339868
1570715475,-8.557404,-32.098755,-1.4866028,6.680893,0.9608002,-1.0028381,-12.578386,-28.176563,-3.7694728
1570715475,3.208908,-35.499725,16.814667,5.868103,1.210083,0.5172882,0.5607749,-24.959568,9.951529
1570715475,-14.481857,-23.62088,-4.285431,5.531479,-5.653427,1.4589844,-14.299789,-19.093437,-8.811683
1570715475,-8.638794,-10.390533,-12.4544525,3.6257172,-8.762924,0.77934265,-11.924389,-2.4322786,-17.10271
1570715475,10.3771515,2.849411,-18.261581,1.4451141,-6.0315857,-0.2358551,5.409008,7.6865,-24.49493
1570715475,5.1075134,16.137222,-14.26207,-1.552536,-0.2866211,-0.10055542,0.40050793,22.741123,-19.366928
1570715475,-4.440567,9.603455,-11.310013,-3.50943,2.0484467,0.6429901,-8.26836,17.289768,-16.758278
1570715475,-4.9122314,3.395279,-4.3464813,-3.718216,4.5965576,2.1279755,-8.87113,11.609881,-9.305395
1570715475,-0.788208,-3.996811,-0.7623596,-3.699051,6.068756,2.2771149,-4.1053076,4.8124986,-5.2656527
1570715475,6.584732,-13.918381,14.152313,-2.126709,6.51297,1.4131775,4.095111,-3.7016268,10.230597
1570715475,0.81469727,-14.25238,27.531113,0.060272217,-0.6445465,-0.24330139,1.2946416,-6.0742435,19.446522
1570715475,-6.5522614,-24.424133,-21.39679,1.125534,3.2937317,-0.82814026,-9.37737,-16.266495,-24.536633
1570715475,-2.4701385,-2.791336,-17.291931,0.20622253,-1.4871674,-0.23478699,-4.3334503,7.037468,-23.699007
1570715476,2.8306274,-5.8175964,-22.289825,-7.4519653,0.8052826,1.2544556,0.0625397,4.8014555,-27.367044
1570715476,7.5268555,-29.592026,-10.876663,-5.466324,7.1393433,-2.8361664,6.329611,-18.233427,-10.837894
1570715476,-12.9136505,-38.427826,10.783676,-8.337204,-5.46167,2.151413,-14.583064,-29.087427,13.3524
1570715476,-9.343887,-24.524704,21.378021,-3.7288666,8.221649,2.3090668,-9.080145,-15.780392,23.077194
1570715476,13.519531,-16.379623,13.161118,-2.9895782,0.94589233,0.49066162,13.023714,-8.332544,17.219627
1570715476,-2.4019012,-3.229477,5.5918427,-1.6931458,0.6295166,-1.1690216,-2.4285142,5.2318783,9.845287
1570715476,-18.751907,-5.8618927,21.792221,0.13484192,-3.199051,-0.15489197,-19.071886,3.041255,25.122656
1570715476,-9.869415,-2.159256,9.538696,2.986557,-2.8826752,0.25204468,-12.228375,5.6533775,18.38471
1570715476,4.395233,2.17424,-1.0544586,2.8363495,-1.878128,-0.68006897,3.3071113,10.562812,-1.4387958
1570715476,9.213562,-3.4581146,-0.21528625,4.535446,-3.9617767,-1.8678284,8.378569,7.744976,3.4474196
1570715476,10.231094,-8.897736,3.0719452,4.0624695,-3.7231598,-2.928833,10.4138365,1.7337637,3.954648
1570715476,-5.3168488,-38.427826,4.367218,5.7136383,-1.3657379,-2.718979,-5.742661,-27.363228,1.2464478
1570715476,-10.823517,-38.427826,3.077942,7.9293823,-0.365448,-2.3024597,-12.599199,-29.387371,3.0498245
1570715476,14.137238,-32.708084,3.8524628,6.6926117,-6.1035156E-5,-0.9783325,10.468065,-26.981274,-1.1327777
1570715476,-17.945068,-10.914856,-9.665207,5.2225494,-5.49469,-1.1370697,-21.274366,-4.877505,-15.149582
1570715476,-7.4189606,-5.724228,-14.959976,2.9492645,-7.821228,-0.49897766,-12.28967,0.27973747,-19.928402
1570715476,6.170532,8.542816,-16.250458,0.27545166,-3.2885284,-0.2539673,1.1094484,15.38009,-21.001945
1570715476,-4.0670776,17.377426,-13.038635,-2.1629333,1.229248,0.5343323,-8.170429,23.619377,-18.371284
1570715476,-7.9720154,4.991028,-6.87117,-3.2143555,4.0660553,2.1748352,-12.609177,11.885611,-11.423705
1570715476,-1.4418335,-2.2155304,0.714859,-3.145111,7.2064514,2.3665924,-5.053134,5.3099623,-3.6880913
1570715476,8.923859,-8.543396,10.685516,-3.0289917,7.1297455,1.7849579,5.994349,0.09971428,4.214715
1570715476,4.3605194,-17.319351,29.228607,-0.46170044,-0.634964,-0.023864746,3.7112308,-9.089366,24.642988
1570715476,-16.396011,0.15234375,-37.508575,-0.818573,-0.28874207,-1.1029816,-16.027107,7.747814,-40.552845
1570715476,16.483551,-32.31064,-31.921707,-1.2947388,-0.35905457,-0.8995056,25.56613,-30.260887,-8.877079
1570715476,-4.3076935,2.6889954,-35.12036,-4.689743,3.4940033,0.8187561,-5.7480593,11.213652,-38.95763
1570715476,-0.9246826,-23.289291,-10.779709,-6.6913757,0.18849182,-1.7772827,-0.0120203495,-7.142432,-12.2779
1570715476,-15.407211,-38.427826,-7.381134,-5.3811035,-2.7260742,1.9330292,-17.23728,-29.391605,-7.441154
1570715476,-3.065094,-27.414505,37.009766,-4.6173096,8.431503,3.8824615,-4.737932,-19.265743,40.08988
1570715476,11.981262,-18.613419,11.606079,-3.2772064,0.20339966,0.78359985,10.579421,-10.956995,15.31746
1570715476,-0.056777954,3.0768585,3.4406586,-2.2747803,2.2902527,-0.8441162,0.031638145,11.25481,7.943948
1570715476,-10.716965,-6.4891815,16.523773,-0.7663727,-2.850708,-0.23692322,-10.564048,2.762764,19.852005
1570715476,-9.498322,-0.8220978,8.096191,1.4291382,-1.4328461,-0.05795288,-10.581111,7.00185,13.61894
1570715476,0.9068756,3.1450958,3.9793549,1.9777527,-1.8525543,-0.4712677,-0.51071507,11.215184,6.1067276
1570715476,5.430725,-1.2829895,3.6226196,3.4744415,-3.0637665,-0.8952484,5.1758385,7.6342497,6.5680943
1570715477,4.2623596,-4.379883,3.0456085,3.7077332,-1.2687988,-1.0081635,4.0687504,4.6130657,4.5200505
1570715477,-1.234726,-23.58258,4.975342,5.7008514,-1.2858429,-2.0276184,-1.6848105,-12.813152,5.240867
1570715477,-9.151154,-38.347626,0.6729584,7.713135,-4.567917,-0.105895996,-12.089237,-29.532726,-0.46494365
1570715477,13.4453125,-38.42424,14.935226,7.1837006,1.1653442,-1.5610352,10.708096,-29.831436,11.924436
1570715477,-5.076233,-32.068832,1.8281708,7.528839,-3.374817,0.14550781,-5.4343386,-24.708364,-3.1001296
1570715477,-12.04335,-7.9795685,-9.722656,4.629196,-6.4726105,0.72502136,-16.756613,-1.5139074,-15.580479
1570715477,2.374527,1.8522186,-21.763107,2.7916107,-6.6771393,0.17533875,-4.1513195,4.648048,-26.828411
1570715477,8.823303,14.813232,-18.211304,-0.105911255,-1.8930359,0.048568726,4.005546,20.912249,-23.478725
1570715477,-5.2210846,14.160812,-13.913712,-3.3517609,1.1940918,-0.3700714,-8.3559,20.120192,-20.222866
1570715477,-6.3116302,5.9235687,-10.080597,-4.16243,3.8316956,1.5559235,-10.223942,12.881109,-14.699842
1570715477,-2.6772308,-1.7366791,-2.7818756,-4.2359314,5.571274,2.2238464,-5.229139,5.0238266,-6.190204
1570715477,6.6817017,-15.542847,20.80101,-2.8457642,7.135086,1.6027985,4.4577584,-7.0553303,13.637454
1570715477,1.5413513,-14.259552,9.253784,-1.1189728,2.5118256,0.5971832,1.9642435,-7.5261264,4.0625296
1570715477,-7.2381897,0.2492981,-16.165466,-0.78234863,-7.0787506,-0.713089,-6.009652,4.988386,-2.8994603
1570715477,12.907822,-38.427826,38.612686,0.40008545,7.468506,-0.7823334,4.605222,-27.32729,20.77135
1570715477,-0.15734863,-1.549942,-33.02542,-2.9959717,0.33016968,0.76123047,-1.6355486,5.412053,-29.11533
1570715477,7.9745636,-11.347015,-11.166367,-8.246658,4.0724487,-0.42440796,7.3572073,-1.8591814,-13.704065
1570715477,-3.6720276,-38.427826,-9.339584,-4.5214233,-1.6043549,-2.0073853,0.55281186,-29.604458,-9.344296
1570715477,-14.539307,-35.142975,38.71443,-8.742004,2.4074402,3.2614136,-21.537518,-27.78067,40.86393
1570715477,7.197647,-19.732697,16.15268,-2.924591,4.8809814,1.6635132,5.3168445,-13.151611,21.931211
1570715477,3.6745758,3.8513794,4.344467,-2.6646729,2.1815948,-1.8241577,6.7371216,9.53398,7.283563
1570715477,-20.135757,-13.3593445,17.016983,-0.5224304,-4.1045227,-0.1463623,-19.576767,0.38874865,20.769295
1570715477,-7.9768066,-1.8456268,11.13562,1.7529755,-2.309555,0.7090454,-10.456977,4.9719725,18.960571
1570715477,4.97583,1.0549469,5.1249847,3.1058655,-2.6845245,-0.23265076,3.5791686,8.816324,8.180471
1570715477,8.847244,-1.6014099,6.493271,3.7620697,-3.5569763,-1.3000488,8.1181965,7.945388,7.7790403
1570715477,7.4095306,-7.147583,2.023285,4.7346497,-2.6291351,-1.8412018,7.23131,1.7716446,3.1453087
1570715477,-2.7825775,-30.413239,6.8009186,5.744522,-3.5282135,-3.2398987,-1.4476151,-15.260945,9.859811
1570715477,-16.892807,-38.427826,6.225113,7.956009,1.5669403,-1.6441345,-19.780804,-29.905231,4.089856
1570715477,11.527557,-38.427826,13.285614,7.1655884,2.1549683,0.116744995,8.998188,-30.379425,9.02277
1570715477,-14.894852,-20.980087,-9.988419,7.2135315,-7.2534485,-0.12931824,-14.550781,-17.503597,-12.576124
1570715477,-10.529022,-6.4341125,-13.170319,4.230789,-8.917389,0.093322754,-15.395134,0.39636946,-16.741022
1570715477,6.5583954,3.9615173,-20.257156,1.6421967,-5.319992,0.27973938,0.46031475,7.782518,-25.588316
1570715477,4.00737,10.140945,-19.446716,-0.79193115,-1.0077972,0.5172882,-0.32026815,15.721762,-23.318474
1570715478,-7.7397766,10.403107,-15.208969,-2.8212738,3.3970642,1.5016022,-12.031311,17.113276,-19.924875
1570715478,-5.0798187,3.08284,-7.163254,-3.848175,7.7017975,2.3985443,-9.475776,10.410414,-12.672121
1570715478,4.8980103,-5.4105835,3.912323,-4.836746,7.087143,2.1130524,1.8466455,2.7441692,-2.6563916
1570715478,7.213211,-23.175568,24.623352,-2.1821136,3.1318207,0.19770813,7.3148813,-13.243011,22.251198
1570715478,-5.301285,-9.396927,-1.0568542,1.0104828,-2.8773346,-1.1636963,-6.5063224,-4.473718,1.8367286
1570715478,7.7255707,-38.427826,38.71443,1.1351318,10.690933,0.2658844,-28.157063,-14.159299,10.517287
1570715478,-5.1133423,4.1482697,-24.565521,-0.7993927,1.9994354,0.97961426,-6.0399094,10.984665,-27.328516
1570715478,3.880478,-2.5890198,-19.249191,-8.641876,2.435135,1.8467407,1.592387,8.062013,-25.53934
1570715478,0.8027344,-38.360794,-10.942505,-4.527817,3.283081,-4.06015,3.5012567,-29.70571,-12.068104
1570715478,-23.361938,-36.106644,38.71443,-10.459213,-3.6592407,3.174057,-29.06543,-29.38076,35.43767
1570715478,2.007019,-23.04628,17.97107,-3.2825317,5.6820526,2.424118,-0.7532932,-15.9319105,22.596342
1570715478,16.612839,0.59407043,4.6186066,-3.128067,1.7416382,-0.3935089,15.908906,5.391427,6.436344
1570715478,-8.374237,-13.722061,21.23317,-0.4510498,-3.2672272,-0.8760681,-4.507534,1.373745,24.904684
1570715478,-9.983139,0.47914124,11.561798,1.8754883,0.27690125,-0.024932861,-10.843554,7.941979,16.070072
1570715478,0.6387329,0.6108246,4.7933807,2.493332,-1.704483,-0.6204071,-0.9859879,8.690931,5.9182134
1570715478,1.9459686,-1.4230499,1.5635986,3.5351715,-2.8549652,-0.93359375,1.3726256,7.309759,3.053385
1570715478,2.8796997,-5.372284,3.5388184,4.296829,-2.9689484,-1.1658325,2.647704,3.9688177,3.7194567
1570715478,-0.80137634,-17.162521,9.6979065,5.94693,-3.9351501,-2.38768,-0.33811283,-5.9139786,7.6777368
1570715478,-13.490646,-38.427826,10.115692,7.9943695,-0.318573,-0.98472595,-14.2306385,-30.214174,7.5287924
1570715478,10.62854,-38.427826,8.493622,6.74588,1.9525604,-0.21881104,7.2850585,-30.616945,4.184104
1570715478,-4.733856,-25.93608,-2.9626312,7.5852966,-5.4989624,-0.19216919,-2.0940766,-20.418493,-6.4218597
1570715478,-14.739227,-10.999847,-9.8615265,4.386307,-7.932022,0.7910614,-18.93513,-4.408233,-15.584507
1570715478,13.105347,6.8608856,-22.038437,2.1492615,-5.033432,0.337265,8.623359,10.935655,-27.536114
1570715478,2.279953,16.155182,-22.148575,-1.1242981,-0.9044647,-0.23158264,0.28616142,21.659657,-26.352734
1570715478,-5.1731873,9.134186,-14.684647,-4.3264923,2.4628296,-0.09629822,-9.248745,14.28293,-19.138096
1570715478,-5.646042,1.2596588,-7.30571,-4.399994,5.846115,1.3929443,-8.991929,8.119001,-12.452032
1570715478,-2.333664,-5.657196,1.1996918,-4.5374146,6.8698273,1.8840332,-4.0972953,0.7545204,-1.99562
1570715478,7.054001,-24.153595,17.763977,-2.412201,6.7494507,1.5229034,4.7798433,-13.457527,14.3197
1570715478,-8.369446,-13.377289,24.707153,-0.4233551,-3.5750885,0.011291504,-8.379831,-6.0094137,20.708565
1570715478,11.155258,-34.927505,-6.828079,3.338089,5.9036407,-1.0550385,7.803346,-25.377724,-14.34691
1570715478,1.3988953,10.319321,-33.19542,-1.4172516,-0.77557373,0.50131226,1.9605112,12.304316,-29.97913
1570715478,3.4411469,-5.736206,-13.703018,-9.129761,2.3967896,1.134079,2.2504363,5.214491,-20.87426
1570715478,-2.0379791,-38.427826,-13.950821,-5.4801636,2.817566,-3.8556213,1.3666588,-28.486176,-14.635272
1570715478,-16.271515,-38.427826,38.71443,-9.79129,0.046813965,3.0664673,-21.46998,-30.04352,35.172203
1570715479,3.1993256,-18.958176,18.980225,-3.336853,5.2133484,1.9170532,2.6320941,-11.289178,22.73599
1570715479,9.613403,-3.0211792,9.278915,-2.9597473,2.9528503,-1.2531738,10.037177,3.8286524,12.131691
1570715479,-11.018631,-1.1896057,8.536713,-1.5844879,-1.2464142,-1.5322723,-7.023148,9.59778,9.343604
1570715479,-11.018631,-1.1896057,8.536713,-1.5844879,-1.2464142,-1.5322723,-7.023148,9.59778,9.343604
1570715479,-11.018631,-1.1896057,8.536713,-1.5844879,-1.2464142,-1.5322723,-7.023148,9.59778,9.343604
1570715479,-11.018631,-1.1896057,8.536713,-1.5844879,-1.2464142,-1.5322723,-7.023148,9.59778,9.343604
1570715479,-11.018631,-1.1896057,8.536713,-1.5844879,-1.2464142,-1.5322723,-7.023148,9.59778,9.343604
1570715479,-11.018631,-1.1896057,8.536713,-1.5844879,-1.2464142,-1.5322723,-7.023148,9.59778,9.343604
1570715479,-11.018631,-1.1896057,8.536713,-1.5844879,-1.2464142,-1.5322723,-7.023148,9.59778,9.343604
1570715479,-11.018631,-1.1896057,8.536713,-1.5844879,-1.2464142,-1.5322723,-7.023148,9.59778,9.343604
1570715479,-11.018631,-1.1896057,8.536713,-1.5844879,-1.2464142,-1.5322723,-7.023148,9.59778,9.343604
1570715479,-11.018631,-1.1896057,8.536713,-1.5844879,-1.2464142,-1.5322723,-7.023148,9.59778,9.343604
1570715479,-11.018631,-1.1896057,8.536713,-1.5844879,-1.2464142,-1.5322723,-7.023148,9.59778,9.343604
1570715479,10.889511,11.1094055,-21.778671,0.40008545,-3.9127808,0.16682434,7.176504,15.290067,-26.815542
1570715482,10.889511,11.1094055,-21.778671,0.40008545,-3.9127808,0.16682434,7.176504,15.290067,-26.815542
1570715482,10.889511,11.1094055,-21.778671,0.40008545,-3.9127808,0.16682434,7.176504,15.290067,-26.815542
1570715482,10.889511,11.1094055,-21.778671,0.40008545,-3.9127808,0.16682434,7.176504,15.290067,-26.815542
1570715482,10.889511,11.1094055,-21.778671,0.40008545,-3.9127808,0.16682434,7.176504,15.290067,-26.815542
1570715482,10.889511,11.1094055,-21.778671,0.40008545,-3.9127808,0.16682434,7.176504,15.290067,-26.815542
1570715482,10.889511,11.1094055,-21.778671,0.40008545,-3.9127808,0.16682434,7.176504,15.290067,-26.815542
1570715482,10.889511,11.1094055,-21.778671,0.40008545,-3.9127808,0.16682434,7.176504,15.290067,-26.815542
1570715482,10.889511,11.1094055,-21.778671,0.40008545,-3.9127808,0.16682434,7.176504,15.290067,-26.815542
1570715482,10.889511,11.1094055,-21.778671,0.40008545,-3.9127808,0.16682434,7.176504,15.290067,-26.815542
1570715482,10.889511,11.1094055,-21.778671,0.40008545,-3.9127808,0.16682434,7.176504,15.290067,-26.815542
1570715482,10.889511,11.1094055,-21.778671,0.40008545,-3.9127808,0.16682434,7.176504,15.290067,-26.815542
1570715482,10.889511,11.1094055,-21.778671,0.40008545,-3.9127808,0.16682434,7.176504,15.290067,-26.815542
1570715482,10.889511,11.1094055,-21.778671,0.40008545,-3.9127808,0.16682434,7.176504,15.290067,-26.815542
1570715482,10.889511,11.1094055,-21.778671,0.40008545,-3.9127808,0.16682434,7.176504,15.290067,-26.815542
1570715482,10.889511,11.1094055,-21.778671,0.40008545,-3.9127808,0.16682434,7.176504,15.290067,-26.815542
1570715482,10.889511,11.1094055,-21.778671,0.40008545,-3.9127808,0.16682434,7.176504,15.290067,-26.815542
1570715482,10.889511,11.1094055,-21.778671,0.40008545,-3.9127808,0.16682434,7.176504,15.290067,-26.815542
1570715482,10.889511,11.1094055,-21.778671,0.40008545,-3.9127808,0.16682434,7.176504,15.290067,-26.815542
1570715482,10.889511,11.1094055,-21.778671,0.40008545,-3.9127808,0.16682434,7.176504,15.290067,-26.815542
1570715482,10.889511,11.1094055,-21.778671,0.40008545,-3.9127808,0.16682434,7.176504,15.290067,-26.815542
1570715482,10.889511,11.1094055,-21.778671,0.40008545,-3.9127808,0.16682434,7.176504,15.290067,-26.815542
1570715482,10.889511,11.1094055,-21.778671,0.40008545,-3.9127808,0.16682434,7.176504,15.290067,-26.815542
1570715482,10.889511,11.1094055,-21.778671,0.40008545,-3.9127808,0.16682434,7.176504,15.290067,-26.815542
1570715482,10.889511,11.1094055,-21.778671,0.40008545,-3.9127808,0.16682434,7.176504,15.290067,-26.815542
1570715482,10.889511,11.1094055,-21.778671,0.40008545,-3.9127808,0.16682434,7.176504,15.290067,-26.815542
1570715482,10.889511,11.1094055,-21.778671,0.40008545,-3.9127808,0.16682434,7.176504,15.290067,-26.815542
1570715482,10.889511,11.1094055,-21.778671,0.40008545,-3.9127808,0.16682434,7.176504,15.290067,-26.815542
1570715482,10.889511,11.1094055,-21.778671,0.40008545,-3.9127808,0.16682434,7.176504,15.290067,-26.815542
1570715482,10.889511,11.1094055,-21.778671,0.40008545,-3.9127808,0.16682434,7.176504,15.290067,-26.815542
1570715482,10.889511,11.1094055,-21.778671,0.40008545,-3.9127808,0.16682434,7.176504,15.290067,-26.815542
1570715482,10.889511,11.1094055,-21.778671,0.40008545,-3.9127808,0.16682434,7.176504,15.290067,-26.815542
1570715482,10.889511,11.1094055,-21.778671,0.40008545,-3.9127808,0.16682434,7.176504,15.290067,-26.815542
1570715482,10.889511,11.1094055,-21.778671,0.40008545,-3.9127808,0.16682434,7.176504,15.290067,-26.815542
1570715482,10.889511,11.1094055,-21.778671,0.40008545,-3.9127808,0.16682434,7.176504,15.290067,-26.815542
1570715482,10.889511,11.1094055,-21.778671,0.40008545,-3.9127808,0.16682434,7.176504,15.290067,-26.815542
1570715482,10.889511,11.1094055,-21.778671,0.40008545,-3.9127808,0.16682434,7.176504,15.290067,-26.815542
1570715482,10.889511,11.1094055,-21.778671,0.40008545,-3.9127808,0.16682434,7.176504,15.290067,-26.815542
1570715482,10.889511,11.1094055,-21.778671,0.40008545,-3.9127808,0.16682434,7.176504,15.290067,-26.815542
1570715482,10.889511,11.1094055,-21.778671,0.40008545,-3.9127808,0.16682434,7.176504,15.290067,-26.815542
1570715482,10.889511,11.1094055,-21.778671,0.40008545,-3.9127808,0.16682434,7.176504,15.290067,-26.815542
1570715482,10.889511,11.1094055,-21.778671,0.40008545,-3.9127808,0.16682434,7.176504,15.290067,-26.815542
1570715482,10.889511,11.1094055,-21.778671,0.40008545,-3.9127808,0.16682434,7.176504,15.290067,-26.815542
1570715482,10.889511,11.1094055,-21.778671,0.40008545,-3.9127808,0.16682434,7.176504,15.290067,-26.815542
1570715482,10.889511,11.1094055,-21.778671,0.40008545,-3.9127808,0.16682434,7.176504,15.290067,-26.815542
1570715482,10.889511,11.1094055,-21.778671,0.40008545,-3.9127808,0.16682434,7.176504,15.290067,-26.815542
1570715482,10.889511,11.1094055,-21.778671,0.40008545,-3.9127808,0.16682434,7.176504,15.290067,-26.815542
1570715482,10.889511,11.1094055,-21.778671,0.40008545,-3.9127808,0.16682434,7.176504,15.290067,-26.815542
1570715482,10.889511,11.1094055,-21.778671,0.40008545,-3.9127808,0.16682434,7.176504,15.290067,-26.815542
1570715482,10.889511,11.1094055,-21.778671,0.40008545,-3.9127808,0.16682434,7.176504,15.290067,-26.815542
1570715482,10.889511,11.1094055,-21.778671,0.40008545,-3.9127808,0.16682434,7.176504,15.290067,-26.815542
1570715482,10.889511,11.1094055,-21.778671,0.40008545,-3.9127808,0.16682434,7.176504,15.290067,-26.815542
1570715482,10.889511,11.1094055,-21.778671,0.40008545,-3.9127808,0.16682434,7.176504,15.290067,-26.815542
1570715482,10.889511,11.1094055,-21.778671,0.40008545,-3.9127808,0.16682434,7.176504,15.290067,-26.815542
1570715482,10.889511,11.1094055,-21.778671,0.40008545,-3.9127808,0.16682434,7.176504,15.290067,-26.815542
1570715482,10.889511,11.1094055,-21.778671,0.40008545,-3.9127808,0.16682434,7.176504,15.290067,-26.815542
1570715482,10.889511,11.1094055,-21.778671,0.40008545,-3.9127808,0.16682434,7.176504,15.290067,-26.815542
1570715482,10.889511,11.1094055,-21.778671,0.40008545,-3.9127808,0.16682434,7.176504,15.290067,-26.815542
1570715482,10.889511,11.1094055,-21.778671,0.40008545,-3.9127808,0.16682434,7.176504,15.290067,-26.815542
1570715482,10.889511,11.1094055,-21.778671,0.40008545,-3.9127808,0.16682434,7.176504,15.290067,-26.815542
1570715482,10.889511,11.1094055,-21.778671,0.40008545,-3.9127808,0.16682434,7.176504,15.290067,-26.815542
1570715482,10.889511,11.1094055,-21.778671,0.40008545,-3.9127808,0.16682434,7.176504,15.290067,-26.815542
1570715482,10.889511,11.1094055,-21.778671,0.40008545,-3.9127808,0.16682434,7.176504,15.290067,-26.815542
1570715482,10.889511,11.1094055,-21.778671,0.40008545,-3.9127808,0.16682434,7.176504,15.290067,-26.815542
1570715482,10.889511,11.1094055,-21.778671,0.40008545,-3.9127808,0.16682434,7.176504,15.290067,-26.815542
1570715482,10.889511,11.1094055,-21.778671,0.40008545,-3.9127808,0.16682434,7.176504,15.290067,-26.815542
1570715482,10.889511,11.1094055,-21.778671,0.40008545,-3.9127808,0.16682434,7.176504,15.290067,-26.815542
1570715482,10.889511,11.1094055,-21.778671,0.40008545,-3.9127808,0.16682434,7.176504,15.290067,-26.815542
1570715482,10.889511,11.1094055,-21.778671,0.40008545,-3.9127808,0.16682434,7.176504,15.290067,-26.815542
1570715482,10.889511,11.1094055,-21.778671,0.40008545,-3.9127808,0.16682434,7.176504,15.290067,-26.815542
1570715482,10.889511,11.1094055,-21.778671,0.40008545,-3.9127808,0.16682434,7.176504,15.290067,-26.815542
1570715482,10.889511,11.1094055,-21.778671,0.40008545,-3.9127808,0.16682434,7.176504,15.290067,-26.815542
1570715482,10.889511,11.1094055,-21.778671,0.40008545,-3.9127808,0.16682434,7.176504,15.290067,-26.815542
1570715482,10.889511,11.1094055,-21.778671,0.40008545,-3.9127808,0.16682434,7.176504,15.290067,-26.815542
1570715482,10.889511,11.1094055,-21.778671,0.40008545,-3.9127808,0.16682434,7.176504,15.290067,-26.815542
1570715482,10.889511,11.1094055,-21.778671,0.40008545,-3.9127808,0.16682434,7.176504,15.290067,-26.815542
1570715482,10.889511,11.1094055,-21.778671,0.40008545,-3.9127808,0.16682434,7.176504,15.290067,-26.815542
1570715482,10.889511,11.1094055,-21.778671,0.40008545,-3.9127808,0.16682434,7.176504,15.290067,-26.815542
1570715482,10.889511,11.1094055,-21.778671,0.40008545,-3.9127808,0.16682434,7.176504,15.290067,-26.815542
1570715482,10.889511,11.1094055,-21.778671,0.40008545,-3.9127808,0.16682434,7.176504,15.290067,-26.815542
1570715482,10.889511,11.1094055,-21.778671,0.40008545,-3.9127808,0.16682434,7.176504,15.290067,-26.815542
1570715482,10.889511,11.1094055,-21.778671,0.40008545,-3.9127808,0.16682434,7.176504,15.290067,-26.815542
1570715482,10.889511,11.1094055,-21.778671,0.40008545,-3.9127808,0.16682434,7.176504,15.290067,-26.815542
1570715482,10.889511,11.1094055,-21.778671,0.40008545,-3.9127808,0.16682434,7.176504,15.290067,-26.815542
1570715482,10.889511,11.1094055,-21.778671,0.40008545,-3.9127808,0.16682434,7.176504,15.290067,-26.815542
1570715482,10.889511,11.1094055,-21.778671,0.40008545,-3.9127808,0.16682434,7.176504,15.290067,-26.815542
1570715482,10.889511,11.1094055,-21.778671,0.40008545,-3.9127808,0.16682434,7.176504,15.290067,-26.815542
1570715482,10.889511,11.1094055,-21.778671,0.40008545,-3.9127808,0.16682434,7.176504,15.290067,-26.815542
1570715482,10.889511,11.1094055,-21.778671,0.40008545,-3.9127808,0.16682434,7.176504,15.290067,-26.815542
1570715482,10.889511,11.1094055,-21.778671,0.40008545,-3.9127808,0.16682434,7.176504,15.290067,-26.815542
1570715482,10.889511,11.1094055,-21.778671,0.40008545,-3.9127808,0.16682434,7.176504,15.290067,-26.815542
1570715482,10.889511,11.1094055,-21.778671,0.40008545,-3.9127808,0.16682434,7.176504,15.290067,-26.815542
1570715482,10.889511,11.1094055,-21.778671,0.40008545,-3.9127808,0.16682434,7.176504,15.290067,-26.815542
1570715482,10.889511,11.1094055,-21.778671,0.40008545,-3.9127808,0.16682434,7.176504,15.290067,-26.815542
1570715482,10.889511,11.1094055,-21.778671,0.40008545,-3.9127808,0.16682434,7.176504,15.290067,-26.815542
1570715482,10.889511,11.1094055,-21.778671,0.40008545,-3.9127808,0.16682434,7.176504,15.290067,-26.815542
1570715482,10.889511,11.1094055,-21.778671,0.40008545,-3.9127808,0.16682434,7.176504,15.290067,-26.815542
1570715482,10.889511,11.1094055,-21.778671,0.40008545,-3.9127808,0.16682434,7.176504,15.290067,-26.815542
1570715482,10.889511,11.1094055,-21.778671,0.40008545,-3.9127808,0.16682434,7.176504,15.290067,-26.815542
1570715482,10.889511,11.1094055,-21.778671,0.40008545,-3.9127808,0.16682434,7.176504,15.290067,-26.815542
1570715482,10.889511,11.1094055,-21.778671,0.40008545,-3.9127808,0.16682434,7.176504,15.290067,-26.815542
1570715482,10.889511,11.1094055,-21.778671,0.40008545,-3.9127808,0.16682434,7.176504,15.290067,-26.815542
1570715482,10.889511,11.1094055,-21.778671,0.40008545,-3.9127808,0.16682434,7.176504,15.290067,-26.815542
1570715482,10.889511,11.1094055,-21.778671,0.40008545,-3.9127808,0.16682434,7.176504,15.290067,-26.815542
1570715482,10.889511,11.1094055,-21.778671,0.40008545,-3.9127808,0.16682434,7.176504,15.290067,-26.815542
1570715482,10.889511,11.1094055,-21.778671,0.40008545,-3.9127808,0.16682434,7.176504,15.290067,-26.815542
1570715482,10.889511,11.1094055,-21.778671,0.40008545,-3.9127808,0.16682434,7.176504,15.290067,-26.815542
1570715482,10.889511,11.1094055,-21.778671,0.40008545,-3.9127808,0.16682434,7.176504,15.290067,-26.815542
1570715482,10.889511,11.1094055,-21.778671,0.40008545,-3.9127808,0.16682434,7.176504,15.290067,-26.815542
1570715482,10.889511,11.1094055,-21.778671,0.40008545,-3.9127808,0.16682434,7.176504,15.290067,-26.815542
1570715482,10.889511,11.1094055,-21.778671,0.40008545,-3.9127808,0.16682434,7.176504,15.290067,-26.815542
1570715482,10.889511,11.1094055,-21.778671,0.40008545,-3.9127808,0.16682434,7.176504,15.290067,-26.815542
1570715482,10.889511,11.1094055,-21.778671,0.40008545,-3.9127808,0.16682434,7.176504,15.290067,-26.815542
1570715482,10.889511,11.1094055,-21.778671,0.40008545,-3.9127808,0.16682434,7.176504,15.290067,-26.815542
1570715482,10.889511,11.1094055,-21.778671,0.40008545,-3.9127808,0.16682434,7.176504,15.290067,-26.815542
1570715482,10.889511,11.1094055,-21.778671,0.40008545,-3.9127808,0.16682434,7.176504,15.290067,-26.815542
1570715482,10.889511,11.1094055,-21.778671,0.40008545,-3.9127808,0.16682434,7.176504,15.290067,-26.815542
1570715482,10.889511,11.1094055,-21.778671,0.40008545,-3.9127808,0.16682434,7.176504,15.290067,-26.815542
1570715482,10.889511,11.1094055,-21.778671,0.40008545,-3.9127808,0.16682434,7.176504,15.290067,-26.815542
1570715482,10.889511,11.1094055,-21.778671,0.40008545,-3.9127808,0.16682434,7.176504,15.290067,-26.815542
1570715483,10.889511,11.1094055,-21.778671,0.40008545,-3.9127808,0.16682434,7.176504,15.290067,-26.815542
1570715483,10.889511,11.1094055,-21.778671,0.40008545,-3.9127808,0.16682434,7.176504,15.290067,-26.815542
1570715483,10.889511,11.1094055,-21.778671,0.40008545,-3.9127808,0.16682434,7.176504,15.290067,-26.815542
1570715483,10.889511,11.1094055,-21.778671,0.40008545,-3.9127808,0.16682434,7.176504,15.290067,-26.815542
1570715483,10.889511,11.1094055,-21.778671,0.40008545,-3.9127808,0.16682434,7.176504,15.290067,-26.815542
1570715483,10.889511,11.1094055,-21.778671,0.40008545,-3.9127808,0.16682434,7.176504,15.290067,-26.815542
1570715483,-30.858185,-2.2514343,30.204239,0.40008545,-3.9127808,0.16682434,1.1170235,-28.250832,-7.5175576
1570715483,-30.858185,-2.2514343,30.204239,0.40008545,-3.9127808,0.16682434,1.1170235,-28.250832,-7.5175576
1570715483,5.1553955,-7.2792664,2.4243164,0.40008545,-3.9127808,0.16682434,0.15086406,-3.241156,8.2311535
1570715483,5.1553955,-7.2792664,2.4243164,0.40008545,-3.9127808,0.16682434,0.15086406,-3.241156,8.2311535
1570715484,5.1553955,-7.2792664,2.4243164,0.40008545,-3.9127808,0.16682434,0.15086406,-3.241156,8.2311535
1570715484,5.1553955,-7.2792664,2.4243164,0.40008545,-3.9127808,0.16682434,0.15086406,-3.241156,8.2311535
1570715484,5.1553955,-7.2792664,2.4243164,0.40008545,-3.9127808,0.16682434,0.15086406,-3.241156,8.2311535
1570715484,5.1553955,-7.2792664,2.4243164,0.40008545,-3.9127808,0.16682434,0.15086406,-3.241156,8.2311535
1570715484,5.1553955,-7.2792664,2.4243164,0.40008545,-3.9127808,0.16682434,0.15086406,-3.241156,8.2311535
1570715484,5.1553955,-7.2792664,2.4243164,0.40008545,-3.9127808,0.16682434,0.15086406,-3.241156,8.2311535
1570715484,5.1553955,-7.2792664,2.4243164,0.40008545,-3.9127808,0.16682434,0.15086406,-3.241156,8.2311535
1570715484,5.1553955,-7.2792664,2.4243164,0.40008545,-3.9127808,0.16682434,0.15086406,-3.241156,8.2311535
1570715484,5.1553955,-7.2792664,2.4243164,0.40008545,-3.9127808,0.16682434,0.15086406,-3.241156,8.2311535
1570715484,5.1553955,-7.2792664,2.4243164,0.40008545,-3.9127808,0.16682434,0.15086406,-3.241156,8.2311535
1570715484,5.1553955,-7.2792664,2.4243164,0.40008545,-3.9127808,0.16682434,0.15086406,-3.241156,8.2311535
1570715484,5.1553955,-7.2792664,2.4243164,0.40008545,-3.9127808,0.16682434,0.15086406,-3.241156,8.2311535
1570715484,5.1553955,-7.2792664,2.4243164,0.40008545,-3.9127808,0.16682434,0.15086406,-3.241156,8.2311535
1570715484,5.1553955,-7.2792664,2.4243164,0.40008545,-3.9127808,0.16682434,0.15086406,-3.241156,8.2311535
1570715484,5.1553955,-7.2792664,2.4243164,0.40008545,-3.9127808,0.16682434,0.15086406,-3.241156,8.2311535
1570715484,5.1553955,-7.2792664,2.4243164,0.40008545,-3.9127808,0.16682434,0.15086406,-3.241156,8.2311535
1570715484,5.1553955,-7.2792664,2.4243164,0.40008545,-3.9127808,0.16682434,0.15086406,-3.241156,8.2311535
1570715484,5.1553955,-7.2792664,2.4243164,0.40008545,-3.9127808,0.16682434,0.15086406,-3.241156,8.2311535
1570715484,5.1553955,-7.2792664,2.4243164,0.40008545,-3.9127808,0.16682434,0.15086406,-3.241156,8.2311535
1570715484,5.1553955,-7.2792664,2.4243164,0.40008545,-3.9127808,0.16682434,0.15086406,-3.241156,8.2311535
1570715484,5.1553955,-7.2792664,2.4243164,0.40008545,-3.9127808,0.16682434,0.15086406,-3.241156,8.2311535
1570715484,7.6573334,-17.71199,26.614136,0.40008545,-3.9127808,0.16682434,0.15086406,-3.241156,8.2311535
1570715484,-5.2797394,-12.79071,17.622711,-3.4369965,5.715088,1.5101166,0.15086406,-3.241156,8.2311535
1570715484,-5.2797394,-12.79071,17.622711,-6.7861786,3.6591187,-1.3767548,0.15086406,-3.241156,8.2311535
1570715484,-5.2797394,-12.79071,17.622711,2.1950684,-2.578003,0.23286438,0.15086406,-3.241156,8.2311535
1570715484,-5.2797394,-12.79071,17.622711,7.2486725,3.2244873,-0.043045044,0.15086406,-3.241156,8.2311535
1570715484,-5.2797394,-12.79071,17.622711,-3.940857,5.143036,1.7647095,0.15086406,-3.241156,8.2311535
1570715484,-5.2797394,-12.79071,17.622711,-8.574753,-0.32070923,3.3295898,0.15086406,-3.241156,8.2311535
1570715484,-5.2797394,-12.79071,17.622711,-0.818573,-4.0693665,-1.4065704,0.15086406,-3.241156,8.2311535
1570715484,-5.2797394,-12.79071,17.622711,6.0854034,-3.8936005,-2.9522705,0.15086406,-3.241156,8.2311535
1570715484,-5.2797394,-12.79071,17.622711,0.2349701,-2.4448395,-0.13252258,0.15086406,-3.241156,8.2311535
1570715484,-5.2797394,-12.79071,17.622711,-0.9570465,-0.15985107,-0.60868835,0.15086406,-3.241156,8.2311535
1570715484,-5.2797394,-12.79071,17.622711,-7.44664,11.264038,3.520279,0.15086406,-3.241156,8.2311535
1570715484,-5.2797394,-12.79071,17.622711,3.5202484,-2.498108,-1.9264221,0.15086406,-3.241156,8.2311535
1570715484,-5.2797394,-12.79071,17.622711,8.635651,-9.048416,1.4962769,0.15086406,-3.241156,8.2311535
1570715484,-5.2797394,-12.79071,17.622711,-4.4095764,6.1422577,1.6251678,0.15086406,-3.241156,8.2311535
1570715484,-5.2797394,-12.79071,17.622711,-1.6782379,-0.7414856,0.69200134,0.15086406,-3.241156,8.2311535
1570715484,-5.2797394,-12.79071,17.622711,-0.8238983,-1.9612122,-1.5418701,0.15086406,-3.241156,8.2311535
1570715484,-5.2797394,-12.79071,17.622711,9.474014,1.1738586,0.4373932,0.15086406,-3.241156,8.2311535
1570715484,4.441925,5.617111,-17.718094,-10.340973,2.3541718,3.0206604,-0.76976234,16.346642,-34.146564
1570715484,4.441925,5.617111,-17.718094,-10.340973,2.3541718,3.0206604,-0.76976234,16.346642,-34.146564
1570715484,4.441925,5.617111,-17.718094,-10.340973,2.3541718,3.0206604,-0.76976234,16.346642,-34.146564
1570715484,4.441925,5.617111,-17.718094,-10.340973,2.3541718,3.0206604,-0.76976234,16.346642,-34.146564
1570715484,4.441925,5.617111,-17.718094,-10.340973,2.3541718,3.0206604,-0.76976234,16.346642,-34.146564
1570715484,4.441925,5.617111,-17.718094,-10.340973,2.3541718,3.0206604,-0.76976234,16.346642,-34.146564
1570715484,4.441925,5.617111,-17.718094,-10.340973,2.3541718,3.0206604,-0.76976234,16.346642,-34.146564
1570715484,9.113007,-38.421844,-39.736374,1.4216766,-3.2949219,-0.699234,-13.678856,11.311418,-41.643806
1570715495,9.113007,-38.421844,-39.736374,1.4216766,-3.2949219,-0.699234,-13.678856,11.311418,-41.643806
1570715495,9.113007,-38.421844,-39.736374,1.4216766,-3.2949219,-0.699234,-13.678856,11.311418,-41.643806
1570715495,9.113007,-38.421844,-39.736374,1.4216766,-3.2949219,-0.699234,-13.678856,11.311418,-41.643806
1570715495,9.113007,-38.421844,-39.736374,1.4216766,-3.2949219,-0.699234,-13.678856,11.311418,-41.643806
1570715495,9.113007,-38.421844,-39.736374,1.4216766,-3.2949219,-0.699234,-13.678856,11.311418,-41.643806
1570715495,9.113007,-38.421844,-39.736374,1.4216766,-3.2949219,-0.699234,-13.678856,11.311418,-41.643806
1570715495,9.113007,-38.421844,-39.736374,1.4216766,-3.2949219,-0.699234,-13.678856,11.311418,-41.643806
1570715495,9.113007,-38.421844,-39.736374,1.4216766,-3.2949219,-0.699234,-13.678856,11.311418,-41.643806
1570715495,9.113007,-38.421844,-39.736374,1.4216766,-3.2949219,-0.699234,-13.678856,11.311418,-41.643806
1570715495,9.113007,-38.421844,-39.736374,1.4216766,-3.2949219,-0.699234,-13.678856,11.311418,-41.643806
1570715495,9.113007,-38.421844,-39.736374,1.4216766,-3.2949219,-0.699234,-13.678856,11.311418,-41.643806
1570715495,9.113007,-38.421844,-39.736374,1.4216766,-3.2949219,-0.699234,-13.678856,11.311418,-41.643806
1570715495,9.113007,-38.421844,-39.736374,1.4216766,-3.2949219,-0.699234,-13.678856,11.311418,-41.643806
1570715495,9.113007,-38.421844,-39.736374,1.4216766,-3.2949219,-0.699234,-13.678856,11.311418,-41.643806
1570715495,9.113007,-38.421844,-39.736374,1.4216766,-3.2949219,-0.699234,-13.678856,11.311418,-41.643806
1570715495,9.113007,-38.421844,-39.736374,1.4216766,-3.2949219,-0.699234,-13.678856,11.311418,-41.643806
1570715495,9.113007,-38.421844,-39.736374,1.4216766,-3.2949219,-0.699234,-13.678856,11.311418,-41.643806
1570715495,9.113007,-38.421844,-39.736374,1.4216766,-3.2949219,-0.699234,-13.678856,11.311418,-41.643806
1570715495,9.113007,-38.421844,-39.736374,1.4216766,-3.2949219,-0.699234,-13.678856,11.311418,-41.643806
1570715495,9.113007,-38.421844,-39.736374,1.4216766,-3.2949219,-0.699234,-13.678856,11.311418,-41.643806
1570715495,9.113007,-38.421844,-39.736374,1.4216766,-3.2949219,-0.699234,-13.678856,11.311418,-41.643806
1570715495,9.113007,-38.421844,-39.736374,1.4216766,-3.2949219,-0.699234,-13.678856,11.311418,-41.643806
1570715495,9.113007,-38.421844,-39.736374,1.4216766,-3.2949219,-0.699234,-13.678856,11.311418,-41.643806
1570715495,9.113007,-38.421844,-39.736374,1.4216766,-3.2949219,-0.699234,-13.678856,11.311418,-41.643806
1570715495,9.113007,-38.421844,-39.736374,1.4216766,-3.2949219,-0.699234,-13.678856,11.311418,-41.643806
1570715495,9.113007,-38.421844,-39.736374,1.4216766,-3.2949219,-0.699234,-13.678856,11.311418,-41.643806
1570715495,9.113007,-38.421844,-39.736374,1.4216766,-3.2949219,-0.699234,-13.678856,11.311418,-41.643806
1570715495,9.113007,-38.421844,-39.736374,1.4216766,-3.2949219,-0.699234,-13.678856,11.311418,-41.643806
1570715495,9.113007,-38.421844,-39.736374,1.4216766,-3.2949219,-0.699234,-13.678856,11.311418,-41.643806
1570715495,9.113007,-38.421844,-39.736374,1.4216766,-3.2949219,-0.699234,-13.678856,11.311418,-41.643806
1570715495,9.113007,-38.421844,-39.736374,1.4216766,-3.2949219,-0.699234,-13.678856,11.311418,-41.643806
1570715495,9.113007,-38.421844,-39.736374,1.4216766,-3.2949219,-0.699234,-13.678856,11.311418,-41.643806
1570715495,9.113007,-38.421844,-39.736374,1.4216766,-3.2949219,-0.699234,-13.678856,11.311418,-41.643806
1570715495,9.113007,-38.421844,-39.736374,1.4216766,-3.2949219,-0.699234,-13.678856,11.311418,-41.643806
1570715495,9.113007,-38.421844,-39.736374,1.4216766,-3.2949219,-0.699234,-13.678856,11.311418,-41.643806
1570715495,9.113007,-38.421844,-39.736374,1.4216766,-3.2949219,-0.699234,-13.678856,11.311418,-41.643806
1570715495,9.113007,-38.421844,-39.736374,1.4216766,-3.2949219,-0.699234,-13.678856,11.311418,-41.643806
1570715495,9.113007,-38.421844,-39.736374,1.4216766,-3.2949219,-0.699234,-13.678856,11.311418,-41.643806
1570715495,9.113007,-38.421844,-39.736374,1.4216766,-3.2949219,-0.699234,-13.678856,11.311418,-41.643806
1570715495,9.113007,-38.421844,-39.736374,1.4216766,-3.2949219,-0.699234,-13.678856,11.311418,-41.643806
1570715495,9.113007,-38.421844,-39.736374,1.4216766,-3.2949219,-0.699234,-13.678856,11.311418,-41.643806
1570715495,9.113007,-38.421844,-39.736374,1.4216766,-3.2949219,-0.699234,-13.678856,11.311418,-41.643806
1570715495,9.113007,-38.421844,-39.736374,1.4216766,-3.2949219,-0.699234,-13.678856,11.311418,-41.643806
1570715495,9.113007,-38.421844,-39.736374,1.4216766,-3.2949219,-0.699234,-13.678856,11.311418,-41.643806
1570715495,9.113007,-38.421844,-39.736374,1.4216766,-3.2949219,-0.699234,-13.678856,11.311418,-41.643806
1570715495,9.113007,-38.421844,-39.736374,1.4216766,-3.2949219,-0.699234,-13.678856,11.311418,-41.643806
1570715495,9.113007,-38.421844,-39.736374,1.4216766,-3.2949219,-0.699234,-13.678856,11.311418,-41.643806
1570715495,9.113007,-38.421844,-39.736374,1.4216766,-3.2949219,-0.699234,-13.678856,11.311418,-41.643806
1570715495,9.113007,-38.421844,-39.736374,1.4216766,-3.2949219,-0.699234,-13.678856,11.311418,-41.643806
1570715495,9.113007,-38.421844,-39.736374,1.4216766,-3.2949219,-0.699234,-13.678856,11.311418,-41.643806
1570715495,9.113007,-38.421844,-39.736374,1.4216766,-3.2949219,-0.699234,-13.678856,11.311418,-41.643806
1570715495,9.113007,-38.421844,-39.736374,1.4216766,-3.2949219,-0.699234,-13.678856,11.311418,-41.643806
1570715495,9.113007,-38.421844,-39.736374,1.4216766,-3.2949219,-0.699234,-13.678856,11.311418,-41.643806
1570715495,9.113007,-38.421844,-39.736374,1.4216766,-3.2949219,-0.699234,-13.678856,11.311418,-41.643806
1570715495,9.113007,-38.421844,-39.736374,1.4216766,-3.2949219,-0.699234,-13.678856,11.311418,-41.643806
1570715495,9.113007,-38.421844,-39.736374,1.4216766,-3.2949219,-0.699234,-13.678856,11.311418,-41.643806
1570715495,9.113007,-38.421844,-39.736374,1.4216766,-3.2949219,-0.699234,-13.678856,11.311418,-41.643806
1570715495,9.113007,-38.421844,-39.736374,1.4216766,-3.2949219,-0.699234,-13.678856,11.311418,-41.643806
1570715495,9.113007,-38.421844,-39.736374,1.4216766,-3.2949219,-0.699234,-13.678856,11.311418,-41.643806
1570715495,9.113007,-38.421844,-39.736374,1.4216766,-3.2949219,-0.699234,-13.678856,11.311418,-41.643806
1570715495,9.113007,-38.421844,-39.736374,1.4216766,-3.2949219,-0.699234,-13.678856,11.311418,-41.643806
1570715495,9.113007,-38.421844,-39.736374,1.4216766,-3.2949219,-0.699234,-13.678856,11.311418,-41.643806
1570715495,9.113007,-38.421844,-39.736374,1.4216766,-3.2949219,-0.699234,-13.678856,11.311418,-41.643806
1570715495,9.113007,-38.421844,-39.736374,1.4216766,-3.2949219,-0.699234,-13.678856,11.311418,-41.643806
1570715495,9.113007,-38.421844,-39.736374,1.4216766,-3.2949219,-0.699234,-13.678856,11.311418,-41.643806
1570715495,9.113007,-38.421844,-39.736374,1.4216766,-3.2949219,-0.699234,-13.678856,11.311418,-41.643806
1570715495,9.113007,-38.421844,-39.736374,1.4216766,-3.2949219,-0.699234,-13.678856,11.311418,-41.643806
1570715495,9.113007,-38.421844,-39.736374,1.4216766,-3.2949219,-0.699234,-13.678856,11.311418,-41.643806
1570715495,9.113007,-38.421844,-39.736374,1.4216766,-3.2949219,-0.699234,-13.678856,11.311418,-41.643806
1570715495,9.113007,-38.421844,-39.736374,1.4216766,-3.2949219,-0.699234,-13.678856,11.311418,-41.643806
1570715495,9.113007,-38.421844,-39.736374,1.4216766,-3.2949219,-0.699234,-13.678856,11.311418,-41.643806
1570715495,9.113007,-38.421844,-39.736374,1.4216766,-3.2949219,-0.699234,-13.678856,11.311418,-41.643806
1570715495,9.113007,-38.421844,-39.736374,1.4216766,-3.2949219,-0.699234,-13.678856,11.311418,-41.643806
1570715495,9.113007,-38.421844,-39.736374,1.4216766,-3.2949219,-0.699234,-13.678856,11.311418,-41.643806
1570715495,9.113007,-38.421844,-39.736374,1.4216766,-3.2949219,-0.699234,-13.678856,11.311418,-41.643806
1570715495,9.113007,-38.421844,-39.736374,1.4216766,-3.2949219,-0.699234,-13.678856,11.311418,-41.643806
1570715495,9.113007,-38.421844,-39.736374,1.4216766,-3.2949219,-0.699234,-13.678856,11.311418,-41.643806
1570715495,9.113007,-38.421844,-39.736374,1.4216766,-3.2949219,-0.699234,-13.678856,11.311418,-41.643806
1570715495,9.113007,-38.421844,-39.736374,1.4216766,-3.2949219,-0.699234,-13.678856,11.311418,-41.643806
1570715495,9.113007,-38.421844,-39.736374,1.4216766,-3.2949219,-0.699234,-13.678856,11.311418,-41.643806
1570715495,9.113007,-38.421844,-39.736374,1.4216766,-3.2949219,-0.699234,-13.678856,11.311418,-41.643806
1570715495,9.113007,-38.421844,-39.736374,1.4216766,-3.2949219,-0.699234,-13.678856,11.311418,-41.643806
1570715495,9.113007,-38.421844,-39.736374,1.4216766,-3.2949219,-0.699234,-13.678856,11.311418,-41.643806
1570715495,9.113007,-38.421844,-39.736374,1.4216766,-3.2949219,-0.699234,-13.678856,11.311418,-41.643806
1570715495,9.113007,-38.421844,-39.736374,1.4216766,-3.2949219,-0.699234,-13.678856,11.311418,-41.643806
1570715495,9.113007,-38.421844,-39.736374,1.4216766,-3.2949219,-0.699234,-13.678856,11.311418,-41.643806
1570715495,9.113007,-38.421844,-39.736374,1.4216766,-3.2949219,-0.699234,-13.678856,11.311418,-41.643806
1570715495,9.113007,-38.421844,-39.736374,1.4216766,-3.2949219,-0.699234,-13.678856,11.311418,-41.643806
1570715495,9.113007,-38.421844,-39.736374,1.4216766,-3.2949219,-0.699234,-13.678856,11.311418,-41.643806
1570715495,9.113007,-38.421844,-39.736374,1.4216766,-3.2949219,-0.699234,-13.678856,11.311418,-41.643806
1570715495,9.113007,-38.421844,-39.736374,1.4216766,-3.2949219,-0.699234,-13.678856,11.311418,-41.643806
1570715495,9.113007,-38.421844,-39.736374,1.4216766,-3.2949219,-0.699234,-13.678856,11.311418,-41.643806
1570715495,9.113007,-38.421844,-39.736374,1.4216766,-3.2949219,-0.699234,-13.678856,11.311418,-41.643806
1570715495,9.113007,-38.421844,-39.736374,1.4216766,-3.2949219,-0.699234,-13.678856,11.311418,-41.643806
1570715495,9.113007,-38.421844,-39.736374,1.4216766,-3.2949219,-0.699234,-13.678856,11.311418,-41.643806
1570715495,9.113007,-38.421844,-39.736374,1.4216766,-3.2949219,-0.699234,-13.678856,11.311418,-41.643806
1570715495,9.113007,-38.421844,-39.736374,1.4216766,-3.2949219,-0.699234,-13.678856,11.311418,-41.643806
1570715495,9.113007,-38.421844,-39.736374,1.4216766,-3.2949219,-0.699234,-13.678856,11.311418,-41.643806
1570715495,9.113007,-38.421844,-39.736374,1.4216766,-3.2949219,-0.699234,-13.678856,11.311418,-41.643806
1570715495,9.113007,-38.421844,-39.736374,1.4216766,-3.2949219,-0.699234,-13.678856,11.311418,-41.643806
1570715495,9.113007,-38.421844,-39.736374,1.4216766,-3.2949219,-0.699234,-13.678856,11.311418,-41.643806
1570715495,9.113007,-38.421844,-39.736374,1.4216766,-3.2949219,-0.699234,-13.678856,11.311418,-41.643806
1570715495,9.113007,-38.421844,-39.736374,1.4216766,-3.2949219,-0.699234,-13.678856,11.311418,-41.643806
1570715495,9.113007,-38.421844,-39.736374,1.4216766,-3.2949219,-0.699234,-13.678856,11.311418,-41.643806
1570715495,9.113007,-38.421844,-39.736374,1.4216766,-3.2949219,-0.699234,-13.678856,11.311418,-41.643806
1570715495,9.113007,-38.421844,-39.736374,1.4216766,-3.2949219,-0.699234,-13.678856,11.311418,-41.643806
1570715495,9.113007,-38.421844,-39.736374,1.4216766,-3.2949219,-0.699234,-13.678856,11.311418,-41.643806
1570715495,9.113007,-38.421844,-39.736374,1.4216766,-3.2949219,-0.699234,-13.678856,11.311418,-41.643806
1570715495,9.113007,-38.421844,-39.736374,1.4216766,-3.2949219,-0.699234,-13.678856,11.311418,-41.643806
1570715495,9.113007,-38.421844,-39.736374,1.4216766,-3.2949219,-0.699234,-13.678856,11.311418,-41.643806
1570715495,9.113007,-38.421844,-39.736374,1.4216766,-3.2949219,-0.699234,-13.678856,11.311418,-41.643806
1570715495,9.113007,-38.421844,-39.736374,1.4216766,-3.2949219,-0.699234,-13.678856,11.311418,-41.643806
1570715495,9.113007,-38.421844,-39.736374,1.4216766,-3.2949219,-0.699234,-13.678856,11.311418,-41.643806
1570715495,9.113007,-38.421844,-39.736374,1.4216766,-3.2949219,-0.699234,-13.678856,11.311418,-41.643806
1570715495,9.113007,-38.421844,-39.736374,1.4216766,-3.2949219,-0.699234,-13.678856,11.311418,-41.643806
1570715495,9.113007,-38.421844,-39.736374,1.4216766,-3.2949219,-0.699234,-13.678856,11.311418,-41.643806
1570715495,9.113007,-38.421844,-39.736374,1.4216766,-3.2949219,-0.699234,-13.678856,11.311418,-41.643806
1570715495,9.113007,-38.421844,-39.736374,1.4216766,-3.2949219,-0.699234,-13.678856,11.311418,-41.643806
1570715495,9.113007,-38.421844,-39.736374,1.4216766,-3.2949219,-0.699234,-13.678856,11.311418,-41.643806
1570715495,9.113007,-38.421844,-39.736374,1.4216766,-3.2949219,-0.699234,-13.678856,11.311418,-41.643806
1570715495,9.113007,-38.421844,-39.736374,1.4216766,-3.2949219,-0.699234,-13.678856,11.311418,-41.643806
1570715495,9.113007,-38.421844,-39.736374,1.4216766,-3.2949219,-0.699234,-13.678856,11.311418,-41.643806
1570715495,9.113007,-38.421844,-39.736374,1.4216766,-3.2949219,-0.699234,-13.678856,11.311418,-41.643806
1570715495,9.113007,-38.421844,-39.736374,1.4216766,-3.2949219,-0.699234,-13.678856,11.311418,-41.643806
1570715495,9.113007,-38.421844,-39.736374,1.4216766,-3.2949219,-0.699234,-13.678856,11.311418,-41.643806
1570715495,9.113007,-38.421844,-39.736374,1.4216766,-3.2949219,-0.699234,-13.678856,11.311418,-41.643806
1570715495,9.113007,-38.421844,-39.736374,1.4216766,-3.2949219,-0.699234,-13.678856,11.311418,-41.643806
1570715495,9.113007,-38.421844,-39.736374,1.4216766,-3.2949219,-0.699234,-13.678856,11.311418,-41.643806
1570715495,9.113007,-38.421844,-39.736374,1.4216766,-3.2949219,-0.699234,-13.678856,11.311418,-41.643806
1570715495,9.113007,-38.421844,-39.736374,1.4216766,-3.2949219,-0.699234,-13.678856,11.311418,-41.643806
1570715495,9.113007,-38.421844,-39.736374,1.4216766,-3.2949219,-0.699234,-13.678856,11.311418,-41.643806
1570715495,9.113007,-38.421844,-39.736374,1.4216766,-3.2949219,-0.699234,-13.678856,11.311418,-41.643806
1570715495,9.113007,-38.421844,-39.736374,1.4216766,-3.2949219,-0.699234,-13.678856,11.311418,-41.643806
1570715495,9.113007,-38.421844,-39.736374,1.4216766,-3.2949219,-0.699234,-13.678856,11.311418,-41.643806
1570715495,9.113007,-38.421844,-39.736374,1.4216766,-3.2949219,-0.699234,-13.678856,11.311418,-41.643806
1570715495,9.113007,-38.421844,-39.736374,1.4216766,-3.2949219,-0.699234,-13.678856,11.311418,-41.643806
1570715495,9.113007,-38.421844,-39.736374,1.4216766,-3.2949219,-0.699234,-13.678856,11.311418,-41.643806
1570715495,9.113007,-38.421844,-39.736374,1.4216766,-3.2949219,-0.699234,-13.678856,11.311418,-41.643806
1570715495,9.113007,-38.421844,-39.736374,1.4216766,-3.2949219,-0.699234,-13.678856,11.311418,-41.643806
1570715495,9.113007,-38.421844,-39.736374,1.4216766,-3.2949219,-0.699234,-13.678856,11.311418,-41.643806
1570715495,9.113007,-38.421844,-39.736374,1.4216766,-3.2949219,-0.699234,-13.678856,11.311418,-41.643806
1570715495,9.113007,-38.421844,-39.736374,1.4216766,-3.2949219,-0.699234,-13.678856,11.311418,-41.643806
1570715495,9.113007,-38.421844,-39.736374,1.4216766,-3.2949219,-0.699234,-13.678856,11.311418,-41.643806
1570715495,9.113007,-38.421844,-39.736374,1.4216766,-3.2949219,-0.699234,-13.678856,11.311418,-41.643806
1570715495,9.113007,-38.421844,-39.736374,1.4216766,-3.2949219,-0.699234,-13.678856,11.311418,-41.643806
1570715495,9.113007,-38.421844,-39.736374,1.4216766,-3.2949219,-0.699234,-13.678856,11.311418,-41.643806
1570715495,9.113007,-38.421844,-39.736374,1.4216766,-3.2949219,-0.699234,-13.678856,11.311418,-41.643806
1570715495,9.113007,-38.421844,-39.736374,1.4216766,-3.2949219,-0.699234,-13.678856,11.311418,-41.643806
1570715495,9.113007,-38.421844,-39.736374,1.4216766,-3.2949219,-0.699234,-13.678856,11.311418,-41.643806
1570715495,9.113007,-38.421844,-39.736374,1.4216766,-3.2949219,-0.699234,-13.678856,11.311418,-41.643806
1570715495,9.113007,-38.421844,-39.736374,1.4216766,-3.2949219,-0.699234,-13.678856,11.311418,-41.643806
1570715495,9.113007,-38.421844,-39.736374,1.4216766,-3.2949219,-0.699234,-13.678856,11.311418,-41.643806
1570715495,9.113007,-38.421844,-39.736374,1.4216766,-3.2949219,-0.699234,-13.678856,11.311418,-41.643806
1570715495,9.113007,-38.421844,-39.736374,1.4216766,-3.2949219,-0.699234,-13.678856,11.311418,-41.643806
1570715495,9.113007,-38.421844,-39.736374,1.4216766,-3.2949219,-0.699234,-13.678856,11.311418,-41.643806
1570715495,9.113007,-38.421844,-39.736374,1.4216766,-3.2949219,-0.699234,-13.678856,11.311418,-41.643806
1570715495,9.113007,-38.421844,-39.736374,1.4216766,-3.2949219,-0.699234,-13.678856,11.311418,-41.643806
1570715495,9.113007,-38.421844,-39.736374,1.4216766,-3.2949219,-0.699234,-13.678856,11.311418,-41.643806
1570715495,9.113007,-38.421844,-39.736374,1.4216766,-3.2949219,-0.699234,-13.678856,11.311418,-41.643806
1570715495,9.113007,-38.421844,-39.736374,1.4216766,-3.2949219,-0.699234,-13.678856,11.311418,-41.643806
1570715495,9.113007,-38.421844,-39.736374,1.4216766,-3.2949219,-0.699234,-13.678856,11.311418,-41.643806
1570715495,9.113007,-38.421844,-39.736374,1.4216766,-3.2949219,-0.699234,-13.678856,11.311418,-41.643806
1570715495,9.113007,-38.421844,-39.736374,1.4216766,-3.2949219,-0.699234,-13.678856,11.311418,-41.643806
1570715495,9.113007,-38.421844,-39.736374,1.4216766,-3.2949219,-0.699234,-13.678856,11.311418,-41.643806
1570715495,9.113007,-38.421844,-39.736374,1.4216766,-3.2949219,-0.699234,-13.678856,11.311418,-41.643806
1570715495,9.113007,-38.421844,-39.736374,1.4216766,-3.2949219,-0.699234,-13.678856,11.311418,-41.643806
1570715495,9.113007,-38.421844,-39.736374,1.4216766,-3.2949219,-0.699234,-13.678856,11.311418,-41.643806
1570715495,9.113007,-38.421844,-39.736374,1.4216766,-3.2949219,-0.699234,-13.678856,11.311418,-41.643806
1570715495,9.113007,-38.421844,-39.736374,1.4216766,-3.2949219,-0.699234,-13.678856,11.311418,-41.643806
1570715495,9.113007,-38.421844,-39.736374,1.4216766,-3.2949219,-0.699234,-13.678856,11.311418,-41.643806
1570715495,9.113007,-38.421844,-39.736374,1.4216766,-3.2949219,-0.699234,-13.678856,11.311418,-41.643806
1570715495,9.113007,-38.421844,-39.736374,1.4216766,-3.2949219,-0.699234,-13.678856,11.311418,-41.643806
1570715495,9.113007,-38.421844,-39.736374,1.4216766,-3.2949219,-0.699234,-13.678856,11.311418,-41.643806
1570715495,9.113007,-38.421844,-39.736374,1.4216766,-3.2949219,-0.699234,-13.678856,11.311418,-41.643806
1570715495,9.113007,-38.421844,-39.736374,1.4216766,-3.2949219,-0.699234,-13.678856,11.311418,-41.643806
1570715495,9.113007,-38.421844,-39.736374,1.4216766,-3.2949219,-0.699234,-13.678856,11.311418,-41.643806
1570715495,9.113007,-38.421844,-39.736374,1.4216766,-3.2949219,-0.699234,-13.678856,11.311418,-41.643806
1570715495,9.113007,-38.421844,-39.736374,1.4216766,-3.2949219,-0.699234,-13.678856,11.311418,-41.643806
1570715495,9.113007,-38.421844,-39.736374,1.4216766,-3.2949219,-0.699234,-13.678856,11.311418,-41.643806
1570715495,9.113007,-38.421844,-39.736374,1.4216766,-3.2949219,-0.699234,-13.678856,11.311418,-41.643806
1570715495,9.113007,-38.421844,-39.736374,1.4216766,-3.2949219,-0.699234,-13.678856,11.311418,-41.643806
1570715495,9.113007,-38.421844,-39.736374,1.4216766,-3.2949219,-0.699234,-13.678856,11.311418,-41.643806
1570715495,9.113007,-38.421844,-39.736374,1.4216766,-3.2949219,-0.699234,-13.678856,11.311418,-41.643806
1570715495,9.113007,-38.421844,-39.736374,1.4216766,-3.2949219,-0.699234,-13.678856,11.311418,-41.643806
1570715495,9.113007,-38.421844,-39.736374,1.4216766,-3.2949219,-0.699234,-13.678856,11.311418,-41.643806
1570715495,9.113007,-38.421844,-39.736374,1.4216766,-3.2949219,-0.699234,-13.678856,11.311418,-41.643806
1570715495,9.113007,-38.421844,-39.736374,1.4216766,-3.2949219,-0.699234,-13.678856,11.311418,-41.643806
1570715495,9.113007,-38.421844,-39.736374,1.4216766,-3.2949219,-0.699234,-13.678856,11.311418,-41.643806
1570715495,9.113007,-38.421844,-39.736374,1.4216766,-3.2949219,-0.699234,-13.678856,11.311418,-41.643806
1570715495,9.113007,-38.421844,-39.736374,1.4216766,-3.2949219,-0.699234,-13.678856,11.311418,-41.643806
1570715495,9.113007,-38.421844,-39.736374,1.4216766,-3.2949219,-0.699234,-13.678856,11.311418,-41.643806
1570715495,9.113007,-38.421844,-39.736374,1.4216766,-3.2949219,-0.699234,-13.678856,11.311418,-41.643806
1570715495,9.113007,-38.421844,-39.736374,1.4216766,-3.2949219,-0.699234,-13.678856,11.311418,-41.643806
1570715495,9.113007,-38.421844,-39.736374,1.4216766,-3.2949219,-0.699234,-13.678856,11.311418,-41.643806
1570715495,9.113007,-38.421844,-39.736374,1.4216766,-3.2949219,-0.699234,-13.678856,11.311418,-41.643806
1570715495,9.113007,-38.421844,-39.736374,1.4216766,-3.2949219,-0.699234,-13.678856,11.311418,-41.643806
1570715495,9.113007,-38.421844,-39.736374,1.4216766,-3.2949219,-0.699234,-13.678856,11.311418,-41.643806
1570715495,9.113007,-38.421844,-39.736374,1.4216766,-3.2949219,-0.699234,-13.678856,11.311418,-41.643806
1570715495,9.113007,-38.421844,-39.736374,1.4216766,-3.2949219,-0.699234,-13.678856,11.311418,-41.643806
1570715495,9.113007,-38.421844,-39.736374,1.4216766,-3.2949219,-0.699234,-13.678856,11.311418,-41.643806
1570715495,9.113007,-38.421844,-39.736374,1.4216766,-3.2949219,-0.699234,-13.678856,11.311418,-41.643806
1570715495,9.113007,-38.421844,-39.736374,1.4216766,-3.2949219,-0.699234,-13.678856,11.311418,-41.643806
1570715495,9.113007,-38.421844,-39.736374,1.4216766,-3.2949219,-0.699234,-13.678856,11.311418,-41.643806
1570715495,9.113007,-38.421844,-39.736374,1.4216766,-3.2949219,-0.699234,-13.678856,11.311418,-41.643806
1570715495,9.113007,-38.421844,-39.736374,1.4216766,-3.2949219,-0.699234,-13.678856,11.311418,-41.643806
1570715495,9.113007,-38.421844,-39.736374,1.4216766,-3.2949219,-0.699234,-13.678856,11.311418,-41.643806
1570715495,9.113007,-38.421844,-39.736374,1.4216766,-3.2949219,-0.699234,-13.678856,11.311418,-41.643806
1570715495,9.113007,-38.421844,-39.736374,1.4216766,-3.2949219,-0.699234,-13.678856,11.311418,-41.643806
1570715495,9.113007,-38.421844,-39.736374,1.4216766,-3.2949219,-0.699234,-13.678856,11.311418,-41.643806
1570715495,9.113007,-38.421844,-39.736374,1.4216766,-3.2949219,-0.699234,-13.678856,11.311418,-41.643806
1570715495,9.113007,-38.421844,-39.736374,1.4216766,-3.2949219,-0.699234,-13.678856,11.311418,-41.643806
1570715495,9.113007,-38.421844,-39.736374,1.4216766,-3.2949219,-0.699234,-13.678856,11.311418,-41.643806
1570715495,9.113007,-38.421844,-39.736374,1.4216766,-3.2949219,-0.699234,-13.678856,11.311418,-41.643806
1570715495,9.113007,-38.421844,-39.736374,1.4216766,-3.2949219,-0.699234,-13.678856,11.311418,-41.643806
1570715495,9.113007,-38.421844,-39.736374,1.4216766,-3.2949219,-0.699234,-13.678856,11.311418,-41.643806
1570715495,9.113007,-38.421844,-39.736374,1.4216766,-3.2949219,-0.699234,-13.678856,11.311418,-41.643806
1570715495,9.113007,-38.421844,-39.736374,1.4216766,-3.2949219,-0.699234,-13.678856,11.311418,-41.643806
1570715495,9.113007,-38.421844,-39.736374,1.4216766,-3.2949219,-0.699234,-13.678856,11.311418,-41.643806
1570715495,9.113007,-38.421844,-39.736374,1.4216766,-3.2949219,-0.699234,-13.678856,11.311418,-41.643806
1570715495,9.113007,-38.421844,-39.736374,1.4216766,-3.2949219,-0.699234,-13.678856,11.311418,-41.643806
1570715495,9.113007,-38.421844,-39.736374,1.4216766,-3.2949219,-0.699234,-13.678856,11.311418,-41.643806
1570715495,9.113007,-38.421844,-39.736374,1.4216766,-3.2949219,-0.699234,-13.678856,11.311418,-41.643806
1570715495,9.113007,-38.421844,-39.736374,1.4216766,-3.2949219,-0.699234,-13.678856,11.311418,-41.643806
1570715495,9.113007,-38.421844,-39.736374,1.4216766,-3.2949219,-0.699234,-13.678856,11.311418,-41.643806
1570715495,9.113007,-38.421844,-39.736374,1.4216766,-3.2949219,-0.699234,-13.678856,11.311418,-41.643806
1570715495,9.113007,-38.421844,-39.736374,1.4216766,-3.2949219,-0.699234,-13.678856,11.311418,-41.643806
1570715495,9.113007,-38.421844,-39.736374,1.4216766,-3.2949219,-0.699234,-13.678856,11.311418,-41.643806
1570715495,9.113007,-38.421844,-39.736374,1.4216766,-3.2949219,-0.699234,-13.678856,11.311418,-41.643806
1570715495,9.113007,-38.421844,-39.736374,1.4216766,-3.2949219,-0.699234,-13.678856,11.311418,-41.643806
1570715495,9.113007,-38.421844,-39.736374,1.4216766,-3.2949219,-0.699234,-13.678856,11.311418,-41.643806
1570715495,9.113007,-38.421844,-39.736374,1.4216766,-3.2949219,-0.699234,-13.678856,11.311418,-41.643806
1570715495,9.113007,-38.421844,-39.736374,1.4216766,-3.2949219,-0.699234,-13.678856,11.311418,-41.643806
1570715495,9.113007,-38.421844,-39.736374,1.4216766,-3.2949219,-0.699234,-13.678856,11.311418,-41.643806
1570715495,9.113007,-38.421844,-39.736374,1.4216766,-3.2949219,-0.699234,-13.678856,11.311418,-41.643806
1570715495,9.113007,-38.421844,-39.736374,1.4216766,-3.2949219,-0.699234,-13.678856,11.311418,-41.643806
1570715495,9.113007,-38.421844,-39.736374,1.4216766,-3.2949219,-0.699234,-13.678856,11.311418,-41.643806
1570715495,9.113007,-38.421844,-39.736374,1.4216766,-3.2949219,-0.699234,-13.678856,11.311418,-41.643806
1570715495,9.113007,-38.421844,-39.736374,1.4216766,-3.2949219,-0.699234,-13.678856,11.311418,-41.643806
1570715495,9.113007,-38.421844,-39.736374,1.4216766,-3.2949219,-0.699234,-13.678856,11.311418,-41.643806
1570715495,9.113007,-38.421844,-39.736374,1.4216766,-3.2949219,-0.699234,-13.678856,11.311418,-41.643806
1570715495,9.113007,-38.421844,-39.736374,1.4216766,-3.2949219,-0.699234,-13.678856,11.311418,-41.643806
1570715495,9.113007,-38.421844,-39.736374,1.4216766,-3.2949219,-0.699234,-13.678856,11.311418,-41.643806
1570715495,9.113007,-38.421844,-39.736374,1.4216766,-3.2949219,-0.699234,-13.678856,11.311418,-41.643806
1570715495,9.113007,-38.421844,-39.736374,1.4216766,-3.2949219,-0.699234,-13.678856,11.311418,-41.643806
1570715495,9.113007,-38.421844,-39.736374,1.4216766,-3.2949219,-0.699234,-13.678856,11.311418,-41.643806
1570715495,9.113007,-38.421844,-39.736374,1.4216766,-3.2949219,-0.699234,-13.678856,11.311418,-41.643806
1570715495,9.113007,-38.421844,-39.736374,1.4216766,-3.2949219,-0.699234,-13.678856,11.311418,-41.643806
1570715495,9.113007,-38.421844,-39.736374,1.4216766,-3.2949219,-0.699234,-13.678856,11.311418,-41.643806
1570715495,9.113007,-38.421844,-39.736374,1.4216766,-3.2949219,-0.699234,-13.678856,11.311418,-41.643806
1570715495,9.113007,-38.421844,-39.736374,1.4216766,-3.2949219,-0.699234,-13.678856,11.311418,-41.643806
1570715495,9.113007,-38.421844,-39.736374,1.4216766,-3.2949219,-0.699234,-13.678856,11.311418,-41.643806
1570715495,9.113007,-38.421844,-39.736374,1.4216766,-3.2949219,-0.699234,-13.678856,11.311418,-41.643806
1570715495,9.113007,-38.421844,-39.736374,1.4216766,-3.2949219,-0.699234,-13.678856,11.311418,-41.643806
1570715495,9.113007,-38.421844,-39.736374,1.4216766,-3.2949219,-0.699234,-13.678856,11.311418,-41.643806
1570715495,9.113007,-38.421844,-39.736374,1.4216766,-3.2949219,-0.699234,-13.678856,11.311418,-41.643806
1570715495,9.113007,-38.421844,-39.736374,1.4216766,-3.2949219,-0.699234,-13.678856,11.311418,-41.643806
1570715495,9.113007,-38.421844,-39.736374,1.4216766,-3.2949219,-0.699234,-13.678856,11.311418,-41.643806
1570715495,9.113007,-38.421844,-39.736374,1.4216766,-3.2949219,-0.699234,-13.678856,11.311418,-41.643806
1570715495,9.113007,-38.421844,-39.736374,1.4216766,-3.2949219,-0.699234,-13.678856,11.311418,-41.643806
1570715495,9.113007,-38.421844,-39.736374,1.4216766,-3.2949219,-0.699234,-13.678856,11.311418,-41.643806
1570715495,9.113007,-38.421844,-39.736374,1.4216766,-3.2949219,-0.699234,-13.678856,11.311418,-41.643806
1570715495,9.113007,-38.421844,-39.736374,1.4216766,-3.2949219,-0.699234,-13.678856,11.311418,-41.643806
1570715495,9.113007,-38.421844,-39.736374,1.4216766,-3.2949219,-0.699234,-13.678856,11.311418,-41.643806
1570715495,9.113007,-38.421844,-39.736374,1.4216766,-3.2949219,-0.699234,-13.678856,11.311418,-41.643806
1570715495,9.113007,-38.421844,-39.736374,1.4216766,-3.2949219,-0.699234,-13.678856,11.311418,-41.643806
1570715495,9.113007,-38.421844,-39.736374,1.4216766,-3.2949219,-0.699234,-13.678856,11.311418,-41.643806
1570715495,9.113007,-38.421844,-39.736374,1.4216766,-3.2949219,-0.699234,-13.678856,11.311418,-41.643806
1570715495,9.113007,-38.421844,-39.736374,1.4216766,-3.2949219,-0.699234,-13.678856,11.311418,-41.643806
1570715495,9.113007,-38.421844,-39.736374,1.4216766,-3.2949219,-0.699234,-13.678856,11.311418,-41.643806
1570715495,9.113007,-38.421844,-39.736374,1.4216766,-3.2949219,-0.699234,-13.678856,11.311418,-41.643806
1570715495,9.113007,-38.421844,-39.736374,1.4216766,-3.2949219,-0.699234,-13.678856,11.311418,-41.643806
1570715495,9.113007,-38.421844,-39.736374,1.4216766,-3.2949219,-0.699234,-13.678856,11.311418,-41.643806
1570715495,9.113007,-38.421844,-39.736374,1.4216766,-3.2949219,-0.699234,-13.678856,11.311418,-41.643806
1570715495,9.113007,-38.421844,-39.736374,1.4216766,-3.2949219,-0.699234,-13.678856,11.311418,-41.643806
1570715495,9.113007,-38.421844,-39.736374,1.4216766,-3.2949219,-0.699234,-13.678856,11.311418,-41.643806
1570715495,9.113007,-38.421844,-39.736374,1.4216766,-3.2949219,-0.699234,-13.678856,11.311418,-41.643806
1570715495,9.113007,-38.421844,-39.736374,1.4216766,-3.2949219,-0.699234,-13.678856,11.311418,-41.643806
1570715495,9.113007,-38.421844,-39.736374,1.4216766,-3.2949219,-0.699234,-13.678856,11.311418,-41.643806
1570715495,9.113007,-38.421844,-39.736374,1.4216766,-3.2949219,-0.699234,-13.678856,11.311418,-41.643806
1570715495,9.113007,-38.421844,-39.736374,1.4216766,-3.2949219,-0.699234,-13.678856,11.311418,-41.643806
1570715495,9.113007,-38.421844,-39.736374,1.4216766,-3.2949219,-0.699234,-13.678856,11.311418,-41.643806
1570715495,9.113007,-38.421844,-39.736374,1.4216766,-3.2949219,-0.699234,-13.678856,11.311418,-41.643806
1570715495,9.113007,-38.421844,-39.736374,1.4216766,-3.2949219,-0.699234,-13.678856,11.311418,-41.643806
1570715495,9.113007,-38.421844,-39.736374,1.4216766,-3.2949219,-0.699234,-13.678856,11.311418,-41.643806
1570715495,9.113007,-38.421844,-39.736374,1.4216766,-3.2949219,-0.699234,-13.678856,11.311418,-41.643806
1570715495,9.113007,-38.421844,-39.736374,1.4216766,-3.2949219,-0.699234,-13.678856,11.311418,-41.643806
1570715495,9.113007,-38.421844,-39.736374,1.4216766,-3.2949219,-0.699234,-13.678856,11.311418,-41.643806
1570715495,9.113007,-38.421844,-39.736374,1.4216766,-3.2949219,-0.699234,-13.678856,11.311418,-41.643806
1570715495,9.113007,-38.421844,-39.736374,1.4216766,-3.2949219,-0.699234,-13.678856,11.311418,-41.643806
1570715495,9.113007,-38.421844,-39.736374,1.4216766,-3.2949219,-0.699234,-13.678856,11.311418,-41.643806
1570715495,9.113007,-38.421844,-39.736374,1.4216766,-3.2949219,-0.699234,-13.678856,11.311418,-41.643806
1570715495,9.113007,-38.421844,-39.736374,1.4216766,-3.2949219,-0.699234,-13.678856,11.311418,-41.643806
1570715495,9.113007,-38.421844,-39.736374,1.4216766,-3.2949219,-0.699234,-13.678856,11.311418,-41.643806
1570715495,9.113007,-38.421844,-39.736374,1.4216766,-3.2949219,-0.699234,-13.678856,11.311418,-41.643806
1570715495,9.113007,-38.421844,-39.736374,1.4216766,-3.2949219,-0.699234,-13.678856,11.311418,-41.643806
1570715495,9.113007,-38.421844,-39.736374,1.4216766,-3.2949219,-0.699234,-13.678856,11.311418,-41.643806
1570715495,9.113007,-38.421844,-39.736374,1.4216766,-3.2949219,-0.699234,-13.678856,11.311418,-41.643806
1570715495,9.113007,-38.421844,-39.736374,1.4216766,-3.2949219,-0.699234,-13.678856,11.311418,-41.643806
1570715495,9.113007,-38.421844,-39.736374,1.4216766,-3.2949219,-0.699234,-13.678856,11.311418,-41.643806
1570715495,9.113007,-38.421844,-39.736374,1.4216766,-3.2949219,-0.699234,-13.678856,11.311418,-41.643806
1570715495,9.113007,-38.421844,-39.736374,1.4216766,-3.2949219,-0.699234,-13.678856,11.311418,-41.643806
1570715495,9.113007,-38.421844,-39.736374,1.4216766,-3.2949219,-0.699234,-13.678856,11.311418,-41.643806
1570715495,9.113007,-38.421844,-39.736374,1.4216766,-3.2949219,-0.699234,-13.678856,11.311418,-41.643806
1570715495,9.113007,-38.421844,-39.736374,1.4216766,-3.2949219,-0.699234,-13.678856,11.311418,-41.643806
1570715495,9.113007,-38.421844,-39.736374,1.4216766,-3.2949219,-0.699234,-13.678856,11.311418,-41.643806
1570715495,9.113007,-38.421844,-39.736374,1.4216766,-3.2949219,-0.699234,-13.678856,11.311418,-41.643806
1570715495,9.113007,-38.421844,-39.736374,1.4216766,-3.2949219,-0.699234,-13.678856,11.311418,-41.643806
1570715495,9.113007,-38.421844,-39.736374,1.4216766,-3.2949219,-0.699234,-13.678856,11.311418,-41.643806
1570715495,9.113007,-38.421844,-39.736374,1.4216766,-3.2949219,-0.699234,-13.678856,11.311418,-41.643806
1570715495,9.113007,-38.421844,-39.736374,1.4216766,-3.2949219,-0.699234,-13.678856,11.311418,-41.643806
1570715495,9.113007,-38.421844,-39.736374,1.4216766,-3.2949219,-0.699234,-13.678856,11.311418,-41.643806
1570715495,9.113007,-38.421844,-39.736374,1.4216766,-3.2949219,-0.699234,-13.678856,11.311418,-41.643806
1570715495,9.113007,-38.421844,-39.736374,1.4216766,-3.2949219,-0.699234,-13.678856,11.311418,-41.643806
1570715495,9.113007,-38.421844,-39.736374,1.4216766,-3.2949219,-0.699234,-13.678856,11.311418,-41.643806
1570715495,9.113007,-38.421844,-39.736374,1.4216766,-3.2949219,-0.699234,-13.678856,11.311418,-41.643806
1570715495,9.113007,-38.421844,-39.736374,1.4216766,-3.2949219,-0.699234,-13.678856,11.311418,-41.643806
1570715495,9.113007,-38.421844,-39.736374,1.4216766,-3.2949219,-0.699234,-13.678856,11.311418,-41.643806
1570715495,9.113007,-38.421844,-39.736374,1.4216766,-3.2949219,-0.699234,-13.678856,11.311418,-41.643806
1570715495,9.113007,-38.421844,-39.736374,1.4216766,-3.2949219,-0.699234,-13.678856,11.311418,-41.643806
1570715495,9.113007,-38.421844,-39.736374,1.4216766,-3.2949219,-0.699234,-13.678856,11.311418,-41.643806
1570715495,9.113007,-38.421844,-39.736374,1.4216766,-3.2949219,-0.699234,-13.678856,11.311418,-41.643806
1570715495,9.113007,-38.421844,-39.736374,1.4216766,-3.2949219,-0.699234,-13.678856,11.311418,-41.643806
1570715495,9.113007,-38.421844,-39.736374,1.4216766,-3.2949219,-0.699234,-13.678856,11.311418,-41.643806
1570715495,9.113007,-38.421844,-39.736374,1.4216766,-3.2949219,-0.699234,-13.678856,11.311418,-41.643806
1570715495,9.113007,-38.421844,-39.736374,1.4216766,-3.2949219,-0.699234,-13.678856,11.311418,-41.643806
1570715495,9.113007,-38.421844,-39.736374,1.4216766,-3.2949219,-0.699234,-13.678856,11.311418,-41.643806
1570715495,9.113007,-38.421844,-39.736374,1.4216766,-3.2949219,-0.699234,-13.678856,11.311418,-41.643806
1570715495,9.113007,-38.421844,-39.736374,1.4216766,-3.2949219,-0.699234,-13.678856,11.311418,-41.643806
1570715495,9.113007,-38.421844,-39.736374,1.4216766,-3.2949219,-0.699234,-13.678856,11.311418,-41.643806
1570715495,9.113007,-38.421844,-39.736374,1.4216766,-3.2949219,-0.699234,-13.678856,11.311418,-41.643806
1570715495,9.113007,-38.421844,-39.736374,1.4216766,-3.2949219,-0.699234,-13.678856,11.311418,-41.643806
1570715495,9.113007,-38.421844,-39.736374,1.4216766,-3.2949219,-0.699234,-13.678856,11.311418,-41.643806
1570715495,9.113007,-38.421844,-39.736374,1.4216766,-3.2949219,-0.699234,-13.678856,11.311418,-41.643806
1570715495,9.113007,-38.421844,-39.736374,1.4216766,-3.2949219,-0.699234,-13.678856,11.311418,-41.643806
1570715495,9.113007,-38.421844,-39.736374,1.4216766,-3.2949219,-0.699234,-13.678856,11.311418,-41.643806
1570715495,9.113007,-38.421844,-39.736374,1.4216766,-3.2949219,-0.699234,-13.678856,11.311418,-41.643806
1570715495,9.113007,-38.421844,-39.736374,1.4216766,-3.2949219,-0.699234,-13.678856,11.311418,-41.643806
1570715495,9.113007,-38.421844,-39.736374,1.4216766,-3.2949219,-0.699234,-13.678856,11.311418,-41.643806
1570715495,9.113007,-38.421844,-39.736374,1.4216766,-3.2949219,-0.699234,-13.678856,11.311418,-41.643806
1570715495,9.113007,-38.421844,-39.736374,1.4216766,-3.2949219,-0.699234,-13.678856,11.311418,-41.643806
1570715495,9.113007,-38.421844,-39.736374,1.4216766,-3.2949219,-0.699234,-13.678856,11.311418,-41.643806
1570715495,9.113007,-38.421844,-39.736374,1.4216766,-3.2949219,-0.699234,-13.678856,11.311418,-41.643806
1570715495,9.113007,-38.421844,-39.736374,1.4216766,-3.2949219,-0.699234,-13.678856,11.311418,-41.643806
1570715495,9.113007,-38.421844,-39.736374,1.4216766,-3.2949219,-0.699234,-13.678856,11.311418,-41.643806
1570715495,9.113007,-38.421844,-39.736374,1.4216766,-3.2949219,-0.699234,-13.678856,11.311418,-41.643806
1570715495,9.113007,-38.421844,-39.736374,1.4216766,-3.2949219,-0.699234,-13.678856,11.311418,-41.643806
1570715495,9.113007,-38.421844,-39.736374,1.4216766,-3.2949219,-0.699234,-13.678856,11.311418,-41.643806
1570715495,9.113007,-38.421844,-39.736374,1.4216766,-3.2949219,-0.699234,-13.678856,11.311418,-41.643806
1570715495,-19.796982,-33.110306,-7.62294,1.4216766,-3.2949219,-0.699234,-13.678856,11.311418,-41.643806
1570715495,-16.581558,-25.025085,-8.629715,1.4216766,-3.2949219,-0.699234,-13.678856,11.311418,-41.643806
1570715495,-16.581558,-25.025085,-8.629715,1.4216766,-3.2949219,-0.699234,-13.678856,11.311418,-41.643806
1570715495,-16.581558,-25.025085,-8.629715,1.4216766,-3.2949219,-0.699234,-13.678856,11.311418,-41.643806
1570715495,-16.581558,-25.025085,-8.629715,1.4216766,-3.2949219,-0.699234,-13.678856,11.311418,-41.643806
1570715495,7.7255707,-4.8491516,3.295807,3.7759094,-3.7061157,-1.0848694,-13.678856,11.311418,-41.643806
1570715495,7.7255707,-4.8491516,3.295807,3.7759094,-3.7061157,-1.0848694,-13.678856,11.311418,-41.643806
1570715495,7.7255707,-4.8491516,3.295807,3.7759094,-3.7061157,-1.0848694,-13.678856,11.311418,-41.643806
1570715495,7.7255707,-4.8491516,3.295807,3.7759094,-3.7061157,-1.0848694,-13.678856,11.311418,-41.643806
1570715495,4.948288,-36.79738,3.4789734,6.856659,0.7722473,-0.6853943,7.5581026,-31.74535,2.043536
1570715495,-26.07817,-15.265121,-12.503525,5.37381,-5.625717,-0.5682068,-26.498129,-10.376093,-16.6824
1570715495,-5.3994446,-6.079773,-15.061737,3.0398254,-7.884079,0.735672,-7.8863,-1.2074227,-18.770844
1570715495,9.084274,8.703232,-19.013367,0.9827881,-4.71492,0.9071808,6.457728,13.55015,-23.742632
1570715495,0.010253906,15.544662,-22.148575,-2.060669,0.54855347,0.42781067,-1.1577835,20.99386,-26.832726
1570715495,-3.8013153,9.273056,-9.240234,-3.6372528,4.5198517,1.3279572,-6.063402,15.005642,-13.474332
1570715495,4.516144,-1.4242401,2.3848114,-3.7469788,5.5329285,1.6422119,2.317981,5.778413,-2.8193474
1570715495,6.346512,-10.859787,12.260895,-2.5506897,5.1568756,1.0296783,5.9990335,-3.3100085,8.035748
1570715495,0.47113037,-17.726364,22.296188,-0.4744873,1.9664154,-0.08778381,0.7086721,-11.428101,18.734571
1570715495,-16.75035,5.050873,-36.465897,-1.8646545,0.33869934,-0.88246155,-16.43909,10.735859,-39.49706
1570715495,3.058075,-38.421844,-23.879578,0.014465332,3.6474,-0.52134705,6.451737,-31.824915,-1.8595874
1570715495,-4.542328,7.316986,-27.12851,-3.8034363,-1.8259277,1.6869507,-5.797504,11.724404,-23.793701
1570715495,7.93985,-9.19342,-8.793716,-7.842926,4.7701874,1.3375397,7.4240556,2.7574587,-14.716718
1570715495,-13.2105255,-38.427826,-6.9681396,-4.323288,-1.6341705,-2.6113892,-6.4966226,-31.373877,-6.654969
1570715495,-10.101654,-29.674622,29.918137,-6.392029,4.7723236,2.4752502,-16.965405,-22.779266,34.20693
1570715495,7.2120056,-17.441452,14.234924,-2.4580078,4.476181,1.4920044,6.848837,-10.896088,18.182924
1570715495,7.505295,-0.62457275,6.0060425,-1.8923492,2.118744,-0.85476685,7.920829,5.3667536,8.831378
1570715495,-17.15976,-13.100769,12.495529,-0.8175049,-1.9974365,-0.8196106,-12.595135,-1.7900972,16.117508
1570715495,-12.468323,1.1124115,21.048813,1.1170197,-1.767334,0.37028503,-14.484925,6.384761,25.906921
1570715496,2.9970245,0.12361145,2.0173035,2.7032013,-4.0342255,-0.6491699,3.295627,6.5156264,5.032649
1570715496,5.2188416,-3.009201,1.7850647,4.082718,-3.010498,-0.94958496,5.606735,4.297106,6.390171
1570715496,5.520508,-6.812393,3.730362,4.1732635,-2.435257,-0.9740753,5.9561887,0.6774087,3.832447
1570715496,1.8382263,-14.835358,5.7103577,5.7977905,-2.341507,-1.8326874,2.7564006,-6.1668506,4.6868
1570715496,-17.728394,-38.426636,13.229355,6.663849,-1.3337708,-2.1607819,-13.361753,-31.423864,8.478774
1570715496,0.113204956,-30.531754,3.9027405,6.982361,3.821045,0.87416077,-1.3023678,-23.350096,0.34920526
1570715496,-7.2453766,-28.410492,-0.7659607,6.5274963,-5.9974976,1.1021271,-2.4453592,-24.891834,-0.82707644
1570715496,-18.279053,-3.3731232,-8.84758,3.4893646,-6.9860687,0.81770325,-20.31998,1.8886008,-13.868799
1570715496,6.251938,-0.6736603,-18.43277,1.6400604,-6.653702,0.75057983,3.8741765,2.8138342,-23.231493
1570715496,7.620224,16.481995,-18.226868,-1.2137756,-2.0187378,0.8634949,4.9587526,20.3004,-22.044022
1570715496,0.394516,12.961319,-16.859772,-3.7235413,1.2388458,0.6951904,-1.4978921,18.525492,-21.301067
1570715496,-0.7008209,2.3885193,-2.4407043,-3.8812103,4.776581,1.5772247,-2.9924073,9.189276,-7.166292
1570715496,5.5073395,-6.8243713,7.356369,-2.8681335,6.1433105,1.4547272,3.4137878,0.6635575,3.853784
1570715496,6.61586,-15.308212,10.307236,-0.94107056,4.5965576,0.52900696,7.116549,-8.503705,8.979318
1570715496,-2.2534637,-12.073654,15.811493,-0.6183014,-1.2389679,-0.22413635,-2.0778751,-5.882125,14.165901
1570715496,-16.971817,5.2124786,-21.782257,-0.42655945,3.5089264,-1.0124359,-16.565098,12.870537,-28.980598
1570715496,0.99546814,-19.786575,-23.3732,0.9550934,-0.04586792,0.23072815,0.26358157,-18.766369,-31.037025
1570715496,-6.8227997,9.343674,-34.797134,-4.7142487,-2.0805206,3.4968414,-8.710651,17.190195,-30.990557
1570715496,0.8170929,-9.339478,-8.803284,-6.2407684,3.8615265,0.911438,2.4290812,-2.0623589,-9.06241
1570715496,-23.302094,-38.427826,-0.51097107,-5.9510193,-0.3931427,-2.00206,-20.176811,-31.452845,-2.0227325
1570715496,-2.0643158,-28.339859,30.043839,-5.212784,5.6160126,2.2526093,-2.690072,-21.961533,32.490467
1570715496,11.910629,-15.904373,6.419052,-1.7986145,3.1499176,0.5503082,12.339772,-9.86269,10.575988
1570715496,3.1586304,4.2739563,7.8507843,-0.9250946,2.5267487,-1.7431946,5.581596,9.264778,10.971085
1570715496,-25.28569,-8.452423,13.699814,-0.3711548,-1.3412323,-1.1871338,-23.58794,-2.065762,14.880436
1570715496,-11.490295,1.6271667,13.03183,1.4312744,-1.6629333,0.30104065,-13.173122,7.094326,18.015186
1570715496,1.983078,-0.75865173,0.7519684,2.953537,-3.7774963,-0.45529175,1.1794555,5.6332903,4.434805
1570715496,8.385178,-2.2897491,0.9925842,4.0784454,-3.3630981,-0.81855774,8.417096,5.0525894,5.0525355
1570715496,7.2431335,-7.49234,3.1988373,4.1903076,-2.3521729,-1.1796722,7.8972173,0.0034999847,3.3116026
1570715496,-1.0838928,-23.211472,7.133713,5.8648987,-1.528717,-2.1725006,0.43105125,-11.3092785,6.5270696
1570715496,-13.410446,-38.28537,2.5308685,6.996216,-1.302887,0.095443726,-19.695177,-31.477701,1.1020031
1570715496,-1.5208435,-31.303879,8.971268,6.415634,2.4415283,1.405716,-1.9393519,-23.755741,5.4907074
1570715496,-14.090393,-24.620468,-2.7232208,6.36557,-6.126404,0.9412689,-9.755056,-22.728516,-5.1099715
1570715496,-9.312775,-9.687836,-11.304031,3.1431427,-8.173843,1.7636566,-14.514406,-2.9719296,-14.066073
1570715496,8.260666,-1.4769135,-19.248001,1.8275452,-7.243866,0.6440582,6.056543,2.991766,-24.21254
1570715497,11.77655,15.389038,-17.635498,-1.2105865,-1.7993011,0.5503082,8.974239,19.936531,-21.05827
1570715497,-2.515625,12.403473,-15.454376,-3.7799988,1.9259338,0.05177307,-3.355046,18.484234,-20.407051
1570715497,-1.313736,3.5389404,-5.949402,-3.752304,5.5371857,1.3748322,-3.155138,9.619312,-9.835794
1570715497,0.9248352,-5.93013,3.0887146,-3.512619,6.2647552,1.403595,0.034539044,0.57844114,-0.34802318
1570715497,1.1139832,-6.799225,3.8979492,-3.4881287,6.343582,1.3588562,0.034539044,0.57844114,-0.34802318
1570715508,2.082428,-9.492706,6.387924,-3.4881287,6.343582,1.3588562,-5.016865,-1.9233994,-13.998711
1570715508,2.082428,-9.492706,6.387924,-3.4881287,6.343582,1.3588562,-5.016865,-1.9233994,-13.998711
1570715508,2.082428,-9.492706,6.387924,-3.4881287,6.343582,1.3588562,-5.016865,-1.9233994,-13.998711
1570715508,2.082428,-9.492706,6.387924,-3.4881287,6.343582,1.3588562,-5.016865,-1.9233994,-13.998711
1570715508,2.082428,-9.492706,6.387924,-3.4881287,6.343582,1.3588562,-5.016865,-1.9233994,-13.998711
1570715508,2.082428,-9.492706,6.387924,-3.4881287,6.343582,1.3588562,-5.016865,-1.9233994,-13.998711
1570715508,2.082428,-9.492706,6.387924,-3.4881287,6.343582,1.3588562,-5.016865,-1.9233994,-13.998711
1570715508,2.082428,-9.492706,6.387924,-3.4881287,6.343582,1.3588562,-5.016865,-1.9233994,-13.998711
1570715508,2.082428,-9.492706,6.387924,-3.4881287,6.343582,1.3588562,-5.016865,-1.9233994,-13.998711
1570715508,2.082428,-9.492706,6.387924,-3.4881287,6.343582,1.3588562,-5.016865,-1.9233994,-13.998711
1570715508,2.082428,-9.492706,6.387924,-3.4881287,6.343582,1.3588562,-5.016865,-1.9233994,-13.998711
1570715508,2.082428,-9.492706,6.387924,-3.4881287,6.343582,1.3588562,-5.016865,-1.9233994,-13.998711
1570715508,2.082428,-9.492706,6.387924,-3.4881287,6.343582,1.3588562,-5.016865,-1.9233994,-13.998711
1570715508,2.082428,-9.492706,6.387924,-3.4881287,6.343582,1.3588562,-5.016865,-1.9233994,-13.998711
1570715508,2.082428,-9.492706,6.387924,-3.4881287,6.343582,1.3588562,-5.016865,-1.9233994,-13.998711
1570715508,2.082428,-9.492706,6.387924,-3.4881287,6.343582,1.3588562,-5.016865,-1.9233994,-13.998711
1570715508,2.082428,-9.492706,6.387924,-3.4881287,6.343582,1.3588562,-5.016865,-1.9233994,-13.998711
1570715508,2.082428,-9.492706,6.387924,-3.4881287,6.343582,1.3588562,-5.016865,-1.9233994,-13.998711
1570715508,2.082428,-9.492706,6.387924,-3.4881287,6.343582,1.3588562,-5.016865,-1.9233994,-13.998711
1570715508,2.082428,-9.492706,6.387924,-3.4881287,6.343582,1.3588562,-5.016865,-1.9233994,-13.998711
1570715508,2.082428,-9.492706,6.387924,-3.4881287,6.343582,1.3588562,-5.016865,-1.9233994,-13.998711
1570715508,2.082428,-9.492706,6.387924,-3.4881287,6.343582,1.3588562,-5.016865,-1.9233994,-13.998711
1570715508,2.082428,-9.492706,6.387924,-3.4881287,6.343582,1.3588562,-5.016865,-1.9233994,-13.998711
1570715508,2.082428,-9.492706,6.387924,-3.4881287,6.343582,1.3588562,-5.016865,-1.9233994,-13.998711
1570715508,2.082428,-9.492706,6.387924,-3.4881287,6.343582,1.3588562,-5.016865,-1.9233994,-13.998711
1570715508,2.082428,-9.492706,6.387924,-3.4881287,6.343582,1.3588562,-5.016865,-1.9233994,-13.998711
1570715508,2.082428,-9.492706,6.387924,-3.4881287,6.343582,1.3588562,-5.016865,-1.9233994,-13.998711
1570715508,2.082428,-9.492706,6.387924,-3.4881287,6.343582,1.3588562,-5.016865,-1.9233994,-13.998711
1570715508,2.082428,-9.492706,6.387924,-3.4881287,6.343582,1.3588562,-5.016865,-1.9233994,-13.998711
1570715508,2.082428,-9.492706,6.387924,-3.4881287,6.343582,1.3588562,-5.016865,-1.9233994,-13.998711
1570715508,2.082428,-9.492706,6.387924,-3.4881287,6.343582,1.3588562,-5.016865,-1.9233994,-13.998711
1570715508,2.082428,-9.492706,6.387924,-3.4881287,6.343582,1.3588562,-5.016865,-1.9233994,-13.998711
1570715508,2.082428,-9.492706,6.387924,-3.4881287,6.343582,1.3588562,-5.016865,-1.9233994,-13.998711
1570715508,2.082428,-9.492706,6.387924,-3.4881287,6.343582,1.3588562,-5.016865,-1.9233994,-13.998711
1570715508,2.082428,-9.492706,6.387924,-3.4881287,6.343582,1.3588562,-5.016865,-1.9233994,-13.998711
1570715508,2.082428,-9.492706,6.387924,-3.4881287,6.343582,1.3588562,-5.016865,-1.9233994,-13.998711
1570715508,2.082428,-9.492706,6.387924,-3.4881287,6.343582,1.3588562,-5.016865,-1.9233994,-13.998711
1570715508,2.082428,-9.492706,6.387924,-3.4881287,6.343582,1.3588562,-5.016865,-1.9233994,-13.998711
1570715508,2.082428,-9.492706,6.387924,-3.4881287,6.343582,1.3588562,-5.016865,-1.9233994,-13.998711
1570715508,2.082428,-9.492706,6.387924,-3.4881287,6.343582,1.3588562,-5.016865,-1.9233994,-13.998711
1570715508,2.082428,-9.492706,6.387924,-3.4881287,6.343582,1.3588562,-5.016865,-1.9233994,-13.998711
1570715508,2.082428,-9.492706,6.387924,-3.4881287,6.343582,1.3588562,-5.016865,-1.9233994,-13.998711
1570715508,2.082428,-9.492706,6.387924,-3.4881287,6.343582,1.3588562,-5.016865,-1.9233994,-13.998711
1570715508,2.082428,-9.492706,6.387924,-3.4881287,6.343582,1.3588562,-5.016865,-1.9233994,-13.998711
1570715508,2.082428,-9.492706,6.387924,-3.4881287,6.343582,1.3588562,-5.016865,-1.9233994,-13.998711
1570715508,2.082428,-9.492706,6.387924,-3.4881287,6.343582,1.3588562,-5.016865,-1.9233994,-13.998711
1570715508,2.082428,-9.492706,6.387924,-3.4881287,6.343582,1.3588562,-5.016865,-1.9233994,-13.998711
1570715508,2.082428,-9.492706,6.387924,-3.4881287,6.343582,1.3588562,-5.016865,-1.9233994,-13.998711
1570715508,2.082428,-9.492706,6.387924,-3.4881287,6.343582,1.3588562,-5.016865,-1.9233994,-13.998711
1570715508,2.082428,-9.492706,6.387924,-3.4881287,6.343582,1.3588562,-5.016865,-1.9233994,-13.998711
1570715508,2.082428,-9.492706,6.387924,-3.4881287,6.343582,1.3588562,-5.016865,-1.9233994,-13.998711
1570715508,2.082428,-9.492706,6.387924,-3.4881287,6.343582,1.3588562,-5.016865,-1.9233994,-13.998711
1570715508,2.082428,-9.492706,6.387924,-3.4881287,6.343582,1.3588562,-5.016865,-1.9233994,-13.998711
1570715508,2.082428,-9.492706,6.387924,-3.4881287,6.343582,1.3588562,-5.016865,-1.9233994,-13.998711
1570715508,2.082428,-9.492706,6.387924,-3.4881287,6.343582,1.3588562,-5.016865,-1.9233994,-13.998711
1570715508,2.082428,-9.492706,6.387924,-3.4881287,6.343582,1.3588562,-5.016865,-1.9233994,-13.998711
1570715508,2.082428,-9.492706,6.387924,-3.4881287,6.343582,1.3588562,-5.016865,-1.9233994,-13.998711
1570715508,2.082428,-9.492706,6.387924,-3.4881287,6.343582,1.3588562,-5.016865,-1.9233994,-13.998711
1570715508,2.082428,-9.492706,6.387924,-3.4881287,6.343582,1.3588562,-5.016865,-1.9233994,-13.998711
1570715508,2.082428,-9.492706,6.387924,-3.4881287,6.343582,1.3588562,-5.016865,-1.9233994,-13.998711
1570715508,2.082428,-9.492706,6.387924,-3.4881287,6.343582,1.3588562,-5.016865,-1.9233994,-13.998711
1570715508,2.082428,-9.492706,6.387924,-3.4881287,6.343582,1.3588562,-5.016865,-1.9233994,-13.998711
1570715508,2.082428,-9.492706,6.387924,-3.4881287,6.343582,1.3588562,-5.016865,-1.9233994,-13.998711
1570715508,2.082428,-9.492706,6.387924,-3.4881287,6.343582,1.3588562,-5.016865,-1.9233994,-13.998711
1570715508,2.082428,-9.492706,6.387924,-3.4881287,6.343582,1.3588562,-5.016865,-1.9233994,-13.998711
1570715508,2.082428,-9.492706,6.387924,-3.4881287,6.343582,1.3588562,-5.016865,-1.9233994,-13.998711
1570715508,2.082428,-9.492706,6.387924,-3.4881287,6.343582,1.3588562,-5.016865,-1.9233994,-13.998711
1570715508,2.082428,-9.492706,6.387924,-3.4881287,6.343582,1.3588562,-5.016865,-1.9233994,-13.998711
1570715508,2.082428,-9.492706,6.387924,-3.4881287,6.343582,1.3588562,-5.016865,-1.9233994,-13.998711
1570715508,2.082428,-9.492706,6.387924,-3.4881287,6.343582,1.3588562,-5.016865,-1.9233994,-13.998711
1570715508,2.082428,-9.492706,6.387924,-3.4881287,6.343582,1.3588562,-5.016865,-1.9233994,-13.998711
1570715508,2.082428,-9.492706,6.387924,-3.4881287,6.343582,1.3588562,-5.016865,-1.9233994,-13.998711
1570715508,2.082428,-9.492706,6.387924,-3.4881287,6.343582,1.3588562,-5.016865,-1.9233994,-13.998711
1570715508,2.082428,-9.492706,6.387924,-3.4881287,6.343582,1.3588562,-5.016865,-1.9233994,-13.998711
1570715508,2.082428,-9.492706,6.387924,-3.4881287,6.343582,1.3588562,-5.016865,-1.9233994,-13.998711
1570715508,2.082428,-9.492706,6.387924,-3.4881287,6.343582,1.3588562,-5.016865,-1.9233994,-13.998711
1570715508,2.082428,-9.492706,6.387924,-3.4881287,6.343582,1.3588562,-5.016865,-1.9233994,-13.998711
1570715508,2.082428,-9.492706,6.387924,-3.4881287,6.343582,1.3588562,-5.016865,-1.9233994,-13.998711
1570715508,2.082428,-9.492706,6.387924,-3.4881287,6.343582,1.3588562,-5.016865,-1.9233994,-13.998711
1570715508,2.082428,-9.492706,6.387924,-3.4881287,6.343582,1.3588562,-5.016865,-1.9233994,-13.998711
1570715508,2.082428,-9.492706,6.387924,-3.4881287,6.343582,1.3588562,-5.016865,-1.9233994,-13.998711
1570715508,2.082428,-9.492706,6.387924,-3.4881287,6.343582,1.3588562,-5.016865,-1.9233994,-13.998711
1570715508,2.082428,-9.492706,6.387924,-3.4881287,6.343582,1.3588562,-5.016865,-1.9233994,-13.998711
1570715508,2.082428,-9.492706,6.387924,-3.4881287,6.343582,1.3588562,-5.016865,-1.9233994,-13.998711
1570715508,2.082428,-9.492706,6.387924,-3.4881287,6.343582,1.3588562,-5.016865,-1.9233994,-13.998711
1570715508,2.082428,-9.492706,6.387924,-3.4881287,6.343582,1.3588562,-5.016865,-1.9233994,-13.998711
1570715508,2.082428,-9.492706,6.387924,-3.4881287,6.343582,1.3588562,-5.016865,-1.9233994,-13.998711
1570715508,2.082428,-9.492706,6.387924,-3.4881287,6.343582,1.3588562,-5.016865,-1.9233994,-13.998711
1570715508,2.082428,-9.492706,6.387924,-3.4881287,6.343582,1.3588562,-5.016865,-1.9233994,-13.998711
1570715508,2.082428,-9.492706,6.387924,-3.4881287,6.343582,1.3588562,-5.016865,-1.9233994,-13.998711
1570715508,2.082428,-9.492706,6.387924,-3.4881287,6.343582,1.3588562,-5.016865,-1.9233994,-13.998711
1570715508,2.082428,-9.492706,6.387924,-3.4881287,6.343582,1.3588562,-5.016865,-1.9233994,-13.998711
1570715508,2.082428,-9.492706,6.387924,-3.4881287,6.343582,1.3588562,-5.016865,-1.9233994,-13.998711
1570715508,2.082428,-9.492706,6.387924,-3.4881287,6.343582,1.3588562,-5.016865,-1.9233994,-13.998711
1570715508,2.082428,-9.492706,6.387924,-3.4881287,6.343582,1.3588562,-5.016865,-1.9233994,-13.998711
1570715508,2.082428,-9.492706,6.387924,-3.4881287,6.343582,1.3588562,-5.016865,-1.9233994,-13.998711
1570715508,2.082428,-9.492706,6.387924,-3.4881287,6.343582,1.3588562,-5.016865,-1.9233994,-13.998711
1570715508,2.082428,-9.492706,6.387924,-3.4881287,6.343582,1.3588562,-5.016865,-1.9233994,-13.998711
1570715508,2.082428,-9.492706,6.387924,-3.4881287,6.343582,1.3588562,-5.016865,-1.9233994,-13.998711
1570715508,2.082428,-9.492706,6.387924,-3.4881287,6.343582,1.3588562,-5.016865,-1.9233994,-13.998711
1570715508,2.082428,-9.492706,6.387924,-3.4881287,6.343582,1.3588562,-5.016865,-1.9233994,-13.998711
1570715508,2.082428,-9.492706,6.387924,-3.4881287,6.343582,1.3588562,-5.016865,-1.9233994,-13.998711
1570715508,2.082428,-9.492706,6.387924,-3.4881287,6.343582,1.3588562,-5.016865,-1.9233994,-13.998711
1570715508,2.082428,-9.492706,6.387924,-3.4881287,6.343582,1.3588562,-5.016865,-1.9233994,-13.998711
1570715508,2.082428,-9.492706,6.387924,-3.4881287,6.343582,1.3588562,-5.016865,-1.9233994,-13.998711
1570715508,2.082428,-9.492706,6.387924,-3.4881287,6.343582,1.3588562,-5.016865,-1.9233994,-13.998711
1570715508,2.082428,-9.492706,6.387924,-3.4881287,6.343582,1.3588562,-5.016865,-1.9233994,-13.998711
1570715508,2.082428,-9.492706,6.387924,-3.4881287,6.343582,1.3588562,-5.016865,-1.9233994,-13.998711
1570715508,2.082428,-9.492706,6.387924,-3.4881287,6.343582,1.3588562,-5.016865,-1.9233994,-13.998711
1570715508,2.082428,-9.492706,6.387924,-3.4881287,6.343582,1.3588562,-5.016865,-1.9233994,-13.998711
1570715508,2.082428,-9.492706,6.387924,-3.4881287,6.343582,1.3588562,-5.016865,-1.9233994,-13.998711
1570715508,2.082428,-9.492706,6.387924,-3.4881287,6.343582,1.3588562,-5.016865,-1.9233994,-13.998711
1570715508,2.082428,-9.492706,6.387924,-3.4881287,6.343582,1.3588562,-5.016865,-1.9233994,-13.998711
1570715508,2.082428,-9.492706,6.387924,-3.4881287,6.343582,1.3588562,-5.016865,-1.9233994,-13.998711
1570715508,2.082428,-9.492706,6.387924,-3.4881287,6.343582,1.3588562,-5.016865,-1.9233994,-13.998711
1570715508,2.082428,-9.492706,6.387924,-3.4881287,6.343582,1.3588562,-5.016865,-1.9233994,-13.998711
1570715508,2.082428,-9.492706,6.387924,-3.4881287,6.343582,1.3588562,-5.016865,-1.9233994,-13.998711
1570715508,2.082428,-9.492706,6.387924,-3.4881287,6.343582,1.3588562,-5.016865,-1.9233994,-13.998711
1570715508,2.082428,-9.492706,6.387924,-3.4881287,6.343582,1.3588562,-5.016865,-1.9233994,-13.998711
1570715508,2.082428,-9.492706,6.387924,-3.4881287,6.343582,1.3588562,-5.016865,-1.9233994,-13.998711
1570715508,2.082428,-9.492706,6.387924,-3.4881287,6.343582,1.3588562,-5.016865,-1.9233994,-13.998711
1570715508,2.082428,-9.492706,6.387924,-3.4881287,6.343582,1.3588562,-5.016865,-1.9233994,-13.998711
1570715508,2.082428,-9.492706,6.387924,-3.4881287,6.343582,1.3588562,-5.016865,-1.9233994,-13.998711
1570715508,2.082428,-9.492706,6.387924,-3.4881287,6.343582,1.3588562,-5.016865,-1.9233994,-13.998711
1570715508,2.082428,-9.492706,6.387924,-3.4881287,6.343582,1.3588562,-5.016865,-1.9233994,-13.998711
1570715508,2.082428,-9.492706,6.387924,-3.4881287,6.343582,1.3588562,-5.016865,-1.9233994,-13.998711
1570715508,2.082428,-9.492706,6.387924,-3.4881287,6.343582,1.3588562,-5.016865,-1.9233994,-13.998711
1570715508,2.082428,-9.492706,6.387924,-3.4881287,6.343582,1.3588562,-5.016865,-1.9233994,-13.998711
1570715508,2.082428,-9.492706,6.387924,-3.4881287,6.343582,1.3588562,-5.016865,-1.9233994,-13.998711
1570715508,2.082428,-9.492706,6.387924,-3.4881287,6.343582,1.3588562,-5.016865,-1.9233994,-13.998711
1570715508,2.082428,-9.492706,6.387924,-3.4881287,6.343582,1.3588562,-5.016865,-1.9233994,-13.998711
1570715508,2.082428,-9.492706,6.387924,-3.4881287,6.343582,1.3588562,-5.016865,-1.9233994,-13.998711
1570715508,2.082428,-9.492706,6.387924,-3.4881287,6.343582,1.3588562,-5.016865,-1.9233994,-13.998711
1570715508,2.082428,-9.492706,6.387924,-3.4881287,6.343582,1.3588562,-5.016865,-1.9233994,-13.998711
1570715508,2.082428,-9.492706,6.387924,-3.4881287,6.343582,1.3588562,-5.016865,-1.9233994,-13.998711
1570715508,2.082428,-9.492706,6.387924,-3.4881287,6.343582,1.3588562,-5.016865,-1.9233994,-13.998711
1570715508,2.082428,-9.492706,6.387924,-3.4881287,6.343582,1.3588562,-5.016865,-1.9233994,-13.998711
1570715508,2.082428,-9.492706,6.387924,-3.4881287,6.343582,1.3588562,-5.016865,-1.9233994,-13.998711
1570715508,2.082428,-9.492706,6.387924,-3.4881287,6.343582,1.3588562,-5.016865,-1.9233994,-13.998711
1570715508,2.082428,-9.492706,6.387924,-3.4881287,6.343582,1.3588562,-5.016865,-1.9233994,-13.998711
1570715508,2.082428,-9.492706,6.387924,-3.4881287,6.343582,1.3588562,-5.016865,-1.9233994,-13.998711
1570715508,2.082428,-9.492706,6.387924,-3.4881287,6.343582,1.3588562,-5.016865,-1.9233994,-13.998711
1570715508,2.082428,-9.492706,6.387924,-3.4881287,6.343582,1.3588562,-5.016865,-1.9233994,-13.998711
1570715508,2.082428,-9.492706,6.387924,-3.4881287,6.343582,1.3588562,-5.016865,-1.9233994,-13.998711
1570715508,2.082428,-9.492706,6.387924,-3.4881287,6.343582,1.3588562,-5.016865,-1.9233994,-13.998711
1570715508,2.082428,-9.492706,6.387924,-3.4881287,6.343582,1.3588562,-5.016865,-1.9233994,-13.998711
1570715508,2.082428,-9.492706,6.387924,-3.4881287,6.343582,1.3588562,-5.016865,-1.9233994,-13.998711
1570715508,2.082428,-9.492706,6.387924,-3.4881287,6.343582,1.3588562,-5.016865,-1.9233994,-13.998711
1570715508,2.082428,-9.492706,6.387924,-3.4881287,6.343582,1.3588562,-5.016865,-1.9233994,-13.998711
1570715508,2.082428,-9.492706,6.387924,-3.4881287,6.343582,1.3588562,-5.016865,-1.9233994,-13.998711
1570715508,2.082428,-9.492706,6.387924,-3.4881287,6.343582,1.3588562,-5.016865,-1.9233994,-13.998711
1570715508,2.082428,-9.492706,6.387924,-3.4881287,6.343582,1.3588562,-5.016865,-1.9233994,-13.998711
1570715508,2.082428,-9.492706,6.387924,-3.4881287,6.343582,1.3588562,-5.016865,-1.9233994,-13.998711
1570715508,2.082428,-9.492706,6.387924,-3.4881287,6.343582,1.3588562,-5.016865,-1.9233994,-13.998711
1570715508,2.082428,-9.492706,6.387924,-3.4881287,6.343582,1.3588562,-5.016865,-1.9233994,-13.998711
1570715508,2.082428,-9.492706,6.387924,-3.4881287,6.343582,1.3588562,-5.016865,-1.9233994,-13.998711
1570715508,2.082428,-9.492706,6.387924,-3.4881287,6.343582,1.3588562,-5.016865,-1.9233994,-13.998711
1570715508,2.082428,-9.492706,6.387924,-3.4881287,6.343582,1.3588562,-5.016865,-1.9233994,-13.998711
1570715508,2.082428,-9.492706,6.387924,-3.4881287,6.343582,1.3588562,-5.016865,-1.9233994,-13.998711
1570715508,2.082428,-9.492706,6.387924,-3.4881287,6.343582,1.3588562,-5.016865,-1.9233994,-13.998711
1570715508,2.082428,-9.492706,6.387924,-3.4881287,6.343582,1.3588562,-5.016865,-1.9233994,-13.998711
1570715508,2.082428,-9.492706,6.387924,-3.4881287,6.343582,1.3588562,-5.016865,-1.9233994,-13.998711
1570715508,2.082428,-9.492706,6.387924,-3.4881287,6.343582,1.3588562,-5.016865,-1.9233994,-13.998711
1570715508,2.082428,-9.492706,6.387924,-3.4881287,6.343582,1.3588562,-5.016865,-1.9233994,-13.998711
1570715508,2.082428,-9.492706,6.387924,-3.4881287,6.343582,1.3588562,-5.016865,-1.9233994,-13.998711
1570715508,2.082428,-9.492706,6.387924,-3.4881287,6.343582,1.3588562,-5.016865,-1.9233994,-13.998711
1570715508,2.082428,-9.492706,6.387924,-3.4881287,6.343582,1.3588562,-5.016865,-1.9233994,-13.998711
1570715508,2.082428,-9.492706,6.387924,-3.4881287,6.343582,1.3588562,-5.016865,-1.9233994,-13.998711
1570715508,2.082428,-9.492706,6.387924,-3.4881287,6.343582,1.3588562,-5.016865,-1.9233994,-13.998711
1570715508,2.082428,-9.492706,6.387924,-3.4881287,6.343582,1.3588562,-5.016865,-1.9233994,-13.998711
1570715508,2.082428,-9.492706,6.387924,-3.4881287,6.343582,1.3588562,-5.016865,-1.9233994,-13.998711
1570715508,2.082428,-9.492706,6.387924,-3.4881287,6.343582,1.3588562,-5.016865,-1.9233994,-13.998711
1570715508,2.082428,-9.492706,6.387924,-3.4881287,6.343582,1.3588562,-5.016865,-1.9233994,-13.998711
1570715508,2.082428,-9.492706,6.387924,-3.4881287,6.343582,1.3588562,-5.016865,-1.9233994,-13.998711
1570715508,2.082428,-9.492706,6.387924,-3.4881287,6.343582,1.3588562,-5.016865,-1.9233994,-13.998711
1570715508,2.082428,-9.492706,6.387924,-3.4881287,6.343582,1.3588562,-5.016865,-1.9233994,-13.998711
1570715508,2.082428,-9.492706,6.387924,-3.4881287,6.343582,1.3588562,-5.016865,-1.9233994,-13.998711
1570715508,2.082428,-9.492706,6.387924,-3.4881287,6.343582,1.3588562,-5.016865,-1.9233994,-13.998711
1570715508,2.082428,-9.492706,6.387924,-3.4881287,6.343582,1.3588562,-5.016865,-1.9233994,-13.998711
1570715508,2.082428,-9.492706,6.387924,-3.4881287,6.343582,1.3588562,-5.016865,-1.9233994,-13.998711
1570715508,2.082428,-9.492706,6.387924,-3.4881287,6.343582,1.3588562,-5.016865,-1.9233994,-13.998711
1570715508,2.082428,-9.492706,6.387924,-3.4881287,6.343582,1.3588562,-5.016865,-1.9233994,-13.998711
1570715508,2.082428,-9.492706,6.387924,-3.4881287,6.343582,1.3588562,-5.016865,-1.9233994,-13.998711
1570715508,2.082428,-9.492706,6.387924,-3.4881287,6.343582,1.3588562,-5.016865,-1.9233994,-13.998711
1570715508,2.082428,-9.492706,6.387924,-3.4881287,6.343582,1.3588562,-5.016865,-1.9233994,-13.998711
1570715508,2.082428,-9.492706,6.387924,-3.4881287,6.343582,1.3588562,-5.016865,-1.9233994,-13.998711
1570715508,2.082428,-9.492706,6.387924,-3.4881287,6.343582,1.3588562,-5.016865,-1.9233994,-13.998711
1570715508,2.082428,-9.492706,6.387924,-3.4881287,6.343582,1.3588562,-5.016865,-1.9233994,-13.998711
1570715508,2.082428,-9.492706,6.387924,-3.4881287,6.343582,1.3588562,-5.016865,-1.9233994,-13.998711
1570715508,2.082428,-9.492706,6.387924,-3.4881287,6.343582,1.3588562,-5.016865,-1.9233994,-13.998711
1570715508,2.082428,-9.492706,6.387924,-3.4881287,6.343582,1.3588562,-5.016865,-1.9233994,-13.998711
1570715508,2.082428,-9.492706,6.387924,-3.4881287,6.343582,1.3588562,-5.016865,-1.9233994,-13.998711
1570715508,2.082428,-9.492706,6.387924,-3.4881287,6.343582,1.3588562,-5.016865,-1.9233994,-13.998711
1570715508,2.082428,-9.492706,6.387924,-3.4881287,6.343582,1.3588562,-5.016865,-1.9233994,-13.998711
1570715508,2.082428,-9.492706,6.387924,-3.4881287,6.343582,1.3588562,-5.016865,-1.9233994,-13.998711
1570715508,2.082428,-9.492706,6.387924,-3.4881287,6.343582,1.3588562,-5.016865,-1.9233994,-13.998711
1570715508,2.082428,-9.492706,6.387924,-3.4881287,6.343582,1.3588562,-5.016865,-1.9233994,-13.998711
1570715508,2.082428,-9.492706,6.387924,-3.4881287,6.343582,1.3588562,-5.016865,-1.9233994,-13.998711
1570715508,2.082428,-9.492706,6.387924,-3.4881287,6.343582,1.3588562,-5.016865,-1.9233994,-13.998711
1570715508,2.082428,-9.492706,6.387924,-3.4881287,6.343582,1.3588562,-5.016865,-1.9233994,-13.998711
1570715508,2.082428,-9.492706,6.387924,-3.4881287,6.343582,1.3588562,-5.016865,-1.9233994,-13.998711
1570715508,2.082428,-9.492706,6.387924,-3.4881287,6.343582,1.3588562,-5.016865,-1.9233994,-13.998711
1570715508,2.082428,-9.492706,6.387924,-3.4881287,6.343582,1.3588562,-5.016865,-1.9233994,-13.998711
1570715508,2.082428,-9.492706,6.387924,-3.4881287,6.343582,1.3588562,-5.016865,-1.9233994,-13.998711
1570715508,2.082428,-9.492706,6.387924,-3.4881287,6.343582,1.3588562,-5.016865,-1.9233994,-13.998711
1570715508,2.082428,-9.492706,6.387924,-3.4881287,6.343582,1.3588562,-5.016865,-1.9233994,-13.998711
1570715508,2.082428,-9.492706,6.387924,-3.4881287,6.343582,1.3588562,-5.016865,-1.9233994,-13.998711
1570715508,2.082428,-9.492706,6.387924,-3.4881287,6.343582,1.3588562,-5.016865,-1.9233994,-13.998711
1570715508,2.082428,-9.492706,6.387924,-3.4881287,6.343582,1.3588562,-5.016865,-1.9233994,-13.998711
1570715508,2.082428,-9.492706,6.387924,-3.4881287,6.343582,1.3588562,-5.016865,-1.9233994,-13.998711
1570715508,2.082428,-9.492706,6.387924,-3.4881287,6.343582,1.3588562,-5.016865,-1.9233994,-13.998711
1570715508,2.082428,-9.492706,6.387924,-3.4881287,6.343582,1.3588562,-5.016865,-1.9233994,-13.998711
1570715508,2.082428,-9.492706,6.387924,-3.4881287,6.343582,1.3588562,-5.016865,-1.9233994,-13.998711
1570715508,2.082428,-9.492706,6.387924,-3.4881287,6.343582,1.3588562,-5.016865,-1.9233994,-13.998711
1570715508,2.082428,-9.492706,6.387924,-3.4881287,6.343582,1.3588562,-5.016865,-1.9233994,-13.998711
1570715508,2.082428,-9.492706,6.387924,-3.4881287,6.343582,1.3588562,-5.016865,-1.9233994,-13.998711
1570715508,2.082428,-9.492706,6.387924,-3.4881287,6.343582,1.3588562,-5.016865,-1.9233994,-13.998711
1570715508,2.082428,-9.492706,6.387924,-3.4881287,6.343582,1.3588562,-5.016865,-1.9233994,-13.998711
1570715508,2.082428,-9.492706,6.387924,-3.4881287,6.343582,1.3588562,-5.016865,-1.9233994,-13.998711
1570715508,2.082428,-9.492706,6.387924,-3.4881287,6.343582,1.3588562,-5.016865,-1.9233994,-13.998711
1570715508,2.082428,-9.492706,6.387924,-3.4881287,6.343582,1.3588562,-5.016865,-1.9233994,-13.998711
1570715508,2.082428,-9.492706,6.387924,-3.4881287,6.343582,1.3588562,-5.016865,-1.9233994,-13.998711
1570715508,2.082428,-9.492706,6.387924,-3.4881287,6.343582,1.3588562,-5.016865,-1.9233994,-13.998711
1570715508,2.082428,-9.492706,6.387924,-3.4881287,6.343582,1.3588562,-5.016865,-1.9233994,-13.998711
1570715508,2.082428,-9.492706,6.387924,-3.4881287,6.343582,1.3588562,-5.016865,-1.9233994,-13.998711
1570715508,2.082428,-9.492706,6.387924,-3.4881287,6.343582,1.3588562,-5.016865,-1.9233994,-13.998711
1570715508,2.082428,-9.492706,6.387924,-3.4881287,6.343582,1.3588562,-5.016865,-1.9233994,-13.998711
1570715508,2.082428,-9.492706,6.387924,-3.4881287,6.343582,1.3588562,-5.016865,-1.9233994,-13.998711
1570715508,2.082428,-9.492706,6.387924,-3.4881287,6.343582,1.3588562,-5.016865,-1.9233994,-13.998711
1570715508,2.082428,-9.492706,6.387924,-3.4881287,6.343582,1.3588562,-5.016865,-1.9233994,-13.998711
1570715508,2.082428,-9.492706,6.387924,-3.4881287,6.343582,1.3588562,-5.016865,-1.9233994,-13.998711
1570715508,2.082428,-9.492706,6.387924,-3.4881287,6.343582,1.3588562,-5.016865,-1.9233994,-13.998711
1570715508,2.082428,-9.492706,6.387924,-3.4881287,6.343582,1.3588562,-5.016865,-1.9233994,-13.998711
1570715508,2.082428,-9.492706,6.387924,-3.4881287,6.343582,1.3588562,-5.016865,-1.9233994,-13.998711
1570715508,2.082428,-9.492706,6.387924,-3.4881287,6.343582,1.3588562,-5.016865,-1.9233994,-13.998711
1570715508,2.082428,-9.492706,6.387924,-3.4881287,6.343582,1.3588562,-5.016865,-1.9233994,-13.998711
1570715508,2.082428,-9.492706,6.387924,-3.4881287,6.343582,1.3588562,-5.016865,-1.9233994,-13.998711
1570715508,2.082428,-9.492706,6.387924,-3.4881287,6.343582,1.3588562,-5.016865,-1.9233994,-13.998711
1570715508,2.082428,-9.492706,6.387924,-3.4881287,6.343582,1.3588562,-5.016865,-1.9233994,-13.998711
1570715508,2.082428,-9.492706,6.387924,-3.4881287,6.343582,1.3588562,-5.016865,-1.9233994,-13.998711
1570715508,2.082428,-9.492706,6.387924,-3.4881287,6.343582,1.3588562,-5.016865,-1.9233994,-13.998711
1570715508,2.082428,-9.492706,6.387924,-3.4881287,6.343582,1.3588562,-5.016865,-1.9233994,-13.998711
1570715508,2.082428,-9.492706,6.387924,-3.4881287,6.343582,1.3588562,-5.016865,-1.9233994,-13.998711
1570715508,2.082428,-9.492706,6.387924,-3.4881287,6.343582,1.3588562,-5.016865,-1.9233994,-13.998711
1570715508,2.082428,-9.492706,6.387924,-3.4881287,6.343582,1.3588562,-5.016865,-1.9233994,-13.998711
1570715508,2.082428,-9.492706,6.387924,-3.4881287,6.343582,1.3588562,-5.016865,-1.9233994,-13.998711
1570715508,2.082428,-9.492706,6.387924,-3.4881287,6.343582,1.3588562,-5.016865,-1.9233994,-13.998711
1570715508,2.082428,-9.492706,6.387924,-3.4881287,6.343582,1.3588562,-5.016865,-1.9233994,-13.998711
1570715508,2.082428,-9.492706,6.387924,-3.4881287,6.343582,1.3588562,-5.016865,-1.9233994,-13.998711
1570715508,2.082428,-9.492706,6.387924,-3.4881287,6.343582,1.3588562,-5.016865,-1.9233994,-13.998711
1570715508,2.082428,-9.492706,6.387924,-3.4881287,6.343582,1.3588562,-5.016865,-1.9233994,-13.998711
1570715508,2.082428,-9.492706,6.387924,-3.4881287,6.343582,1.3588562,-5.016865,-1.9233994,-13.998711
1570715508,2.082428,-9.492706,6.387924,-3.4881287,6.343582,1.3588562,-5.016865,-1.9233994,-13.998711
1570715508,2.082428,-9.492706,6.387924,-3.4881287,6.343582,1.3588562,-5.016865,-1.9233994,-13.998711
1570715508,2.082428,-9.492706,6.387924,-3.4881287,6.343582,1.3588562,-5.016865,-1.9233994,-13.998711
1570715508,2.082428,-9.492706,6.387924,-3.4881287,6.343582,1.3588562,-5.016865,-1.9233994,-13.998711
1570715508,2.082428,-9.492706,6.387924,-3.4881287,6.343582,1.3588562,-5.016865,-1.9233994,-13.998711
1570715508,2.082428,-9.492706,6.387924,-3.4881287,6.343582,1.3588562,-5.016865,-1.9233994,-13.998711
1570715508,2.082428,-9.492706,6.387924,-3.4881287,6.343582,1.3588562,-5.016865,-1.9233994,-13.998711
1570715508,2.082428,-9.492706,6.387924,-3.4881287,6.343582,1.3588562,-5.016865,-1.9233994,-13.998711
1570715508,2.082428,-9.492706,6.387924,-3.4881287,6.343582,1.3588562,-5.016865,-1.9233994,-13.998711
1570715508,2.082428,-9.492706,6.387924,-3.4881287,6.343582,1.3588562,-5.016865,-1.9233994,-13.998711
1570715508,2.082428,-9.492706,6.387924,-3.4881287,6.343582,1.3588562,-5.016865,-1.9233994,-13.998711
1570715508,2.082428,-9.492706,6.387924,-3.4881287,6.343582,1.3588562,-5.016865,-1.9233994,-13.998711
1570715508,2.082428,-9.492706,6.387924,-3.4881287,6.343582,1.3588562,-5.016865,-1.9233994,-13.998711
1570715508,2.082428,-9.492706,6.387924,-3.4881287,6.343582,1.3588562,-5.016865,-1.9233994,-13.998711
1570715508,2.082428,-9.492706,6.387924,-3.4881287,6.343582,1.3588562,-5.016865,-1.9233994,-13.998711
1570715508,2.082428,-9.492706,6.387924,-3.4881287,6.343582,1.3588562,-5.016865,-1.9233994,-13.998711
1570715508,2.082428,-9.492706,6.387924,-3.4881287,6.343582,1.3588562,-5.016865,-1.9233994,-13.998711
1570715508,2.082428,-9.492706,6.387924,-3.4881287,6.343582,1.3588562,-5.016865,-1.9233994,-13.998711
1570715508,2.082428,-9.492706,6.387924,-3.4881287,6.343582,1.3588562,-5.016865,-1.9233994,-13.998711
1570715508,2.082428,-9.492706,6.387924,-3.4881287,6.343582,1.3588562,-5.016865,-1.9233994,-13.998711
1570715508,2.082428,-9.492706,6.387924,-3.4881287,6.343582,1.3588562,-5.016865,-1.9233994,-13.998711
1570715508,2.082428,-9.492706,6.387924,-3.4881287,6.343582,1.3588562,-5.016865,-1.9233994,-13.998711
1570715508,2.082428,-9.492706,6.387924,-3.4881287,6.343582,1.3588562,-5.016865,-1.9233994,-13.998711
1570715508,2.082428,-9.492706,6.387924,-3.4881287,6.343582,1.3588562,-5.016865,-1.9233994,-13.998711
1570715508,2.082428,-9.492706,6.387924,-3.4881287,6.343582,1.3588562,-5.016865,-1.9233994,-13.998711
1570715508,2.082428,-9.492706,6.387924,-3.4881287,6.343582,1.3588562,-5.016865,-1.9233994,-13.998711
1570715508,2.082428,-9.492706,6.387924,-3.4881287,6.343582,1.3588562,-5.016865,-1.9233994,-13.998711
1570715508,2.082428,-9.492706,6.387924,-3.4881287,6.343582,1.3588562,-5.016865,-1.9233994,-13.998711
1570715508,2.082428,-9.492706,6.387924,-3.4881287,6.343582,1.3588562,-5.016865,-1.9233994,-13.998711
1570715508,2.082428,-9.492706,6.387924,-3.4881287,6.343582,1.3588562,-5.016865,-1.9233994,-13.998711
1570715508,2.082428,-9.492706,6.387924,-3.4881287,6.343582,1.3588562,-5.016865,-1.9233994,-13.998711
1570715508,2.082428,-9.492706,6.387924,-3.4881287,6.343582,1.3588562,-5.016865,-1.9233994,-13.998711
1570715508,2.082428,-9.492706,6.387924,-3.4881287,6.343582,1.3588562,-5.016865,-1.9233994,-13.998711
1570715508,2.082428,-9.492706,6.387924,-3.4881287,6.343582,1.3588562,-5.016865,-1.9233994,-13.998711
1570715508,2.082428,-9.492706,6.387924,-3.4881287,6.343582,1.3588562,-5.016865,-1.9233994,-13.998711
1570715508,2.082428,-9.492706,6.387924,-3.4881287,6.343582,1.3588562,-5.016865,-1.9233994,-13.998711
1570715508,2.082428,-9.492706,6.387924,-3.4881287,6.343582,1.3588562,-5.016865,-1.9233994,-13.998711
1570715508,2.082428,-9.492706,6.387924,-3.4881287,6.343582,1.3588562,-5.016865,-1.9233994,-13.998711
1570715508,2.082428,-9.492706,6.387924,-3.4881287,6.343582,1.3588562,-5.016865,-1.9233994,-13.998711
1570715508,2.082428,-9.492706,6.387924,-3.4881287,6.343582,1.3588562,-5.016865,-1.9233994,-13.998711
1570715508,2.082428,-9.492706,6.387924,-3.4881287,6.343582,1.3588562,-5.016865,-1.9233994,-13.998711
1570715508,2.082428,-9.492706,6.387924,-3.4881287,6.343582,1.3588562,-5.016865,-1.9233994,-13.998711
1570715508,2.082428,-9.492706,6.387924,-3.4881287,6.343582,1.3588562,-5.016865,-1.9233994,-13.998711
1570715508,2.082428,-9.492706,6.387924,-3.4881287,6.343582,1.3588562,-5.016865,-1.9233994,-13.998711
1570715508,2.082428,-9.492706,6.387924,-3.4881287,6.343582,1.3588562,-5.016865,-1.9233994,-13.998711
1570715508,2.082428,-9.492706,6.387924,-3.4881287,6.343582,1.3588562,-5.016865,-1.9233994,-13.998711
1570715508,2.082428,-9.492706,6.387924,-3.4881287,6.343582,1.3588562,-5.016865,-1.9233994,-13.998711
1570715508,2.082428,-9.492706,6.387924,-3.4881287,6.343582,1.3588562,-5.016865,-1.9233994,-13.998711
1570715508,2.082428,-9.492706,6.387924,-3.4881287,6.343582,1.3588562,-5.016865,-1.9233994,-13.998711
1570715508,2.082428,-9.492706,6.387924,-3.4881287,6.343582,1.3588562,-5.016865,-1.9233994,-13.998711
1570715508,2.082428,-9.492706,6.387924,-3.4881287,6.343582,1.3588562,-5.016865,-1.9233994,-13.998711
1570715508,2.082428,-9.492706,6.387924,-3.4881287,6.343582,1.3588562,-5.016865,-1.9233994,-13.998711
1570715508,2.082428,-9.492706,6.387924,-3.4881287,6.343582,1.3588562,-5.016865,-1.9233994,-13.998711
1570715508,2.082428,-9.492706,6.387924,-3.4881287,6.343582,1.3588562,-5.016865,-1.9233994,-13.998711
1570715508,2.082428,-9.492706,6.387924,-3.4881287,6.343582,1.3588562,-5.016865,-1.9233994,-13.998711
1570715508,2.082428,-9.492706,6.387924,-3.4881287,6.343582,1.3588562,-5.016865,-1.9233994,-13.998711
1570715508,2.082428,-9.492706,6.387924,-3.4881287,6.343582,1.3588562,-5.016865,-1.9233994,-13.998711
1570715508,2.082428,-9.492706,6.387924,-3.4881287,6.343582,1.3588562,-5.016865,-1.9233994,-13.998711
1570715508,2.082428,-9.492706,6.387924,-3.4881287,6.343582,1.3588562,-5.016865,-1.9233994,-13.998711
1570715508,2.082428,-9.492706,6.387924,-3.4881287,6.343582,1.3588562,-5.016865,-1.9233994,-13.998711
1570715508,2.082428,-9.492706,6.387924,-3.4881287,6.343582,1.3588562,-5.016865,-1.9233994,-13.998711
1570715508,2.082428,-9.492706,6.387924,-3.4881287,6.343582,1.3588562,-5.016865,-1.9233994,-13.998711
1570715508,2.082428,-9.492706,6.387924,-3.4881287,6.343582,1.3588562,-5.016865,-1.9233994,-13.998711
1570715508,2.082428,-9.492706,6.387924,-3.4881287,6.343582,1.3588562,-5.016865,-1.9233994,-13.998711
1570715508,2.082428,-9.492706,6.387924,-3.4881287,6.343582,1.3588562,-5.016865,-1.9233994,-13.998711
1570715508,2.082428,-9.492706,6.387924,-3.4881287,6.343582,1.3588562,-5.016865,-1.9233994,-13.998711
1570715508,2.082428,-9.492706,6.387924,-3.4881287,6.343582,1.3588562,-5.016865,-1.9233994,-13.998711
1570715508,2.082428,-9.492706,6.387924,-3.4881287,6.343582,1.3588562,-5.016865,-1.9233994,-13.998711
1570715508,2.082428,-9.492706,6.387924,-3.4881287,6.343582,1.3588562,-5.016865,-1.9233994,-13.998711
1570715508,2.082428,-9.492706,6.387924,-3.4881287,6.343582,1.3588562,-5.016865,-1.9233994,-13.998711
1570715508,2.082428,-9.492706,6.387924,-3.4881287,6.343582,1.3588562,-5.016865,-1.9233994,-13.998711
1570715508,2.082428,-9.492706,6.387924,-3.4881287,6.343582,1.3588562,-5.016865,-1.9233994,-13.998711
1570715508,2.082428,-9.492706,6.387924,-3.4881287,6.343582,1.3588562,-5.016865,-1.9233994,-13.998711
1570715508,2.082428,-9.492706,6.387924,-3.4881287,6.343582,1.3588562,-5.016865,-1.9233994,-13.998711
1570715508,2.082428,-9.492706,6.387924,-3.4881287,6.343582,1.3588562,-5.016865,-1.9233994,-13.998711
1570715508,2.082428,-9.492706,6.387924,-3.4881287,6.343582,1.3588562,-5.016865,-1.9233994,-13.998711
1570715508,2.082428,-9.492706,6.387924,-3.4881287,6.343582,1.3588562,-5.016865,-1.9233994,-13.998711
1570715508,2.082428,-9.492706,6.387924,-3.4881287,6.343582,1.3588562,-5.016865,-1.9233994,-13.998711
1570715508,2.082428,-9.492706,6.387924,-3.4881287,6.343582,1.3588562,-5.016865,-1.9233994,-13.998711
1570715508,2.082428,-9.492706,6.387924,-3.4881287,6.343582,1.3588562,-5.016865,-1.9233994,-13.998711
1570715508,2.082428,-9.492706,6.387924,-3.4881287,6.343582,1.3588562,-5.016865,-1.9233994,-13.998711
1570715508,2.082428,-9.492706,6.387924,-3.4881287,6.343582,1.3588562,-5.016865,-1.9233994,-13.998711
1570715508,2.082428,-9.492706,6.387924,-3.4881287,6.343582,1.3588562,-5.016865,-1.9233994,-13.998711
1570715508,2.082428,-9.492706,6.387924,-3.4881287,6.343582,1.3588562,-5.016865,-1.9233994,-13.998711
1570715508,2.082428,-9.492706,6.387924,-3.4881287,6.343582,1.3588562,-5.016865,-1.9233994,-13.998711
1570715508,2.082428,-9.492706,6.387924,-3.4881287,6.343582,1.3588562,-5.016865,-1.9233994,-13.998711
1570715508,2.082428,-9.492706,6.387924,-3.4881287,6.343582,1.3588562,-5.016865,-1.9233994,-13.998711
1570715508,2.082428,-9.492706,6.387924,-3.4881287,6.343582,1.3588562,-5.016865,-1.9233994,-13.998711
1570715508,2.082428,-9.492706,6.387924,-3.4881287,6.343582,1.3588562,-5.016865,-1.9233994,-13.998711
1570715508,2.082428,-9.492706,6.387924,-3.4881287,6.343582,1.3588562,-5.016865,-1.9233994,-13.998711
