time,ax,ay,az,gx,gy,gz,la_x,la_y,la_z,fox,foy,foz
1570715473,-8.75799,-3.892972,-0.7517793,-0.93000424,1.022685,0.3078708,-1.0726024,1.9249382,1.0390835
1570715473,-8.968679,-3.8977604,-0.7757214,-0.47725302,0.6881818,0.12357444,-1.2641385,1.934515,1.4413095
1570715473,-8.599973,-4.4580035,-1.3982137,-0.30467492,0.31745848,0.21838588,-1.1827357,1.5658079,0.92895025
1570715473,-7.0724716,-5.875371,-1.7238252,-0.36539686,0.23010413,0.017044751,0.17238252,-0.29688102,0.8858546
1570715473,-7.469909,-5.33907,-2.1068976,0.3078708,0.7979074,-0.39948636,0.23942018,0.38307226,0.4165911
1570715473,-7.8290396,-5.4204726,-2.4468741,0.4889713,1.1419983,-0.4953631,-0.34476504,0.36870706,0.12928689
1570715473,-7.9248075,-3.2944214,-1.6089035,0.4889713,1.2037855,0.089484945,-1.067814,2.231396,0.78050977
1570715473,-6.3206925,-4.1659107,-0.019153614,0.28549957,0.64663523,-0.06178722,0.94810385,1.7381904,2.8778305
1570715473,-7.335834,-5.2959743,-2.8203697,0.4516859,0.46233886,-0.77766675,-0.17238252,0.5363012,0.29688102
1570715473,-6.4164605,-4.3957543,-1.6089035,0.3856375,0.56673795,-0.8650211,0.5363012,1.8579005,1.340753
1570715473,-5.7365074,-4.663905,-1.7860745,0.43357584,0.040481284,-1.0674275,1.0103531,1.8100165,1.1540052
1570715473,-5.722142,-5.7604494,-4.074931,1.072754,0.15659864,-1.6054025,0.7565677,1.0534488,-1.292869
1570715473,-8.025364,-7.177817,-4.55856,0.5241261,0.92148185,-1.8972938,-2.0015526,0.05267244,-1.7956513
1570715473,-5.353435,-5.9280434,-3.3854012,0.63065577,1.2964664,-2.27867,0.110133275,1.70946,-0.5650316
1570715473,-4.3143516,-7.0581064,-2.4420857,0.6828553,-0.1736434,-1.4019308,0.6895301,0.90500826,0.32561144
1570715473,-5.032612,-7.991845,-3.9025488,1.2506586,-0.15340276,-1.5979455,-0.36391866,0.2681506,-1.4221559
1570715473,-3.916914,-9.988609,-2.4277205,1.5745089,0.6913777,-1.6171207,0.31124622,-1.4030021,-0.2825158
1570715473,-2.408567,-12.483368,-0.01436521,1.0407951,-0.26312834,-1.0770152,1.4460979,-3.6535518,1.8243817
1570715473,-4.55856,-14.331692,-2.2601264,0.28869548,0.36433154,-0.7265325,-0.91458505,-5.377377,-0.59855044
1570715473,-2.8443117,-14.4370365,-2.2409728,-0.04900366,0.2056023,0.35687447,1.4317327,-5.0421886,0.56982
1570715473,-6.9527617,-9.562442,-0.1436521,-0.29615256,0.8639558,0.37391922,-3.2561142,-0.6560113,1.6663644
1570715474,-2.3463178,-8.37013,-0.92895025,-0.11079088,-0.4218576,-0.49749365,1.2114661,0.5793968,0.90021986
1570715474,-3.5434184,-9.006987,-4.4340615,-0.22584295,-0.1384886,-0.12570503,-0.009576807,-0.047884032,-2.5617957
1570715474,-2.3511062,-9.165004,-2.183512,0.07883197,-0.14807628,-0.18536167,1.1252748,-0.17238252,-0.39743748
1570715474,-2.1787236,-9.294291,-1.8531121,0.243953,-0.09694202,-0.07776668,1.3503298,-0.34476504,-0.23942018
1570715474,-1.2401965,-7.479486,-1.8914193,0.11185618,-0.06604841,-0.011718267,2.3127987,1.4891934,-0.15322891
1570715474,-2.5761611,-6.26802,-0.9672575,1.2048508,-0.24714889,-0.3057402,0.61770403,3.7253778,-2.0207062
1570715474,-3.845088,-9.203311,-1.2066777,1.0407951,-0.33556855,-0.7659485,-0.5554548,0.45968673,-0.07182605
1570715474,-3.4237084,-8.90643,-0.60333884,1.162239,-0.50388545,-0.87567407,0.095768064,0.5410896,-0.07182605
1570715474,-3.1842883,-9.107543,-1.0390835,0.47512242,-0.33237264,-1.1270841,-0.6607997,0.34476504,-0.1340753
1570715474,-1.4030021,-8.1881695,-1.0103531,-0.25141007,0.18429637,-0.6551576,1.2258313,1.1444284,-0.17238252
1570715474,-1.9919758,-9.3182335,-0.91458505,-0.556085,0.19921052,-0.045807768,0.7757214,0.23463176,-0.14844051
1570715474,-2.9975405,-10.362105,-1.541866,-0.60508865,0.18749227,-0.0063917814,-0.40701428,-0.9528923,-0.5554548
1570715474,-2.0446482,-9.313444,-1.283292,-0.36326626,0.14594568,-0.26632422,0.25378537,0.05746084,-0.18674773
1570715474,-1.7669208,-7.8290396,-1.1587936,-0.05113425,-0.17896989,-0.10013791,0.7613561,0.9672575,0.15801731
1570715474,-2.954445,-10.366894,-1.8195933,-0.033024207,-0.19068815,0.045807768,-0.44532153,-0.25378537,-0.36870706
1570715474,-2.336741,-8.844181,-0.50757074,0.15659864,-0.044742472,-0.21732058,0.29209262,2.719813,0.45489833
1570715474,-3.107674,-10.879252,-1.0630256,0.7222713,-0.243953,-0.30467492,-0.8331822,-2.8299465,-0.36391866
1570715474,-2.3750482,-10.788273,-0.82360536,0.41226992,-0.32811147,-0.2801731,-0.05746084,-1.2018893,0.22984336
1570715474,-1.7956513,-9.188946,-1.532289,-0.014914157,-0.32811147,-0.15872924,0.45489833,-0.14844051,-0.6799533
1570715474,-0.4405331,-8.552089,-1.8626889,-0.36113566,-0.43570644,0.067113705,1.5275006,0.6512229,-1.0247183
1570715474,-3.265691,-10.386047,-1.733402,0.1022685,-0.54543203,-0.25247538,-1.388637,-1.982399,-0.8331822
1570715474,-3.5194764,-9.56723,-1.2593501,0.25780186,-0.37391922,-0.25673655,-1.2114661,-0.14844051,-0.62728083
1570715474,-3.3901896,-9.739613,-1.1252748,0.022371236,-0.46979594,-0.13422741,-1.1252748,-0.25378537,-0.24899697
1570715474,-3.9983168,-10.079589,-2.0685902,-0.34089503,-0.60934985,0.009587673,-1.6136919,-0.5554548,-1.1587936
1570715474,-4.4963107,-9.255983,-2.992752,-0.3462215,-0.6210681,0.046873067,-2.1691468,0.23463176,-2.183512
1570715474,-4.4196963,-9.030929,-2.0638018,-0.020240642,-0.7169448,-0.094811425,-2.0207062,0.5793968,-1.412579
1570715474,-4.19943,-8.810662,-1.757344,-0.18216577,-1.0099015,0.009587673,-1.9488802,0.51714754,-0.7613561
1570715474,-4.237737,-8.149862,-2.2936451,-0.23223473,-1.1398677,0.035154797,-1.8674773,1.3359646,-1.5370775
1570715474,-4.084508,-7.6135616,-2.087744,-0.40055165,-0.8309316,0.05219955,-1.9057846,2.0207062,-1.3838485
1570715474,-2.8538885,-8.001422,-2.3989902,-0.3781804,-0.8607599,0.0,-0.4213795,1.460463,-1.5753847
1570715474,-1.6519991,-8.78672,-2.2457612,-0.40481284,-0.89165354,-0.011718267,0.79487497,0.6655881,-1.3790601
1570715474,-1.6519991,-8.834604,-1.8626889,-0.44209823,-0.96409374,0.017044751,0.81881696,0.60812724,-0.94331545
1570715474,-2.3319526,-8.111555,-2.303222,-0.57952154,-0.9236124,0.19388404,0.19632454,1.3072342,-1.3120226
1570715474,-2.8443117,-7.5848308,-2.7246015,-0.7552955,-0.7563608,0.37285393,-0.19632454,1.7908629,-1.6041151
1570715475,-3.0454245,-8.12592,-2.408567,-0.92148185,-0.65089643,0.36752746,-0.2633622,1.1875241,-1.1061212
1570715475,-3.2752678,-8.24563,-2.5953147,-1.1899366,-0.63917816,0.33556855,-0.36870706,0.9911995,-1.043872
1570715475,-4.999093,-7.881712,-2.6719291,-1.1398677,-0.81495214,0.204537,-1.9871874,1.2737153,-0.8571242
1570715475,-6.1195793,-7.4842744,-3.7110126,-0.9832691,-1.0099015,0.092680834,-2.9879637,1.5705963,-1.4317327
1570715475,-6.2967505,-8.930372,-4.654328,-0.9033718,-0.98007315,-0.10972559,-3.1986535,0.6512229,-2.3558946
1570715475,-5.5497594,-8.42759,-6.181829,-0.8639558,-0.6189375,-0.4932325,-2.4468741,0.5793968,-3.8546648
1570715475,-5.6120086,-6.229713,-6.679823,-0.8596946,-0.42718408,-0.8426499,-2.60968,2.2505496,-4.0078936
1570715475,-6.727707,-5.281609,-6.3302693,-0.43144527,-0.5017549,-1.0951252,-4.036624,3.9264908,-3.9456444
1570715475,-3.6008794,-8.724471,-4.295198,-0.10972559,-0.6125457,-1.2059162,-2.2218192,1.2066777,-2.2218192
1570715475,1.5753847,-12.904747,-4.2760444,0.44849002,0.26419365,-0.96089786,3.9935284,-6.38773,-1.292869
1570715475,0.50757074,-5.2768207,-4.477157,0.026632423,1.9899746,-0.7797974,2.7246015,4.1036615,-1.9728222
1570715475,-2.0590134,-16.151285,-1.0295067,0.41866168,2.0187378,-0.5784562,0.19153613,-5.1235914,1.6472107
1570715475,1.6041151,-10.132261,-1.8674773,1.0173585,2.145508,-0.527322,1.2593501,-1.7956513,0.58897364
1570715475,3.3279405,-11.923124,-3.8163576,1.2527891,2.507709,-0.99818325,4.927267,-1.7621324,-1.3120226
1570715475,-1.910573,-12.904747,-5.602432,1.4115185,2.9838967,-1.191002,-0.5793968,-3.3758245,-3.739743
1570715475,-5.521029,-13.024457,-7.493851,1.6991487,3.2161314,-1.4956769,-4.9559975,-2.954445,-5.6790466
1570715475,-5.0900726,-16.151285,-7.2065473,1.7172587,2.317021,-1.7161933,-6.4068837,-6.469133,-5.722142
1570715475,-3.2561142,-16.759413,-6.220136,1.7151281,1.7023445,-2.4938602,-4.7500963,-6.9144545,-5.5641246
1570715475,-8.7292595,-13.479356,-5.568913,1.9004897,1.1995244,-2.3298044,-10.309433,-4.4196963,-5.4779334
1570715475,-2.6384103,-5.1906295,-4.237737,1.7119322,0.29189137,-1.5809007,-6.196194,3.5434184,-7.6710224
1570715475,-5.793968,-4.4963107,-0.9768343,0.42718408,-0.47725302,-1.1941979,-7.943961,0.7422025,-2.5091233
1570715475,-11.899182,6.564901,0.94331545,-1.2815522,-1.815266,-0.045807768,-15.260642,15.337256,0.38307226
1570715475,-7.9152308,8.8777,-8.1402855,-1.8706614,-3.4515622,0.886327,-11.089942,18.152838,-8.355764
1570715475,1.0821792,5.6120086,-6.5457473,-1.6096637,-3.1096017,1.7428257,-1.6950948,14.997279,-6.0142345
1570715475,2.9352913,-5.889736,-2.1308396,-1.8972938,-2.5375373,2.6675036,0.842759,3.6056678,-0.8810662
1570715475,6.3063273,-23.324312,-12.301409,-2.7644455,-3.9330764,3.8158937,4.8506527,-10.376471,-5.1906295
1570715475,1.6711528,-38.47003,-6.5601125,-1.8525513,-1.0099015,5.2039757,2.2218192,-29.075186,-3.787627
1570715475,-9.682152,-9.888053,1.9967642,-3.5538306,-2.2946496,2.762315,-7.9822683,-0.8331822,5.3582234
1570715475,-15.519216,-27.77274,-19.273323,-2.593998,-1.7960906,3.3535547,-12.703634,-19.31642,-15.179238
1570715475,-0.2825158,-20.226215,1.2497733,-0.5134731,-0.5358444,2.2573643,3.2465374,-12.176909,5.5976434
1570715475,3.2321723,-7.690176,-6.50744,-0.4548818,-0.9736814,1.0983212,7.3310456,0.062249243,-2.1212628
1570715475,3.845088,1.0486604,-1.9919758,1.7215198,0.78618914,-0.4825795,7.953538,8.920795,2.15957
1570715475,6.325481,3.4955344,-4.7261543,2.1263328,0.7339896,-1.844029,10.01734,11.769896,-0.9768343
1570715476,4.003105,2.873042,-4.1659107,1.3188376,2.7793598,-2.2445807,6.9479733,11.549629,-0.6799533
1570715476,-1.460463,-1.685518,2.6623523,0.54223615,3.7157557,-1.416845,0.6560113,7.2065473,6.205771
1570715476,-7.3310456,-9.188946,2.0638018,0.1747087,1.6213819,-0.20134112,-5.717354,-0.20590134,5.659893
1570715476,-0.4309563,-15.753847,9.797073,1.09406,2.8858893,0.2098635,1.0630256,-6.71813,13.302185
1570715476,14.178462,-9.9790325,-7.819463,0.9459837,0.067113705,0.82027864,15.629349,-0.8523358,-4.534618
1570715476,6.229713,7.848193,-13.8720045,-0.4133352,2.324478,-0.14914156,7.6375036,16.970102,-10.563218
1570715476,-11.597513,-37.258568,-4.333505,2.4033098,4.46679,-0.40694344,-10.668563,-28.007372,-1.2066777
1570715476,-10.371682,-18.847157,-5.693412,3.0275738,2.0443048,-2.607847,-10.271125,-9.361329,-3.1986535
1570715476,-4.43885,-15.729905,-13.781025,2.9870925,1.9878441,-2.1135492,-6.435614,-6.349423,-11.631032
1570715476,-0.5267244,-11.784261,-10.534488,3.0083985,1.7886336,-2.1934464,-1.3838485,-4.0222588,-6.789956
1570715476,-8.034941,-1.8770541,-7.431602,2.2871926,1.9324486,-1.0024444,-9.797073,7.7667904,-7.632715
1570715476,-8.925584,0.36870706,0.5650316,1.4541303,1.2389404,-0.47086126,-10.19451,8.159439,-1.3359646
1570715476,-10.860099,7.3166804,-0.78529817,-1.3071194,-1.8813144,0.019175345,-12.818556,16.903065,-1.4173675
1570715476,-0.36870706,10.82658,-3.6248214,-1.9793217,-2.3084984,0.9108289,-2.2218192,20.456059,-3.596091
1570715476,2.906561,3.0214825,-0.5746084,-2.5130355,-2.9934845,1.9814523,1.541866,12.694057,0.24420857
1570715476,3.0502129,-10.232818,-3.3039982,-2.7740333,-3.3429017,2.866714,1.8483237,1.3503298,-0.8379706
1570715476,2.408567,-25.426422,-23.549368,-2.704789,-3.239568,4.5030103,2.930503,-12.425907,-18.109741
1570715476,-9.11712,-31.598675,2.882619,-1.97293,-1.7534788,4.1440053,-4.9703627,-25.665842,2.2026656
1570715476,-16.97489,-16.654066,-1.6136919,-4.3538685,-2.9221096,2.6035857,-13.642161,-3.7924154,4.8841715
1570715476,-7.6470804,-23.42487,-13.699622,-2.209426,-1.191002,1.8482902,-6.766014,-18.770542,-12.038046
1570715476,3.6822822,-15.045163,-1.6807296,-1.1068435,-1.0035098,1.1398677,7.177817,-7.9822683,2.4037786
1570715476,4.735731,0.79966336,-3.371036,0.5262567,-0.506016,0.4133352,9.102755,6.4882865,0.14844051
1570715476,9.988609,3.7684734,-4.548983,1.980387,0.32171968,-1.8866409,12.890382,11.008539,1.2976574
1570715476,4.735731,5.889736,-6.167464,1.3752984,1.8280495,-2.3021066,11.046846,14.686033,-3.7732618
1570715476,-7.9822683,-3.1603463,3.9935284,0.35580918,3.5666142,-0.8064298,-3.2082303,7.038953,5.521029
1570715476,-10.874464,-10.5919485,-0.7422025,0.39735577,0.75209963,-0.3100014,-7.9104424,-0.45010993,4.232949
1570715476,8.049306,-47.079582,-7.129933,-0.7382508,1.3444047,1.9292527,4.501099,-44.551304,-0.6751649
1570715476,2.1547816,2.2122424,-3.5482068,0.6168069,1.072754,0.088419646,4.2999864,17.295713,1.9967642
1570715476,10.984597,-21.504719,-1.4939818,2.378808,4.3506727,-2.0997002,13.211205,-12.717999,2.255338
1570715476,-2.9735985,-22.73534,-11.166556,3.077643,3.5389163,-1.8312454,-1.661576,-13.584701,-7.8865004
1570715476,-20.049046,-9.849746,-19.268536,3.1990867,2.9178483,-1.4136491,-19.627666,-2.030283,-19.096153
1570715476,0.6607997,-14.164097,-6.8426285,3.3716648,2.5386026,-2.428877,0.2825158,-2.5761611,-6.291962
1570715476,-3.86903,-7.5704656,-8.523358,3.527198,2.0038235,-1.1675655,-4.620809,2.1978772,-8.149862
1570715476,-12.411542,0.7326257,4.3478703,2.9625907,0.42611876,0.07563608,-11.372458,8.791509,1.8483237
1570715477,-17.439365,7.225701,-1.8483237,0.028763017,-2.2467113,-0.1043991,-18.344374,16.927006,-2.944868
1570715477,-3.8402996,15.011644,-8.39886,-1.4317591,-2.4832072,0.019175345,-4.8602295,24.736893,-9.093178
1570715477,3.3327289,11.87524,-1.9776106,-2.3266084,-3.522937,1.0674275,2.5474305,23.233334,-2.4660277
1570715477,0.61770403,-6.1626754,-2.7485435,-2.371351,-3.8403955,2.163618,0.33518824,3.6008794,-1.9201498
1570715477,5.3342814,-12.445061,-10.979809,-2.2765396,-4.0183,3.9650352,6.1387334,-2.7724855,-9.548077
1570715477,2.207454,-50.632576,-14.733917,-2.3660245,-2.9348931,8.406259,1.3359646,-41.438843,-12.799402
1570715477,-16.55351,-3.0023289,4.4436383,-4.818338,-2.7569885,3.1330383,-12.081141,5.377377,6.871359
1570715477,-13.685257,-17.492037,-20.408175,-3.3705995,-0.8607599,1.9793217,-8.288726,-9.950302,-17.204733
1570715477,1.2641385,-17.520767,0.79966336,-1.4125837,-0.7989727,0.9438531,6.9288197,-10.362105,4.3861775
1570715477,4.9320555,-3.7445314,0.81402856,0.7265325,-1.8078089,0.32811147,11.166556,3.217807,4.1706996
1570715477,14.834474,4.4963107,-6.2009826,2.6557853,-0.674333,-1.1260189,18.171991,10.812215,-1.1444284
1570715477,6.229713,8.264784,-6.885724,1.6032718,2.0134113,-2.8688447,11.559206,16.151285,-4.5441947
1570715477,-4.6399627,0.9768343,5.171476,1.4615874,3.76689,-1.6192514,1.8962077,10.58716,5.391742
1570715477,-12.5982895,-8.250419,2.0685902,0.10972559,1.510591,0.22051647,-7.5561004,1.7286136,6.9623384
1570715477,-0.47884035,-15.303738,-1.6136919,0.8426499,3.771151,0.9694202,0.8714894,-6.081272,-3.8402996
1570715477,-8.159439,-40.620026,-5.693412,-0.068179004,-0.29615256,1.0397298,-0.6464345,-45.753193,-9.093178
1570715477,5.094861,8.159439,-10.381259,1.0035098,0.74357724,-0.6977695,8.283937,15.95496,-4.697424
1570715477,-7.345411,-39.523483,-11.851298,3.0052028,3.8446567,-3.1841726,-1.910573,-23.03222,-9.471462
1570715477,-13.9151,-20.51352,-3.3183637,4.703286,1.0237503,-2.8890853,-9.605537,-11.008539,1.6663644
1570715477,-12.828133,-10.457873,-11.587936,3.9202926,0.8820659,-2.9615254,-13.776237,-5.8801594,-12.559982
1570715477,1.6376339,-5.9280434,-12.191275,4.355999,1.6735815,-1.3454701,3.7110126,4.9655743,-14.657303
1570715477,-4.4101195,6.981492,9.461885,2.2648213,1.3390783,-1.191002,-1.3263878,12.641385,5.094861
1570715477,-22.390574,12.310986,-2.9592333,-1.3294905,-0.7542302,-0.64663523,-21.777658,21.964407,-4.5441947
1570715477,-4.3047748,8.106767,-6.50744,-1.9846482,-1.6565367,-0.14807628,-6.50744,17.104177,-9.89763
1570715477,2.7820623,9.390059,-1.388637,-2.8688447,-4.021496,0.46233886,3.2130187,21.001938,-0.58418524
1570715477,-0.17238252,-3.7588966,-3.691859,-3.1596708,-3.8670278,0.8852618,0.8714894,7.005434,-4.759673
1570715477,7.5848308,-14.235924,-12.512098,-4.1738334,-4.604213,1.7002139,7.091625,-2.5091233,-7.541735
1570715477,4.9464207,-49.219997,-10.6877165,-2.0144765,-3.3599465,7.075702,12.717999,-28.778305,-24.224533
1570715477,-14.240712,-27.107151,0.22505496,-3.698711,-3.6827314,2.741009,-12.382812,-37.58418,7.642292
1570715477,-18.38268,-8.470686,-10.668563,-3.1703236,-0.20027582,2.7612495,-13.785813,2.183512,-5.463568
1570715477,-5.6359506,-18.05707,-4.9320555,-1.2314832,-0.4538165,1.2740952,-1.6376339,-9.629479,-1.8770541
1570715477,4.1132383,-13.972561,7.1107793,-1.9335139,-0.27165073,0.74038136,9.9790325,-7.225701,11.137826
1570715477,12.899959,-2.7246015,-2.1164744,2.2552335,-1.2048508,-0.8991106,18.83758,4.084508,1.6903064
1570715478,16.649279,6.4787097,-13.359646,2.560974,0.32704616,-2.2115564,22.246922,13.900735,-10.242394
1570715478,-0.40701428,3.6583402,-0.07182605,1.406192,3.5847242,-1.406192,4.5298295,11.535264,3.0358477
1570715478,-9.854534,-2.8921957,4.5633483,0.57632565,2.5428638,-0.24501829,-5.4300494,5.185841,7.929596
1570715478,-7.3071036,-17.00362,-6.1387334,0.37072334,3.4888475,1.2005897,-2.9017725,-8.973468,-2.6240451
1570715478,0.61770403,-23.90371,-8.37013,0.15872924,-1.11217,2.877367,5.1906295,-16.208746,-4.3622355
1570715478,8.422802,-3.2034419,-13.441049,0.50708133,1.550007,-1.2208303,13.010092,4.5633483,-9.595961
1570715478,-16.156073,-35.41982,-17.999609,3.8158937,3.8585055,-2.191316,-12.41633,-27.092787,-14.403518
1570715478,-22.711397,-18.229452,-5.659893,5.069748,0.39522517,-2.7186377,-19.771318,-9.260772,-2.9783869
1570715478,-6.991069,-12.0093155,-11.271901,4.3815665,1.7193892,-3.1447566,-4.936844,-2.552219,-9.677363
1570715478,-1.6041151,-2.5713725,-14.255077,4.080087,1.2762257,-1.2794216,-0.1436521,7.1155677,-13.838486
1570715478,-1.3359646,5.1379566,3.8546648,3.2736576,2.1391163,-1.1100394,-0.21547815,14.858416,3.2082303
1570715478,-12.411542,19.124884,-0.038307227,0.15446806,-0.5401055,0.10866029,-8.532935,28.25158,2.1499932
1570715478,-4.8458643,8.298303,-6.3589997,-2.6611118,-0.80323386,-0.3440909,-3.86903,18.047493,-6.727707
1570715478,1.091756,5.3821654,2.7629087,-2.7463355,-2.715442,0.2780425,1.5849615,16.529568,1.8339585
1570715478,-0.7661445,-3.4620156,-1.8100165,-3.3801873,-3.039292,0.58058685,1.2641385,7.16824,-0.7230489
1570715478,-0.81402856,-14.867992,-19.632454,-4.7022204,-4.392219,1.1036476,3.3423057,-5.463568,-17.496826
1570715478,2.5330653,-23.922863,-15.71554,-2.712246,-3.0179863,4.2164454,6.133945,-15.461755,-17.233463
1570715478,-14.968549,-47.4435,-0.40701428,-3.383383,-4.722461,6.042364,-8.66701,-36.645653,6.172252
1570715478,-19.847933,-3.86903,-8.532935,-3.8510485,0.32917675,2.2584295,-11.118672,6.694188,-9.136273
1570715478,-8.307879,-19.58457,-6.2584434,-1.5627906,-0.8703476,1.1451942,-2.504335,-12.928689,-1.9871874
1570715478,4.3622355,-12.919112,2.7485435,-1.1963284,-0.3824416,0.886327,9.054871,-8.738836,5.511452
1570715478,19.756952,-1.115698,-2.8634653,1.7257811,-1.0599705,-0.7851238,22.328325,4.620809,5.133168
1570715478,14.15452,8.063671,-10.04607,2.482142,0.54117084,-1.9271221,23.81273,15.116989,-8.90643
1570715478,-4.8841715,3.6152446,2.0207062,1.6405573,2.8400817,-0.94278777,2.1452048,11.180922,4.185065
1570715478,-13.268666,-3.4620156,2.3175871,0.40268224,2.1476386,0.2077329,-7.101202,5.693412,8.532935
1570715478,-3.6535518,-22.495918,-0.45968673,1.1494554,3.8585055,0.47512242,-3.7972038,-10.965444,-6.4739213
1570715478,-10.922348,-29.865273,-11.520899,0.3163932,-1.5702477,1.804613,-13.55597,-38.307228,-5.363012
1570715478,3.1028855,3.940856,-11.860875,1.191002,2.1295285,-1.4818281,9.021352,13.685257,-8.413225
1570715478,-11.434708,-37.737408,-9.629479,4.821534,1.9718646,-2.0496314,-5.4683566,-21.705833,-4.841076
1570715478,-13.340492,-18.071434,-7.6614456,5.142188,2.8134491,-3.641185,-7.896077,-9.5385,-7.2592196
1570715478,-12.081141,0.6607997,-10.91756,4.5339036,1.8365719,-2.0677414,-14.4609785,4.0318356,-11.592725
1570715478,2.2601264,-6.6510925,-4.5872903,4.175964,1.7896988,-0.04900366,5.085284,6.655881,-6.0142345
1570715478,-8.274361,9.308656,4.3766007,2.1572263,0.6700718,0.012783563,-6.6606693,18.947712,3.572149
1570715479,-17.463306,13.153744,-2.858677,-2.0208683,0.29828313,-0.47831833,-15.911864,22.811954,-3.53863
1570715479,-4.5872903,9.414001,-5.6551046,-2.830494,-2.640871,-0.8618252,-3.2513258,19.124884,-5.5401826
1570715479,4.1180267,-0.641646,-3.3901896,-3.128777,-3.6795356,-0.4506206,5.81791,10.395624,-1.0247183
1570715479,2.183512,-3.2225955,-7.383718,-3.0073333,-3.365273,0.6285252,3.466804,6.3685765,-5.803545
1570715479,6.2345014,-12.732365,-11.15698,-4.3187137,-3.7423882,2.6387405,8.106767,-1.5610195,-4.462792
1570715479,-6.7851677,-50.134583,-16.189592,-3.8308077,-5.1102295,6.957454,-3.169923,-41.548977,-13.110648
1570715479,-17.865534,-7.101202,4.6112323,-4.8023586,-2.2104912,1.2847481,-12.559982,0.33997664,8.169016
1570715479,-11.444284,-6.4404025,-9.65821,-2.1114185,0.91295946,1.833376,-5.5497594,0.1436521,-5.410896
1570715479,-1.9919758,-17.472883,-6.7851677,-0.47618774,-1.4956769,1.434955,7.019799,-13.737929,2.006341
1570715479,7.350199,-3.442862,6.129156,-0.49962425,-0.2087982,-0.15553336,13.819332,2.408567,10.601525
1570715479,20.690691,-1.8722657,-10.323798,3.1841726,-1.0770152,-1.9505587,27.064056,4.4915223,-6.445191
1570715479,6.0046577,4.8219223,-3.514688,2.7793598,1.5404193,-1.8514861,15.739482,11.372458,-2.2218192
1570715479,-8.451532,0.4213795,2.3798366,1.474371,3.9362721,-0.8053645,-3.1172507,7.881712,5.8466406
1570715479,-16.634912,-7.2927384,-1.3455414,0.60828453,1.277291,0.77873206,-9.9790325,2.3942018,4.0462008
1570715479,3.9456444,-20.03468,25.383326,2.1550958,4.8620152,0.4847101,9.054871,-12.540829,29.113493
1570715479,0.5363012,-13.053187,-12.349293,1.140933,-1.2144386,1.5063299,5.793968,-5.731719,-8.485051
1570715479,1.0534488,3.787627,-5.793968,0.7041613,3.6294668,-0.965159,10.19451,14.053964,-6.6367273
1570715479,-17.48725,-35.084633,-8.432379,5.7664523,2.407571,-2.0187378,-15.543158,-26.882097,-5.1906295
1570715479,-10.702082,-21.801601,-15.456966,4.7331142,0.39842105,-2.9530032,-7.1586633,-12.837709,-13.627796
1570715479,-10.25676,-0.91937345,-14.03481,4.958957,1.2602463,-1.8898368,-11.779472,2.6910827,-14.231135
1570715479,-0.59855044,-3.323152,-8.968679,4.976002,1.4488038,-0.6839206,2.3080103,6.4787097,-11.789049
1570715479,-14.805743,19.37388,-2.0590134,0.39096397,-0.3920293,-0.38883337,-12.339716,28.773516,-3.3614593
1570715479,-13.043611,12.909535,-4.3766007,-2.913587,-0.6317211,-1.2783563,-13.781025,24.732103,-4.9703627
1570715479,0.60812724,11.654974,-2.5139117,-4.0097775,-3.1639318,-0.37604982,1.0869676,21.796812,-3.7253778
1570715479,0.5315128,-5.7365074,-4.6160207,-4.6404333,-4.021496,0.36859274,3.5338416,6.0621185,-3.6583402
1570715479,2.9352913,-10.180145,-19.321207,-4.5797114,-5.0239406,1.0674275,3.5529952,-0.59855044,-14.044387
1570715479,5.3438582,-22.922087,-18.47366,-3.40895,-4.2601223,4.686241,8.51857,-8.422802,-13.302185
1570715479,-10.912771,-47.793053,-14.513651,-3.892595,-3.9021826,5.147515,-10.184934,-53.558292,-9.988609
1570715479,-27.169401,-9.572019,1.0965444,-5.259371,1.772654,2.4874682,-18.80406,-3.4141316,1.9201498
1570715479,-10.496181,-14.982914,-8.307879,-1.9942359,-1.306054,0.53690964,-8.662222,-9.212888,-2.5713725
1570715479,6.813898,-8.183381,5.171476,-1.1643696,-0.43357584,0.48151422,10.793061,-5.521029,7.85777
1570715479,21.89737,-6.3206925,-8.202535,2.4619012,-2.1646833,-1.7417605,25.263617,-0.29209262,-0.15801731
1570715479,12.263102,0.7661445,-4.711789,2.418224,1.0067056,-2.4054406,21.964407,6.019023,-4.122815
1570715479,-2.4181437,2.6240451,-0.8762778,2.8518,2.3564367,-1.5979455,3.4811692,9.572019,2.72939
1570715480,-12.200851,-1.0390835,-1.3790601,0.8714129,1.9281875,0.0085223755,-6.742072,6.2392898,2.2744915
1570715480,-24.545357,-66.975395,12.023681,-0.067113705,5.877243,3.013725,-12.425907,-41.237732,3.4811692
1570715480,11.908759,2.9400797,-4.6926355,1.4328244,0.49749365,-0.50708133,14.561535,5.0134583,3.083732
1570715480,-1.4508862,-11.358093,-6.4308257,4.21538,2.686679,-1.4498692,3.715801,-3.9983168,-2.5139117
1570715480,-17.152061,-26.077644,-15.198392,5.8996143,3.006268,-0.87567407,-12.344504,-20.9349,-12.957419
1570715480,-18.406622,-14.4370365,-18.59337,4.481704,1.815266,-3.412146,-15.796943,-7.2065473,-15.184027
1570715480,-1.6567876,2.5713725,-11.9614315,4.799163,0.81601745,-1.5840966,-1.283292,9.710882,-10.242394
1570715480,-3.4811692,-4.9895163,-8.494628,4.8321867,1.5979455,-0.19494934,-0.61770403,4.3766007,-8.944737
1570715480,-4.7548847,16.472107,3.4763808,1.366776,-0.380311,-0.15766394,-1.9488802,25.785553,2.2266076
1570715480,-12.277467,8.580819,-6.5218053,-2.597194,0.058591332,-1.0418605,-9.610326,17.975666,-7.383718
1570715480,1.4460979,9.605537,0.81881696,-3.0840347,-2.819841,-0.74357724,2.3654714,19.694704,-2.1739352
1570715480,2.9400797,1.067814,-1.0869676,-3.9064438,-3.4259949,-0.28763017,5.133168,10.601525,-0.4405331
1570715480,0.19632454,-4.3526587,-4.060566,-3.4813905,-3.3375752,0.50282013,2.528277,5.0517654,-2.5617957
1570715480,3.1986535,-15.313314,-20.374657,-5.1049027,-3.9394681,1.5990107,6.1530986,-6.244078,-18.0858
1570715480,-7.7907324,-56.493584,-9.888053,-4.0183,-4.830056,6.5675554,-9.706094,-48.238377,-6.7851677
1570715480,-14.197616,4.237737,-10.534488,-4.9781327,-2.1028962,2.171075,-8.585608,11.453861,-6.9862804
1570715480,-15.322891,-7.302315,-7.9104424,-2.5034478,-0.43037996,1.1132354,-9.227253,-0.9576807,-3.572149
1570715480,-3.0933087,-16.778566,-3.3423057,-1.3081846,-1.9718646,1.0993865,3.4620156,-10.898406,0.9768343
1570715480,5.81791,-6.517017,9.428367,-1.1824796,0.3813763,-0.3440909,12.473791,-0.92416185,13.962984
1570715480,23.27164,-5.439626,-8.901642,2.396918,-1.1814142,-2.3809388,29.798235,0.62728083,-4.817134
1570715480,8.796297,4.4005427,-2.0925324,2.4629664,1.6235125,-1.7950253,14.877569,11.166556,1.5562311
1570715480,-6.0285997,1.7190368,0.7182605,1.7918295,3.182042,-0.85117227,-0.46447513,8.939949,4.333505
1570715480,-17.836803,-8.499416,-5.985504,0.37072334,1.3902125,0.9662243,-12.492945,-1.2258313,-2.1404164
1570715480,-25.110388,-50.220776,16.46732,0.57739097,6.8786225,1.6416225,-10.697293,-31.991323,10.548853
1570715480,7.2304893,-0.11492168,-7.632715,1.3316212,-0.9033718,0.13209683,10.160992,2.2888567,-1.1731589
1570715480,-7.61835,-12.5025215,-7.3406224,3.2225232,1.8248537,-1.7300422,1.1731589,-1.8483237,-2.5139117
1570715480,-17.559074,-21.107283,-10.156203,6.095629,2.3063679,-2.5354066,-13.306973,-12.780249,-7.1826053
1570715480,-12.277467,-17.894264,-16.400282,3.9852757,0.55075854,-3.483521,-9.92636,-5.9567738,-10.323798
1570715480,-1.1875241,0.90021986,-15.59583,5.132601,1.316707,-1.9079468,-1.3503298,5.851429,-13.752295
1570715480,-1.7286136,-3.9839516,1.1971009,5.169886,1.0312074,-0.74464256,1.4221559,4.1419687,-5.3486466
1570715480,-17.865534,22.419304,-0.7230489,0.08415846,-0.3792457,-0.56354207,-12.933477,29.93231,-0.521936
1570715480,-6.727707,10.429143,-8.935161,-2.8006656,-0.868217,-0.83732337,-7.690176,20.441694,-9.165004
1570715480,7.240066,11.123461,0.8379706,-3.6070955,-3.0041373,-0.10972559,8.058883,21.475988,-0.7230489
1570715481,0.5267244,-4.6351743,-5.90889,-4.6723924,-2.859257,0.41226992,3.3279405,7.1395097,-3.715801
1570715481,-1.2258313,-9.940725,-7.7907324,-3.6252055,-3.771151,2.0027583,-0.5746084,1.7860745,-2.7868507
1570715481,5.932832,-19.9437,-29.309816,-4.182356,-3.8414607,3.5474389,9.519346,-7.038953,-21.509508
1570715481,-27.77274,-74.54108,-5.4539914,-4.721396,-3.6401196,5.528891,-24.559721,-82.3749,-8.892065
1570715481,-21.030668,6.71813,-1.0151415,-4.6936984,1.1835449,3.4494314,-16.361975,16.812084,4.572925
1570715481,-9.088389,-9.270349,-11.233594,-1.4914157,-1.998497,0.7989727,-4.1706996,-2.5809495,-6.2871737
1570715481,7.101202,-14.753071,3.347094,-1.4285632,-1.6213819,0.62213343,10.759542,-11.051635,4.865018
1570715481,19.077,-6.7947445,-2.6719291,1.668255,-1.8632044,-0.68072474,20.369867,-1.2066777,4.644751
1570715481,20.566193,0.23942018,-8.451532,2.6398058,0.31958908,-2.7644455,32.374397,4.2521024,-9.964667
1570715481,-0.79008657,3.6296098,-0.20590134,2.913587,2.1369855,-1.844029,5.3199162,10.515334,3.1651347
1570715481,-13.876793,1.4652514,-0.9864111,1.8312454,3.5719407,0.018110048,-8.274361,8.78672,2.3558946
1570715481,-16.663643,-10.965444,-6.172252,0.85330284,1.2527891,1.9217957,-11.003751,-3.8067808,-2.5713725
1570715481,-14.116213,-50.455406,-2.5713725,-0.113986775,1.485024,1.7843723,-8.441956,-43.54095,1.4508862
1570715481,11.200075,11.851298,-8.169016,0.84584576,1.6160555,-1.6639938,16.883911,18.200722,-5.3582234
1570715481,-19.397821,-25.665842,-21.088129,4.9163456,2.289323,-2.142312,-14.302961,-18.042704,-17.597382
1570715481,-24.621971,-27.672184,-6.655881,5.743016,0.35900506,-3.1191895,-20.312407,-19.196709,-4.237737
1570715481,-12.014104,-3.4237084,-14.705187,5.000504,1.0951252,-2.707985,-10.093954,0.6847417,-17.76019
1570715481,3.8642416,0.9816227,-14.528016,5.420231,1.2762257,-1.1462595,6.6750345,10.371682,-14.537593
1570715481,-2.111686,12.818556,7.9870567,2.4086363,0.39522517,-1.0983212,0.4213795,22.218191,6.8330517
1570715481,-15.251065,19.268536,-7.5944076,-1.2634422,0.800038,-0.19068815,-12.828133,28.711267,-8.652645
1570715481,-1.283292,6.143522,1.4460979,-2.694136,-1.6256431,0.3771151,1.1348516,15.634137,0.9624691
1570715481,1.0103531,0.5267244,0.79966336,-3.8329384,-1.8855755,0.2077329,3.715801,11.712435,1.2880806
1570715481,-2.3894134,-4.2281604,-5.032612,-4.0193653,-2.478946,0.6253293,0.24899697,5.1140146,-3.6727054
1570715481,-1.2114661,-13.340492,-14.116213,-5.356313,-3.6955152,1.8493555,2.0207062,-4.3766007,-11.784261
1570715481,-9.11712,-32.350452,-7.4363904,-3.4291909,-3.401493,5.3861413,-4.6399627,-24.214956,-4.2664676
1570715481,-12.583924,-25.81907,-15.17445,-3.9234886,-3.8414607,2.5652351,-6.5984197,-18.784906,-11.865664
1570715481,-14.408306,-9.864111,-2.72939,-3.874485,2.037913,1.610729,-8.058883,-3.6487634,1.4269443
1570715481,-12.756307,-15.303738,-1.9967642,-2.557778,-1.3806248,0.742512,-7.0820484,-7.321469,1.2449849
1570715481,0.6368576,-15.643714,1.6328455,-0.068179004,-1.5308317,-0.0063917814,5.530606,-10.625467,5.7125654
1570715481,22.55338,-12.023681,0.7086837,1.4040613,-0.1736434,-0.52093023,23.075315,-7.9104424,4.295198
1570715481,22.213404,10.91756,-11.109096,2.5087743,0.6274599,-2.0858514,36.98084,16.060305,-11.003751
1570715481,-10.175357,3.4572272,4.6351743,1.6597326,3.8830073,-1.0589051,1.4700398,11.03727,-0.91937345
1570715481,-26.561274,-5.78918,-2.6767175,0.067113705,1.2389404,0.32704616,-17.06587,5.48751,6.1866174
1570715482,-20.733788,-50.340485,14.686033,0.9779426,4.9951773,0.760622,-14.4609785,-35.338417,9.232041
1570715482,6.670246,-0.7517793,-10.060435,1.4807627,-0.8085604,-1.0514481,10.984597,0.10534488,-4.012682
1570715482,-1.8100165,-13.733141,-9.054871,3.7690206,2.8454082,-2.0496314,6.3829417,-3.5290532,-4.9176903
1570715482,-20.101717,-24.521414,-15.8544035,6.252228,2.2296665,-1.8994244,-14.135366,-19.120094,-12.708423
1570715482,-15.380352,-14.719552,-18.966866,3.9948635,0.5283873,-3.3439672,-14.882358,-6.5505357,-14.178462
1570715482,3.715801,3.2704794,-14.571112,5.2796116,1.1601083,-1.2581156,4.6160207,12.660539,-13.421895
1570715482,-2.054225,1.6184803,1.9536686,4.03641,1.592619,-0.23436533,0.58897364,8.528147,-2.8491
1570715482,-12.741941,18.875887,-4.357447,-0.37072334,-0.175774,-0.29082605,-6.813898,25.694572,-1.0295067
1570715482,-9.471462,6.8186865,-5.3199162,-3.003072,-0.6200028,-0.8703476,-10.0987425,17.348385,-5.305551
1570715482,5.2145715,4.654328,1.1540052,-3.1543443,-2.428877,-0.7126837,5.482722,14.992491,-0.17238252
1570715482,3.9456444,-2.8634653,-2.054225,-3.5389163,-2.7559233,-0.07776668,6.0621185,6.6750345,-1.2449849
1570715482,0.61770403,-7.651869,-7.374141,-3.5026963,-2.8837588,1.9068816,2.0350714,4.3766007,-5.080496
1570715482,0.9624691,-19.637243,-20.321983,-5.378684,-3.3045511,2.8358204,4.146757,-10.730812,-17.717093
1570715482,-24.363396,-66.328964,-2.695871,-3.8222854,-4.6628046,6.7188277,-19.397821,-58.495136,0.48841715
1570715482,-21.164743,3.2225955,-5.0613422,-4.1919436,1.6565367,3.3279877,-15.227123,15.691598,-5.5497594
1570715482,-15.787366,-12.220005,-11.252748,-2.5023825,-1.3476006,0.7052266,-9.586384,-6.1626754,-6.655881
1570715482,2.3798366,-21.514296,-0.48362875,-1.0855376,-2.2658865,0.70735717,8.968679,-15.816096,4.0174704
1570715482,5.3199162,-1.4796166,3.2513258,-0.7329243,-0.771275,-0.6967042,12.076353,4.003105,7.762002
1570715482,24.44001,1.3742718,-11.468226,2.317021,-1.6501449,-3.4462357,30.985758,7.5225816,-7.536947
1570715482,7.565677,6.143522,0.50278234,2.486403,0.87886995,-1.2698339,13.713987,13.005303,3.8546648
1570715482,-9.548077,-0.7134721,3.1507695,1.5180482,2.0400436,-0.08415846,-3.6583402,6.4404025,6.3589997
1570715482,-35.42461,-38.197094,-20.796036,-0.03089361,0.96302843,2.4661624,-29.439104,-31.201237,-17.415422
1570715482,15.428236,-12.071565,16.2279,-0.96835494,3.6252055,0.3920293,21.4712,-5.707777,20.6045
1570715482,-6.5361705,-12.11466,-0.25857377,5.036724,-0.624264,-2.988158,-1.0007763,-5.080496,3.7541082
1570715482,-7.7428484,-29.443893,-13.618219,2.9316971,2.9753745,-2.686679,-3.0119057,-21.480778,-10.381259
1570715482,-17.118542,-13.79539,-26.072857,5.1869307,0.9289389,-2.0794597,-9.835381,-5.257667,-14.968549
1570715482,-17.468096,-6.244078,-11.113884,5.8996143,1.1643696,-2.0634801,-14.188039,2.944868,-10.141838
1570715482,-4.1180267,-5.722142,-11.616667,5.0377893,1.6842345,-0.49003658,-1.1683705,3.620033,-12.004527
1570715482,0.0,0.81881696,1.6089035,3.0233128,1.5745089,-0.88952297,2.7868507,7.302315,-2.0159178
1570715482,-11.425131,16.931795,-1.1587936,0.18429637,-0.54117084,-0.7797974,-6.8522053,24.559721,-1.13964
1570715482,-7.627927,10.668563,-10.524911,-2.1465733,-0.11185618,-0.50388545,-8.264784,18.828003,-12.761095
1570715482,5.93762,7.728483,0.6991069,-3.1266465,-2.7750986,-0.19281875,7.369353,19.057846,-0.46926352
1570715482,0.89064306,-4.4819455,-3.6583402,-3.9117703,-2.1188755,0.08735435,4.5681367,5.6790466,-4.414908
1570715482,-0.30645782,-11.449073,-6.6271505,-5.260436,-4.275037,1.2751604,1.6759412,-0.6895301,-1.733402
1570715483,3.8067808,-16.170439,-15.160085,-4.727788,-3.247025,3.2353067,7.6375036,-9.576807,-13.498509
1570715483,-28.548462,-68.99132,-9.509769,-4.9749365,-4.8225994,5.9539447,-24.334665,-70.70557,-9.442732
1570715483,-21.236568,-4.405331,0.272939,-4.6585436,2.9039993,3.1703236,-15.021221,8.432379,0.39743748
1570715483,-11.841722,-15.1696615,-6.167464,-2.368155,-2.012346,1.1771531,-7.2113357,-8.020576,-1.7908629
1570715483,4.951209,-13.297397,1.7046716,-1.3987349,-0.6785942,0.6253293,9.911995,-10.491392,3.7205894
1570715483,16.596605,-9.452309,-0.4309563,2.030456,-1.4860892,-1.0035098,19.369091,-4.237737,5.559336
1570715483,16.55351,4.333505,-6.871359,2.6536546,0.04900366,-2.213687,27.485435,8.336611,-5.8945246
1570715483,-2.6719291,2.1739352,-0.8571242,2.0134113,2.0560231,-1.2218956,5.592855,10.108319,1.4173675
1570715483,-12.928689,0.7613561,-1.4460979,0.1054644,1.660798,-0.028763017,-5.6215854,8.78672,4.477157
1570715483,-12.497733,-26.044127,-0.01436521,1.9505587,2.7058542,0.4559471,-8.513782,-11.827356,-3.0214825
1570715483,-1.3742718,-23.970747,-6.4404025,1.2943357,-1.4733057,0.3898987,-8.48984,-34.208355,-1.9440918
1570715483,7.1347213,-3.3662477,-11.827356,2.0389783,1.8557472,-1.7193892,12.263102,8.829816,-6.9479733
1570715483,-13.163321,-25.85259,-17.405846,5.1400576,2.9146523,-1.7833071,-6.3589997,-18.02355,-11.18571
1570715483,-24.210167,-16.984467,-6.8809357,5.1826696,1.7119322,-2.6398058,-18.497602,-4.2185836,-2.7820623
1570715483,-6.742072,0.2777274,-14.5328045,4.383697,1.2474627,-2.5141008,-3.6343982,9.533711,-13.637373
1570715483,1.7286136,-6.0956373,-7.872135,4.875864,1.8525513,-1.11217,4.3957543,3.3327289,-8.231265
1570715483,-10.156203,18.100164,4.7644615,1.2708993,0.028763017,-1.1260189,-7.8625584,27.56205,3.596091
1570715483,-13.977349,9.44752,-8.437167,-2.271213,-0.07244019,-1.09406,-11.951855,19.000385,-9.3182335
1570715483,3.4093432,5.161899,-1.532289,-2.5737574,-2.3106291,-0.2119941,5.2241483,14.791378,-1.7812861
1570715483,3.9312792,-2.3942018,-0.641646,-3.5857894,-2.5481904,0.6615494,5.8562174,7.2065473,-0.10534488
1570715483,-1.6711528,-5.583278,-4.9655743,-3.6539686,-3.3311834,1.7023445,0.6560113,3.8402996,-3.5865142
1570715483,6.253655,-22.213404,-23.376986,-5.5193033,-2.486403,2.3851998,9.270349,-13.22557,-20.863073
1570715483,-28.601133,-70.279396,-3.7445314,-4.1067195,-5.535283,7.91196,-23.669079,-62.421627,-0.5554548
1570715483,-21.543026,14.767436,-13.757083,-4.1344175,0.2109288,3.254482,-15.461755,21.566969,-10.156203
1570715483,-19.61809,-9.605537,-9.370906,-3.8798115,-0.47618774,0.39096397,-15.47612,0.47884035,-2.5713725
1570715483,4.0653543,-21.89737,1.7669208,-1.6948874,-2.6738954,0.3163932,10.635044,-16.19438,6.2871737
1570715483,10.012551,0.89543146,2.6623523,-0.32171968,-1.5915536,-0.9278736,16.7642,6.3589997,7.2113357
1570715483,25.378538,0.37349546,-9.351752,2.3724163,-1.6735815,-2.1156797,32.082302,6.445191,-5.5641246
1570715483,7.704541,1.4748282,0.39743748,2.607847,1.8248537,-1.1750225,14.087482,8.106767,3.7684734
1570715483,-6.0381765,-1.6232687,1.9728222,2.3180861,2.313825,-1.0972558,-0.05267244,5.439626,5.195418
1570715483,-29.951464,-11.803414,-8.025364,0.39522517,0.39948636,0.1022685,-24.219744,-4.4963107,-4.8698063
1570715483,-15.672444,-40.385395,12.837709,-1.7257811,2.751662,4.060912,-9.811439,-33.533188,16.697163
1570715483,21.29403,-18.191145,-1.3455414,1.9494934,-1.0035098,-3.6070955,25.349808,-16.242264,9.160215
1570715484,-1.0007763,-16.361975,-19.37388,5.5470014,3.3982973,-1.6458838,3.8546648,-8.331821,-16.51999
1570715484,-23.44881,-25.426422,-10.323798,5.066552,4.336824,-1.1345413,-12.181698,-16.802507,-12.919112
1570715484,-13.302185,1.8531121,-10.275913,4.491292,1.9814523,-3.2491558,-13.019669,8.259995,-10.749966
1570715484,1.0342951,-1.0630256,-13.599066,4.890778,1.0610358,-0.95450604,3.5913026,8.183381,-11.731588
1570715484,-5.109226,2.3175871,0.033518825,4.0055165,2.1028962,-0.6231987,-1.8626889,10.5440645,-5.4061074
1570715484,-11.525687,12.100295,-9.457097,0.14274979,0.92041653,-0.742512,-7.896077,19.464859,-7.192182
1570715484,-3.6008794,12.86644,-0.90021986,-1.5010034,-0.11505207,-0.79151565,-3.7493198,21.720198,-1.541866
1570715484,2.2170308,9.442732,1.4796166,-3.7690206,-1.8429637,0.23862651,5.535394,21.504719,1.1587936
1570715484,-3.9743748,-7.326257,-0.6512229,-4.2260327,-2.1082227,0.50068957,0.033518825,4.003105,-1.6807296
1570715484,-0.5602432,-20.432117,-26.977865,-6.0913677,-3.8830073,-0.22797355,-0.7182605,-8.307879,-16.031574
1570715484,-1.4652514,-36.0471,-1.6089035,-3.7082987,-3.9767535,4.8886476,4.596867,-20.130447,-8.700529
1570715484,-12.172121,-26.465506,-13.000515,-4.9877205,-4.7096777,3.637989,-9.811439,-30.626629,-0.5746084
1570715484,-25.297134,-8.09719,-4.9224787,-4.7597466,2.0560231,2.425681,-18.794483,-2.1164744,-0.90979666
1570715484,-12.349293,-18.770542,-4.3766007,-2.5162313,-1.6671897,1.0077709,-11.056423,-12.876017,-0.7278373
1570715484,1.8914193,-10.845734,4.697424,-2.1156797,-0.78299326,0.800038,9.136273,-8.604761,8.992621
1570715484,13.8959465,-6.8761473,-1.1587936,1.4786321,-1.9111427,-1.4509344,18.83279,-0.5602432,5.0134583
1570715484,25.55092,-0.6607997,-7.608773,2.4448564,-0.77340555,-2.3106291,32.24032,5.243302,-3.53863
1570715484,2.1643584,4.951209,0.7661445,2.902934,0.82880104,-1.6544062,11.070788,11.563994,5.473145
1570715484,-7.881712,2.5234885,2.183512,2.0506966,2.0112805,-0.8671517,-2.0925324,9.662998,5.602432
1570715484,-20.628443,-5.6551046,-9.346964,0.19921052,1.4189755,1.3017929,-14.925453,1.5179238,-5.8562174
1570715484,-32.96816,-75.72381,16.601395,-0.29402196,3.0520756,1.704475,-27.332207,-68.77105,20.618866
1570715484,13.441049,1.685518,-6.579266,1.2868787,0.9491796,-1.8994244,19.148825,8.710106,-2.8107927
1570715484,-7.723695,-13.493721,-10.486604,5.1507106,2.3702857,-1.2037855,-2.6384103,-5.793968,-7.1586633
1570715484,-20.96363,-19.196709,-8.987833,6.4663525,2.1732059,-2.719703,-16.381128,-15.433024,-8.48984
1570715484,-12.421119,-7.565677,-17.970879,3.9980595,1.5904883,-3.3929708,-8.805874,1.4508862,-16.64449
1570715484,-1.2593501,2.1164744,-13.747506,4.9206066,0.8224092,-0.6274599,1.8770541,11.405977,-13.613431
1570715484,-4.3622355,1.1683705,0.19153613,4.2782326,1.4029961,-0.36007038,-1.2689269,10.405201,-0.92895025
1570715484,-12.047623,18.171991,-8.7053175,-0.25673655,-0.63811284,-1.0258809,-9.184157,27.423185,-10.251971
1570715484,-9.074024,7.680599,-3.2082303,-2.8826935,-0.9715508,-1.7417605,-6.5840545,17.108965,-4.2425256
1570715484,3.107674,10.036493,-2.2457612,-3.457954,-3.0701857,-0.72014076,3.7732618,20.09214,-3.6391866
1570715484,1.9297266,-7.2113357,-5.5258174,-4.355999,-3.3705995,-0.009587673,4.012682,2.336741,-4.759673
1570715484,5.118803,-12.320562,-12.129025,-4.469986,-4.2984734,1.2559851,7.5704656,-2.9735985,-10.43872
1570715484,2.7246015,-19.88624,-21.74414,-4.0875444,-4.0193653,4.2888856,6.0716953,-11.066,-19.053057
1570715485,-23.702597,-62.493454,-5.4061074,-4.2782326,-5.3904023,7.039482,-15.907076,-50.603848,-2.3654714
1570715485,-24.483107,-2.4708161,-5.5162406,-5.018614,3.0787082,3.3599465,-15.586253,9.102755,-11.281479
1570715485,-14.408306,-11.271901,-4.501099,-2.3116944,-2.101831,0.7126837,-8.145074,-5.473145,0.33039984
1570715485,0.0047884034,-14.073117,1.13964,-1.3326864,-2.1859894,0.7659485,3.3135753,-7.9391727,5.1523223
1570715485,19.436129,-10.668563,0.2633622,1.4306937,-1.3220335,-0.7627526,21.346703,-4.3239284,8.595184
1570715485,23.736116,2.5713725,-9.485827,2.4810765,-0.21518998,-3.2747228,34.67283,6.603208,-10.726024
1570715485,-0.63206923,4.630386,3.3806129,3.5666142,1.4733057,-1.8855755,7.575254,12.090718,6.167464
1570715485,-13.43626,2.96881,-0.062249243,1.4807627,3.272592,0.13209683,-5.5880666,11.190498,4.357447
1570715485,-15.198392,-24.061728,-10.457873,0.5571503,2.1827934,2.3809388,-12.832921,-7.9391727,-9.725247
1570715485,-7.9631147,-34.313698,-2.920926,0.86289054,-0.61041516,1.3859513,-24.449587,-58.566963,6.5122285
1570715485,14.523228,12.028469,-7.9008656,1.6767774,1.571313,-2.249907,20.762518,16.831238,-2.4372973
1570715485,-18.066647,-32.29778,-15.32768,5.543805,2.4991865,-0.3142626,-6.3925185,-8.590396,-6.8091097
1570715485,-19.37388,-19.833567,-8.1881695,5.442602,1.697018,-3.6465113,-21.92131,-18.990808,-3.3901896
1570715485,-6.861782,3.9264908,-15.035586,4.896105,1.6426879,-1.2932705,-4.1802764,10.7356,-16.414646
1570715485,-1.1444284,0.842759,-9.457097,4.9717407,1.8184619,0.050068956,3.074155,10.606314,-11.741165
1570715485,-2.6001031,6.4787097,5.3342814,3.1085365,1.4115185,-0.10652969,0.79966336,15.591042,4.1132383
1570715485,-15.500062,10.271125,-8.173804,-1.2730298,0.6114804,-0.46127358,-12.411542,20.293253,-11.300632
1570715485,-3.0119057,5.1571107,-1.2162545,-1.6554714,-1.5148523,-1.0099015,-2.3463178,12.310986,-2.6431987
1570715485,5.5162406,10.472239,0.25857377,-3.275788,-2.3010414,-0.37285393,8.355764,19.88145,0.21068975
1570715485,0.38307226,1.9871874,-4.5154643,-4.515794,-2.5631044,0.25247538,3.2273839,11.358093,-4.0462008
1570715485,-3.1028855,-8.796297,-6.967127,-4.588234,-3.9479904,1.592619,-0.60812724,1.9919758,-3.6870706
1570715485,0.5315128,-30.219614,-41.75488,-6.637865,-4.03641,1.9452322,4.280833,-21.528662,-39.178715
1570715485,-14.762648,-41.946415,5.875371,-4.3432155,-4.9046273,3.7604983,-12.5504055,-48.238377,8.264784
1570715485,-16.620548,-4.084508,-8.652645,-4.9238024,1.9100775,3.3567507,-8.24563,10.572795,-9.648633
1570715485,-17.693151,-13.215993,-9.006987,-2.9274359,-1.2559851,1.1281495,-12.310986,-4.4101195,-6.5265937
1570715485,-0.5650316,-17.745823,0.10534488,-2.1849241,-2.0006278,0.14381509,6.2009826,-12.339716,4.7022123
1570715485,2.801216,-3.7541082,4.606444,0.067113705,-1.2570504,-0.51666903,9.701305,1.4460979,9.23683
1570715485,22.079329,-3.5865142,-11.501745,2.607847,-1.6011413,-1.9846482,29.017725,2.1547816,-7.627927
1570715485,8.42759,3.715801,2.8491,2.442726,1.4125837,-2.1284633,14.93503,10.16578,6.3302693
1570715485,-5.0900726,2.0350714,0.78529817,2.3021066,2.1625528,-0.9236124,0.9911995,8.99741,4.0557775
1570715485,-14.753071,-8.207323,-6.9048777,0.29402196,1.5287011,0.9118942,-8.839393,-1.13964,-3.5434184
1570715485,-15.763424,-39.810787,9.844957,-0.17044751,3.7189517,2.7165072,-9.696517,-33.17885,13.776237
1570715485,4.8937483,-11.415554,-4.9559975,2.862453,-0.5571503,-2.2914536,10.644621,-4.390966,-1.2401965
1570715486,-6.861782,-21.964407,-22.19425,5.0995765,3.0488799,-1.3976696,-1.6041151,-14.211981,-19.273323
1570715486,-22.797588,-19.627666,-15.088259,5.929443,2.1359203,-2.5631044,-18.229452,-11.171345,-13.125013
1570715486,-13.345281,-6.631939,-12.871228,4.8204684,1.4626527,-2.597194,-9.672575,2.4133554,-11.947066
1570715486,-1.1875241,2.4660277,-12.794614,5.069748,0.44209823,-0.26738954,2.1547816,11.674128,-13.182474
1570715486,-1.1540052,1.8722657,3.667917,3.6497073,0.60402334,-0.7510343,2.135628,10.970232,2.078167
1570715486,-9.332599,17.717093,-7.192182,-1.1217576,0.24927948,-1.5574641,-6.4164605,26.90125,-9.002198
1570715486,-9.375694,3.6822822,-6.7085533,-2.4810765,-0.088419646,-1.4381509,-8.537724,14.872781,-7.627927
1570715486,1.5179238,9.821015,0.50757074,-2.5918674,-2.3298044,-0.091615535,2.4660277,18.789696,-0.91458505
1570715486,0.37349546,1.8387469,-1.0342951,-3.907509,-2.8528652,0.3451562,3.2704794,12.689269,-0.521936
1570715486,-0.9768343,-11.013328,-8.647857,-5.1144905,-3.7839348,0.68498594,0.25857377,0.6703765,-11.568783
1570715486,3.016694,-23.855825,-15.088259,-4.9664145,-2.777229,2.6025205,10.199299,-14.915876,-20.240582
1570715486,-24.693796,-61.119183,-5.142745,-3.4323866,-4.6787844,5.841023,-16.596605,-53.10818,-5.0900726
1570715486,-19.359514,3.1268275,-8.700529,-4.850297,1.3944737,3.1149282,-9.485827,14.135366,-12.607866
1570715486,-15.260642,-9.677363,-6.8905125,-3.2044132,-1.550007,1.7140628,-9.935937,-1.6759412,-0.90021986
1570715486,2.6910827,-14.001291,0.06703765,-1.7385646,-1.0823417,0.9672896,5.9424086,-9.169792,2.2649148
1570715486,10.6158905,-0.59376204,2.992752,-0.27165073,-1.0077709,-0.39096397,14.101848,3.4811692,11.027693
1570715486,23.769634,-4.9943047,-7.192182,1.7620012,-0.8778047,-1.9292527,30.401573,0.89064306,-3.0023289
1570715486,0.9528923,1.7238252,-1.3072342,2.0432396,1.553203,-1.2218956,11.405977,7.1586633,2.3080103
1570715486,-14.341269,1.508347,2.5905263,1.4019308,2.077329,-0.3771151,-6.090849,7.9008656,4.9895163
1570715486,-14.5088625,-14.389153,-5.3199162,1.9036856,2.2072952,0.8937841,-10.970232,-0.36391866,-1.8962077
1570715486,-1.3694834,-26.566063,0.56982,0.52945256,-0.02769772,2.5588431,-2.8443117,-35.946545,9.323022
1570715486,3.41892,-18.416199,-6.191406,3.4973698,1.854682,-2.7463355,11.219229,-11.927913,-4.711789
1570715486,-4.050989,-17.899052,-11.836933,4.896105,3.3141387,-1.7524135,0.8714894,-10.089166,-8.523358
1570715486,-23.851038,-12.995727,-19.85751,5.887896,2.856061,-1.122823,-19.498379,-4.572925,-17.329231
1570715486,-12.20564,-8.255207,-8.954314,5.0782704,1.8887714,-2.5993245,-8.432379,0.7038953,-7.6853876
1570715486,-1.8339585,0.047884032,-12.220005,4.9706755,1.8866409,-0.012783563,2.719813,9.222465,-13.369223
1570715486,-5.899313,-0.6512229,6.1626754,3.5964425,1.0056403,-0.23330003,-1.4508862,7.9870567,4.2425256
1570715486,-15.62456,16.783354,-5.6982,-0.22903883,0.13529271,-0.653027,-11.473015,26.293123,-6.7708025
1570715486,-8.7771435,6.411672,-9.677363,-1.8845103,-0.33237264,-1.6139249,-5.851429,15.691598,-10.898406
1570715486,4.6351743,9.945514,1.8052281,-2.2445807,-2.6824176,-0.7350549,7.1730285,19.37388,0.91458505
1570715486,1.7764976,2.542642,-3.3135753,-4.510467,-2.607847,-0.11824796,4.1802764,12.047623,-3.3423057
1570715486,-0.22984336,-6.38773,-3.1028855,-5.091054,-3.753041,1.0397298,2.3415294,3.0071173,-1.982399
1570715486,7.493851,-19.474436,-29.477411,-6.6751504,-2.533276,1.6117942,10.5919485,-10.515334,-26.953922
1570715486,-20.781672,-53.08424,-10.79785,-4.9823937,-5.316897,7.5295186,-16.084248,-45.19295,-7.3549876
1570715487,-18.0858,11.492168,-14.767436,-5.398925,0.09587672,1.5020686,-12.200851,18.272547,-10.821792
1570715487,-16.601395,-11.918336,-7.991845,-3.8180242,-1.9697341,1.1867408,-10.433931,-6.14831,-3.0023289
1570715487,-5.9184666,-19.077,-8.963891,-1.8578779,-2.5631044,0.72014076,-3.0885203,-12.966996,-1.4030021
1570715487,3.4763808,-2.111686,8.99741,-0.87993526,-0.21518998,-0.6413088,10.261548,2.834735,14.053964
1570715487,18.05707,-2.5570073,-8.815451,2.2754743,-2.024064,-2.6749606,27.341784,2.992752,-4.3718123
1570715487,10.635044,0.090979666,-0.20590134,2.4544442,1.2698339,-2.0475006,16.989256,6.4164605,3.7541082
1570715487,-4.4580035,0.7757214,1.8435353,2.313825,2.2371235,-1.5116564,1.340753,7.690176,5.674258
1570715487,-16.16565,-5.616797,-8.111555,0.527322,1.7343034,0.22477765,-10.7116585,1.5610195,-4.247314
1570715487,-22.950817,-44.038944,11.362882,1.2432015,4.695829,0.8351928,-12.856863,-26.068068,6.703765
1570715487,7.97748,-7.8625584,-6.8665705,1.3603842,-0.18216577,-1.5084604,11.247959,-9.849746,-2.7389667
1570715487,0.11492168,-6.861782,-12.344504,3.900052,2.9338279,-0.8703476,7.603985,-2.0254946,-8.231265
1570715487,-16.232687,-29.731197,-16.840815,5.3360724,2.9125218,-0.8820659,-10.170568,-21.777658,-12.0093155
1570715487,-17.190369,-17.06108,-16.170439,4.347477,1.5510724,-3.3535547,-17.21431,-8.149862,-11.247959
1570715487,-1.3072342,1.8914193,-12.971785,5.2316732,1.7034098,-0.6125457,-0.2825158,11.133038,-11.535264
1570715487,-2.4851813,1.3551182,1.1683705,4.382632,1.4477385,-0.16831692,0.21068975,10.740389,0.29209262
1570715487,-13.8959465,11.563994,-3.8594532,0.43890235,-0.094811425,-0.6231987,-7.2927384,19.07221,-0.9672575
1570715487,-13.718776,8.365341,-4.807557,-2.1827934,-0.39309457,-1.7204546,-13.034034,21.327549,-6.6415157
1570715487,3.572149,9.610326,-2.0925324,-2.47575,-2.4981213,-0.68498594,2.8443117,19.737799,-4.0174704
1570715487,6.3111157,-1.70946,-3.572149,-3.8936603,-2.741009,0.2865649,9.121908,10.314221,-1.9393034
1570715487,-0.45968673,-5.3582234,-2.3175871,-3.7754123,-2.9285014,1.0961906,2.657564,4.0940847,-2.4756045
1570715487,2.360683,-16.424223,-22.40015,-5.940096,-3.4781945,1.4860892,4.5058875,-4.1706996,-14.69561
1570715487,-16.050728,-45.97825,-5.674258,-3.8308077,-4.655348,5.8857656,-12.239159,-37.536293,-2.4372973
1570715487,-16.28536,1.6232687,-12.354081,-5.7824316,-1.5127217,2.3063679,-9.41879,-0.5363012,-7.3645644
1570715487,-8.887277,-8.949526,-7.565677,-2.8241022,0.12996623,1.324164,-3.3375173,-1.8243817,-0.7613561
1570715487,-7.0245876,-16.850391,-4.357447,-1.5041993,-2.7111807,1.248528,-3.667917,-8.872911,-0.56982
1570715487,1.9680338,-8.599973,4.6495395,-1.6533408,-0.67220235,0.41866168,8.595184,-3.145981,9.394848
1570715487,22.179884,-7.8912888,-8.413225,2.7814903,-1.5755742,-1.7556094,28.830976,-2.777274,0.49320555
1570715487,16.065094,3.7301662,-3.1507695,2.8912158,1.0056403,-2.2072952,22.390574,10.13705,0.7230489
1570715487,-3.763685,3.7062242,2.5091233,2.586541,2.1806629,-1.3007276,2.0207062,10.726024,6.1626754
1570715487,-14.642938,-0.4165911,-0.866701,1.1643696,2.3777428,-0.4868407,-9.332599,6.9719152,2.7868507
1570715487,-34.84521,-63.63309,-7.7572136,-0.22051647,3.110667,3.6699479,-29.443893,-56.44091,-3.8402996
1570715487,12.215217,-14.269443,4.7405195,1.4626527,0.47618774,-1.5670518,17.7554,-7.445967,9.083601
1570715487,-0.50278234,-5.78918,-18.871098,5.287069,2.5396678,-1.4573262,4.4675803,1.8148049,-15.184027
1570715488,-19.79526,-30.856472,-10.529699,4.1280255,2.8869548,-0.16831692,-15.308526,-22.716187,-7.393295
1570715488,-13.852851,-4.6782703,-14.96376,4.7767916,2.3841345,-2.9359584,-9.974244,4.10845,-12.981361
1570715488,-3.643975,0.22026655,-12.923901,4.8705378,1.0866029,-0.07244019,-0.32561144,9.44752,-12.933477
1570715488,-4.185065,-1.1300632,-7.422025,4.8225994,1.5670518,-0.122509144,-0.8714894,8.087613,-7.833828
1570715488,-9.217676,7.225701,0.9672575,1.3135111,-0.6796594,-0.57632565,-6.019023,16.414646,-0.25857377
1570715488,-10.443508,11.745954,-5.4779334,-1.9718646,0.27058542,-1.9697341,-7.642292,21.08334,-6.5122285
1570715488,2.6719291,13.680469,-4.606444,-2.1071572,-2.410767,-0.8692823,4.975151,23.195026,-5.104438
1570715488,2.3750482,2.1547816,0.02873042,-4.1450706,-3.1596708,0.37391922,4.673482,11.683704,0.25378537
1570715488,-1.4556746,-6.8665705,-3.1890767,-3.483521,-2.9008036,0.36539686,0.9911995,2.5570073,-2.0398598
1570715488,3.4380736,-14.882358,-15.83525,-4.9355206,-3.1905644,1.2165691,6.3350577,-5.722142,-13.867216
1570715488,-16.084248,-66.25714,-10.213664,-3.7423882,-5.2945256,5.754734,-11.96622,-57.805607,-7.40766
1570715488,-17.252617,4.9799395,-10.979809,-6.083911,-1.980387,3.0936222,-11.860875,12.401965,-7.513005
1570715488,-15.964537,-8.42759,-8.034941,-3.195891,0.7510343,1.0216198,-10.127473,-2.0446482,-3.4045548
1570715488,-3.2848446,-17.530344,-2.6623523,-1.7502829,-2.701593,0.5986969,2.9640217,-11.57836,1.9967642
1570715488,3.6343982,-2.8874073,3.514688,-1.7119322,-0.36752746,0.21412468,10.204087,2.6719291,8.207323
1570715488,11.702858,-0.59855044,-2.882619,1.833376,-1.6693203,-1.2389404,18.32522,5.1810527,1.4556746
1570715488,24.363396,2.9113493,-8.1642275,2.630218,-0.54223615,-2.0070195,28.361713,9.016563,-4.7500963
1570715488,1.733402,0.4165911,3.3039982,2.568431,1.754544,-0.7169448,7.752425,7.359776,6.7229185
1570715488,-6.655881,-5.133168,1.9536686,1.9420363,2.1785321,-0.9193513,0.7374141,2.8874073,4.256891
1570715488,-29.319393,-35.850777,-19.747375,-0.14381509,2.2435153,0.7052266,-19.752165,-14.518439,-14.777013
1570715488,0.18674773,-24.631548,1.2114661,0.9097636,1.4211061,2.4629664,-3.0262709,-21.878216,14.03481
1570715488,4.3861775,-7.144298,-8.183381,3.6827314,-0.94278777,-2.4746847,12.785037,-0.23463176,0.51235914
1570715488,-1.460463,-18.665197,-12.607866,4.5253816,4.2984734,-0.66794115,5.1475334,-5.693412,-13.13459
1570715488,-27.791893,-17.089811,-24.02342,5.7355585,1.8418984,-1.9143386,-22.96997,-12.631808,-19.891027
1570715488,-9.619903,0.6847417,-9.050082,5.015418,0.77340555,-1.7928947,-8.623915,9.619903,-8.576031
1570715488,-3.1124623,-3.371036,-11.736377,4.642564,0.99392205,-0.18642697,0.48362875,4.5202527,-11.827356
1570715488,-5.291186,3.193865,3.064578,2.8656487,1.1324106,-0.5901745,-0.6847417,11.209652,-1.1971009
1570715488,-16.136919,8.446744,-9.481039,-0.22264706,-0.1054644,-1.1973938,-12.698846,16.452953,-8.317456
1570715488,-8.269572,10.6877165,-5.865794,-1.9196651,-0.7041613,-1.3593189,-7.6853876,19.608511,-7.120356
1570715488,8.264784,13.718776,-0.6703765,-3.0222473,-2.777229,-0.8618252,10.630256,23.21418,-1.2880806
1570715488,2.3080103,-2.1452048,-5.056554,-4.501945,-2.6717646,-0.3771151,4.5058875,7.4028716,-4.687847
1570715488,-1.2401965,-8.355764,-3.2848446,-3.4334521,-3.4409091,1.1888714,0.7134721,2.1978772,-2.3750482
1570715488,3.8067808,-21.279665,-20.058622,-5.5768294,-3.9703617,1.7108669,6.7085533,-12.186486,-17.793707
1570715489,-24.698586,-82.4611,-7.929596,-5.216759,-4.5296426,6.4908543,-20.2741,-74.28729,-4.793192
1570715489,-18.229452,11.008539,-11.664551,-4.8332524,1.4903504,4.901431,-11.784261,21.423317,-12.5264635
1570715489,-13.728353,-9.179369,-9.519346,-2.7644455,-0.6839206,1.5063299,-7.8290396,-3.1747115,-4.477157
1570715489,-2.8299465,-22.984337,-3.6008794,-2.1827934,-3.10321,1.2293527,3.7684734,-17.568651,1.2258313
1570715489,5.6407394,-5.3199162,7.723695,-0.9747467,-0.026632423,-0.33024204,12.41633,-0.36870706,12.794614
1570715489,20.192698,-0.56982,-10.625467,2.4597707,-1.8237884,-2.644067,26.920404,4.975151,-6.1387334
1570715489,10.070012,2.5139117,-0.44532153,2.9679172,1.0322727,-2.0325866,16.419436,8.848969,3.514688
1570715489,-2.336741,2.0398598,0.48841715,2.45764,1.7811764,-1.4360203,3.5242648,8.983045,4.1706996
1570715489,-14.015656,-0.23463176,-0.7469909,1.3369477,1.7343034,-0.7254672,-8.628703,7.1251445,2.858677
1570715489,-11.013328,-28.88365,1.0295067,1.0312074,3.6241403,1.0972558,-5.731719,-21.538239,4.817134
1570715489,-6.3063273,-30.176517,-5.889736,0.78192794,-1.1899366,0.3792457,-1.115698,-22.850262,-1.934515
1570715489,9.184157,7.5561004,-12.962208,2.1412468,1.7417605,-1.4434774,14.092271,15.255854,-9.394848
1570715489,-15.160085,-27.56205,-15.251065,5.406382,1.9207304,-0.058591332,-10.5440645,-19.37388,-12.440272
1570715489,-25.656265,-17.597382,-7.4603324,5.055899,0.7925809,-4.0257573,-21.763294,-8.75799,-5.7508726
1570715489,-3.1603463,1.3311762,-10.31901,3.8862033,0.7638179,-2.880563,-0.2777274,10.673351,-9.548077
1570715489,1.3599066,-1.6519991,-14.240712,4.3815665,1.5766394,-0.7883197,2.2888567,7.52737,-14.628572
1570715489,-5.032612,12.215217,4.012682,2.43953,0.39522517,-0.4889713,-2.705448,21.638796,2.6384103
1570715489,-14.130578,16.328455,-2.6767175,-2.4320729,0.82880104,-1.0525134,-11.971008,25.828648,-3.763685
1570715489,-0.63206923,8.049306,-1.2018893,-3.0041373,-2.106092,-0.7691444,1.1587936,17.683575,-1.508347
1570715489,2.231396,-1.1540052,-0.0047884034,-4.0257573,-2.5620391,0.5156037,4.036624,8.465898,0.59376204
1570715489,1.7860745,-6.9527617,-6.8569937,-3.3791218,-2.3543062,1.036534,4.1180267,2.566584,-4.721366
1570715489,1.9249382,-5.1523223,-8.322245,-2.7218337,-1.6959528,2.6451323,4.1946416,5.0038815,-6.0621185
1570715489,0.10055647,-25.22052,-17.48725,-4.912084,-2.0027583,4.3187137,7.7189064,-11.104307,-14.03481
1570715489,-28.802246,-51.805737,-8.762778,-4.55734,-3.5857894,3.357816,-25.306711,-56.50316,-8.978256
1570715489,-21.667526,0.4405331,-0.062249243,-5.101707,0.7670138,2.6856136,-18.344374,9.404425,4.4196963
1570715489,-10.716447,-11.918336,-11.980585,-1.5734435,-1.453065,0.37178862,-3.4524388,-5.9519854,-7.297527
1570715489,0.7182605,-18.765753,-0.866701,-1.3262947,-2.9785702,0.5475626,7.216124,-13.263878,3.9983168
1570715489,9.179369,-1.7381904,2.2649148,-0.39309457,-1.054644,-1.1377372,15.8304615,3.5817258,7.1155677
1570715489,21.988348,0.89543146,-9.916783,2.3159556,-1.0557092,-2.8177104,29.84133,3.6487634,-7.714118
1570715489,1.4891934,6.019023,3.0310593,2.9508724,1.366776,-0.9481143,10.821792,12.349293,6.2392898
1570715489,-10.232818,0.7086837,-0.5363012,1.7193892,3.0616634,0.0031958907,-2.9831753,8.580819,4.003105
1570715489,-28.289886,-36.999992,-4.146757,0.19814523,3.5815282,0.8266704,-19.871874,-17.18558,-4.0462008
1570715489,2.6288335,-15.418659,-2.695871,0.95131016,1.043991,0.091615535,4.8985367,-15.471332,-2.5474305
1570715489,-1.8387469,-8.810662,-14.700398,3.3045511,-0.32704616,-2.1210063,5.267244,0.0,-4.247314
1570715490,-7.565677,-23.942017,-12.023681,4.2611876,2.8251674,-1.8461596,-2.1691468,-16.16565,-9.533711
1570715490,-17.444153,-17.48725,-17.879898,5.0037,1.8845103,-3.0478146,-13.699622,-8.690952,-15.677233
1570715490,-8.346188,-1.0773908,-11.123461,4.9397817,1.3891472,-1.6821039,-5.3582234,8.1881695,-9.964667
1570715490,-2.5905263,-2.1021092,-11.180922,4.7501593,1.6746467,-0.6583535,0.10534488,7.321469,-11.267113
1570715490,-5.449203,4.074931,4.8937483,2.321282,0.9491796,-0.9150901,-2.96881,13.508086,3.8833952
1570715490,-13.804967,15.088259,-4.620809,-1.1185617,0.57632565,-0.9044371,-11.549629,24.574087,-5.6359506
1570715490,0.61770403,9.868899,-3.1794999,-2.5780187,-1.7140628,-0.52519137,0.23942018,18.061857,-4.1706996
1570715490,4.3957543,5.899313,0.5554548,-3.6752744,-2.4246159,0.25034478,6.3302693,15.50485,0.89543146
1570715490,-0.8714894,-6.244078,-5.8466406,-3.6901886,-2.1114185,0.61361104,1.2545617,3.2321723,-4.510676
1570715490,-0.30645782,-7.417237,-5.1235914,-3.1159935,-2.877367,2.0475006,2.2984335,1.8052281,-3.0597897
1570715490,-1.2210429,-28.85492,-25.263617,-5.108099,-3.5101533,3.648642,2.3654714,-20.231005,-22.266075
1570715490,-24.794353,-47.275906,-0.7565677,-4.9280634,-3.053141,3.7051027,-19.574993,-39.7629,2.7820623
1570715490,-17.597382,-0.17717093,-4.7884035,-4.1748986,2.3234127,3.1223853,-11.841722,6.220136,-0.08140286
1570715490,-10.563218,-12.876017,-10.563218,-1.4775668,-2.138051,0.87886995,-4.5633483,-7.019799,-5.4683566
1570715490,3.916914,-13.005303,0.14844051,-1.6043372,-1.7332381,0.5614115,10.405201,-7.5082164,5.032612
1570715490,8.269572,-2.0111294,0.8331822,1.0482522,-0.8266704,-1.0056403,14.767436,3.4380736,5.7508726
1570715490,19.627666,2.9879637,-10.97502,2.7037237,-1.3731678,-2.6600463,25.962723,9.184157,-6.775591
1570715490,4.548983,3.5577838,1.3551182,2.640871,1.4051267,-1.5116564,10.43872,10.448297,5.0900726
1570715490,-5.171476,-0.6560113,3.9743748,1.7896988,2.1295285,-1.1547819,-1.4413095,6.670246,7.603985
1570715490,-18.995596,-11.027693,-10.400413,0.39842105,1.4232367,0.37498453,-11.022904,2.087744,-2.954445
1570715490,-12.129025,-41.070137,5.195418,0.48151422,1.6906263,1.7715888,-7.1107793,-33.6529,9.198523
1570715490,13.79539,4.6686935,-8.508993,2.3234127,1.1462595,-1.6714509,18.641254,12.334928,-4.7788267
1570715490,-2.882619,-8.264784,-10.682928,5.0644217,3.2875063,0.25780186,5.66947,3.1603463,-7.920019
1570715490,-25.49825,-27.11194,-12.330139,6.148894,2.8219717,-1.9974318,-16.749836,-23.290794,-14.274231
1570715490,-13.230358,-6.2488666,-15.9022875,3.771151,1.4200408,-2.2946496,-14.279019,1.2593501,-13.632585
1570715490,0.6655881,-1.3120226,-12.89517,4.835383,0.6189375,-0.5134731,3.6535518,8.149862,-11.080365
1570715490,-2.60968,2.1068976,-0.10055647,4.0374756,1.5372235,-0.6168069,0.6895301,9.543288,-5.78918
1570715490,-14.681245,12.74673,-7.0245876,-0.6945736,0.25886714,-0.74038136,-8.279149,20.791248,-3.145981
1570715490,-8.394072,6.066907,-3.7684734,-2.2552335,-0.35687447,-1.7119322,-9.02614,16.476896,-5.4204726
1570715490,5.5641246,11.980585,0.095768064,-2.4672277,-2.7942739,-0.4154658,5.947197,21.107283,-0.9576807
1570715490,1.3263878,0.7134721,-4.156334,-4.315518,-2.7388785,0.47192654,4.175488,12.339716,-2.4420857
1570715490,-2.006341,-9.739613,-6.71813,-4.1344175,-3.2225232,1.3859513,-0.272939,2.3894134,-2.9879637
1570715490,3.2465374,-29.233202,-28.649017,-5.9326386,-3.063794,2.3841345,8.058883,-13.144167,-19.809626
1570715491,-26.00582,-62.134323,-0.4165911,-3.5687447,-3.7935224,5.7408853,-18.540697,-55.957283,0.51714754
1570715491,-19.144037,6.4068837,-12.483368,-4.4689207,0.7851238,3.3301182,-11.535264,14.417883,-11.947066
1570715491,-15.7825775,-9.41879,-7.771579,-2.8454082,-1.6405573,1.3976696,-9.945514,-1.0534488,-1.3024458
1570715491,-1.5035586,-18.684351,-0.7278373,-1.3081846,-1.8962286,0.57952154,0.94331545,-13.072341,2.0398598
1570715491,4.462792,-1.3982137,5.0182467,-1.0130974,-0.6317211,-0.40268224,9.136273,1.9297266,11.228806
1570715491,19.962854,-1.2449849,-7.3885064,2.098635,-1.9335139,-2.171075,26.537333,4.4723687,-2.8921957
1570715491,17.673998,3.2992098,-0.92416185,2.389461,0.818148,-1.4796975,23.946806,9.706094,3.0310593
1570715491,-4.381389,-2.0350714,-0.9864111,2.22434,1.9249916,-0.5571503,3.3423057,5.6790466,2.8443117
1570715491,-17.262194,-5.6646814,-4.759673,1.0748847,2.3724163,0.033024207,-11.626244,1.412579,-0.9672575
1570715491,-16.002844,-38.556225,13.2351465,2.425681,4.686241,-0.119313255,-10.726024,-31.344889,17.281347
1570715491,0.24899697,-13.469779,-5.185841,1.2016549,0.02130594,0.38670278,5.568913,-6.3206925,-1.091756
1570715491,-2.6048915,-8.532935,-12.995727,3.2235885,2.0102153,-1.1718266,2.3654714,-0.9624691,-9.23683
1570715491,-12.990938,-27.384878,-14.020445,5.3914676,2.554582,-1.4232367,-8.542512,-19.167978,-11.032481
1570715491,-21.705833,-17.702728,-18.20551,4.1344175,0.8778047,-3.1884336,-18.167202,-8.7532015,-16.299725
1570715491,-0.038307227,0.521936,-11.358093,5.3722925,1.0503827,-1.5734435,2.8107927,9.873688,-10.649409
1570715491,-0.19153613,-0.23463176,-6.4643445,5.009026,1.7641318,-0.20027582,2.4995465,9.169792,-7.129933
1570715491,-10.67814,12.751518,-1.6567876,0.68605125,-0.12144385,0.12783563,-7.9583263,22.069752,-3.040636
1570715491,-14.42746,9.77792,-4.8362875,-2.20623,0.2791078,-1.180349,-11.841722,19.182344,-5.8226986
1570715491,-1.0151415,7.1107793,-1.5514427,-2.29678,-2.2467113,-1.2506586,-0.91937345,16.108189,-3.3423057
1570715491,1.685518,3.8163576,0.047884032,-3.9405334,-3.0914917,-0.07137489,3.7301662,13.397953,0.37349546
1570715491,-0.9624691,-5.2720323,-2.3942018,-3.9139009,-3.598573,0.50708133,1.2162545,4.19943,-1.1109096
1570715491,2.5713725,-13.445837,-14.681245,-5.0037,-3.7988489,1.0599705,3.098097,-2.2888567,-8.413225
1570715491,-13.192051,-41.984722,-7.2352777,-3.5357206,-4.006582,6.2010937,-9.241618,-33.605015,-4.0078936
1570715491,-12.378023,-26.776752,-10.97502,-3.6539686,-3.490978,2.5599086,-11.482592,-31.852459,-2.906561
1570715491,-17.238253,-11.405977,-4.4963107,-4.5871687,0.5912398,1.485024,-11.530476,-4.8745947,0.08140286
1570715491,-13.120225,-18.952501,-2.944868,-2.3063679,-1.5265706,1.1473248,-9.749189,-12.344504,-0.320823
1570715491,2.4851813,-8.51857,-0.91458505,-1.4093878,-1.2389404,0.6828553,7.6470804,-5.9041014,4.3047748
1570715491,13.019669,-0.89543146,-1.9919758,1.2240262,-1.3028581,-0.7254672,16.51999,6.1387334,4.3861775
1570715491,21.978771,-3.845088,-7.762002,2.098635,-0.33876443,-1.6938221,29.30024,1.8770541,-3.596091
1570715491,2.4516625,0.41180268,2.1212628,2.6504588,1.3422742,-1.277291,11.631032,6.14831,6.4547677
1570715491,-10.606314,-0.272939,-1.8962077,2.5417986,2.92424,-0.60189277,-3.016694,7.0485296,1.8914193
1570715491,-18.018763,-16.658855,-1.1444284,1.4594568,2.540733,0.5986969,-12.401965,-3.3758245,1.0247183
1570715491,0.45489833,-22.132,-0.33518824,0.7052266,1.9686687,2.482142,-1.4652514,-24.02342,4.8985367
1570715492,-0.58897364,-9.940725,-6.6750345,3.404689,0.33450323,-0.95557135,8.628703,-0.23942018,-0.641646
1570715492,-15.682021,-20.824766,-19.780895,4.7661386,4.104589,-0.79471153,-9.275137,-13.575124,-20.66675
1570715492,-20.451271,-12.143391,-14.738706,5.3754883,1.0652969,-2.3926568,-18.411411,-5.0900726,-7.6614456
1570715492,-13.034034,-9.26556,-13.297397,4.409264,0.95024484,-2.209426,-9.404425,-0.22026655,-12.200851
1570715492,1.9009962,0.92895025,-11.51611,4.793836,0.5986969,-0.5986969,4.3478703,10.208876,-12.109872
1570715492,-1.7142484,3.8594532,10.6398325,2.6983972,0.05219955,-1.1153659,2.825158,9.174581,6.7612257
1570715492,-18.784906,18.828003,-9.524135,-2.0027583,0.7265325,-1.1526513,-14.772224,27.973852,-10.175357
1570715492,-9.921572,10.213664,-9.14585,-3.3535547,-1.646949,-1.6831691,-7.565677,19.709068,-9.77792
1570715492,4.606444,5.674258,-1.9871874,-3.9064438,-3.785,-0.88845766,6.033388,17.075447,-1.2354081
1570715492,2.4516625,-3.6822822,-6.943185,-3.956513,-3.7679553,-0.5017549,4.3622355,6.588843,-5.626374
1570715492,8.896853,-7.8050976,-8.614338,-4.1418743,-4.0715647,1.5990107,8.791509,2.0398598,-5.6359506
1570715492,7.3789296,-17.362751,-30.95224,-5.610919,-4.0193653,4.1024585,10.453085,-8.561666,-27.906815
1570715492,-32.51326,-78.14195,-17.041927,-4.157854,-3.0851,5.9677935,-27.313053,-70.66247,-13.402741
1570715492,-22.835896,2.72939,5.257667,-4.9919815,2.6238263,3.6901886,-17.18558,8.99741,10.247183
1570715492,-11.60709,-13.948619,-9.710882,-1.6650591,-1.9473628,1.3071194,-5.57849,-8.418014,-4.295198
1570715492,4.6016555,-15.466543,-1.541866,-1.3252294,-1.4903504,0.8298663,11.142614,-10.333375,3.6535518
1570715492,10.443508,-4.4244847,-0.866701,1.5521376,-0.95663667,-1.1079088,17.022774,0.7278373,4.256891
1570715492,22.026655,-0.90979666,-8.829816,2.9966803,-0.62639457,-2.2040994,28.438328,5.046977,-4.405331
1570715492,-0.91937345,2.2984335,-1.067814,2.9370236,1.7673277,-1.0961906,5.0661306,8.896853,3.0262709
1570715492,-13.259089,-0.6655881,-1.8195933,1.4775668,2.877367,-0.5784562,-7.7811556,6.3685765,2.2649148
1570715492,-12.143391,-20.168755,1.0199299,2.9263706,2.707985,0.014914157,-6.95755,-12.928689,5.1379566
1570715492,-9.5385,-35.90345,-11.822568,0.23010413,0.45807767,0.81708276,-4.697424,-28.395231,-7.7667904
1570715492,3.083732,11.224017,-12.047623,2.4299424,1.7460216,-0.54543203,7.843405,18.971655,-8.384495
1570715492,-13.196839,-23.305159,-12.004527,5.295591,2.8326244,-0.13635801,-8.66701,-15.140931,-8.992621
1570715492,-22.543802,-18.20551,-5.2241483,5.9997525,1.9707993,-4.213249,-18.880674,-9.303867,-3.3327289
1570715492,-9.337387,-1.1061212,-14.518439,4.727788,1.0109668,-1.2922052,-6.38773,8.212111,-13.761871
1570715492,-2.6384103,-3.2082303,-10.884041,4.892909,1.4519997,-0.23756121,1.4796166,8.264784,-13.330915
1570715492,-6.8330517,3.169923,8.63828,3.06699,0.2769772,-0.38670278,-1.6903064,9.361329,5.602432
1570715492,-12.794614,15.8304615,-6.727707,-1.5723783,0.12357444,-1.7438911,-10.328587,25.196579,-8.264784
1570715492,2.801216,15.672444,-4.357447,-3.195891,-2.5109048,-1.004575,4.759673,25.244463,-5.171476
1570715492,3.169923,2.1930888,-3.8881836,-5.1933227,-3.4536927,-0.0031958907,5.032612,11.812991,-3.6391866
1570715492,-0.019153614,-8.48984,-5.583278,-4.1493316,-3.1841726,0.20027582,2.681506,1.5131354,-6.2392898
1570715492,5.9519854,-16.242264,-16.079458,-4.964284,-3.6582296,1.1451942,7.1155677,-6.622362,-10.630256
1570715492,-6.172252,-31.574732,-2.5091233,-4.017235,-4.5509486,6.6410613,-9.730036,-37.39743,-2.15957
1570715493,-18.995596,-15.945383,-16.409859,-5.8548717,-2.418224,3.142626,-15.102624,-29.338547,-7.8912888
1570715493,-20.187908,-5.3247046,-2.3702598,-3.8915298,0.87460876,1.7918295,-17.616535,0.56982,4.6495395
1570715493,-6.1387334,-17.357962,-4.927267,-1.5382888,-2.024064,0.8234745,-2.5809495,-10.850522,-1.685518
1570715493,5.511452,-6.0716953,3.5529952,-1.3582536,-1.1217576,0.26312834,12.650962,-4.975151,6.8330517
1570715493,21.514296,-5.645528,-7.1730285,2.575888,-1.7673277,-1.998497,25.598804,-0.44532153,0.30166942
1570715493,12.722788,2.0925324,-0.01436521,2.9316971,1.1899366,-2.0517619,22.7928,7.575254,1.3072342
1570715493,-2.542642,2.0350714,0.7374141,2.8496692,2.3127596,-1.0770152,3.2082303,9.811439,4.817134
1570715493,-15.95496,-1.5370775,-4.2425256,0.6945736,2.0581536,-0.18216577,-8.571242,7.675811,2.0159178
1570715493,-20.561403,-41.18506,7.0724716,1.4594568,4.9419127,0.8405193,-13.148955,-22.203827,1.9728222
1570715493,5.6359506,-9.476251,-2.6862943,1.32736,-0.2087982,-0.13529271,7.680599,-9.437943,0.8331822
1570715493,-1.0773908,-10.7116585,-11.664551,3.203348,0.3504827,-2.24245,3.7493198,-3.0214825,-7.953538
1570715493,-12.172121,-25.25404,-12.665327,5.8548717,2.719703,-1.1441289,-7.97748,-16.812084,-9.950302
1570715493,-17.798496,-23.951593,-18.32522,4.501945,1.4860892,-3.96397,-14.451402,-14.839262,-16.907852
1570715493,3.8067808,5.4779334,-15.1696615,5.6268983,1.7928947,-0.9417225,4.735731,13.891158,-11.540052
1570715493,0.14844051,2.906561,-5.793968,5.467104,1.9782565,0.25780186,2.6527755,12.29662,-7.067683
1570715493,-13.077129,14.5088625,-4.721366,-0.4506206,0.30680552,-0.26952013,-6.3111157,22.457611,-0.47884035
1570715493,-16.352398,5.463568,-5.583278,-2.769772,0.3419603,-1.0067056,-13.924677,14.848839,-7.0485296
1570715493,-3.0502129,6.8905125,-0.56982,-2.8731058,-2.116745,-0.77766675,-0.93373865,16.43859,-1.2737153
1570715493,4.606444,1.1971009,-0.30166942,-3.4845862,-3.1863031,-0.27271602,6.5265937,10.812215,-0.2681506
1570715494,-2.7389667,-8.796297,-4.783615,-4.012974,-3.953317,0.9715508,-0.6560113,0.7422025,-3.8738184
1570715494,-2.7389667,-8.796297,-4.783615,-4.012974,-3.953317,0.9715508,-0.6560113,0.7422025,-3.8738184
1570715494,-1.3215994,-11.884817,-7.417237,-4.2984734,-4.0097775,1.0844723,-0.6560113,0.7422025,-3.8738184
1570715494,-1.3215994,-11.884817,-7.417237,-4.2984734,-4.0097775,1.0844723,-0.6560113,0.7422025,-3.8738184
1570715494,-1.3215994,-11.884817,-7.417237,-4.2984734,-4.0097775,1.0844723,-0.6560113,0.7422025,-3.8738184
1570715494,-1.3215994,-11.884817,-7.417237,-4.2984734,-4.0097775,1.0844723,-0.6560113,0.7422025,-3.8738184
1570715494,-1.3215994,-11.884817,-7.417237,-4.2984734,-4.0097775,1.0844723,-0.6560113,0.7422025,-3.8738184
1570715494,-1.3215994,-11.884817,-7.417237,-4.2984734,-4.0097775,1.0844723,-0.6560113,0.7422025,-3.8738184
1570715494,-1.3215994,-11.884817,-7.417237,-4.2984734,-4.0097775,1.0844723,-0.6560113,0.7422025,-3.8738184
1570715494,-1.3215994,-11.884817,-7.417237,-4.2984734,-4.0097775,1.0844723,-0.6560113,0.7422025,-3.8738184
1570715494,-1.3215994,-11.884817,-7.417237,-4.2984734,-4.0097775,1.0844723,-0.6560113,0.7422025,-3.8738184
1570715494,-1.3215994,-11.884817,-7.417237,-4.2984734,-4.0097775,1.0844723,-0.6560113,0.7422025,-3.8738184
1570715494,-1.3215994,-11.884817,-7.417237,-4.2984734,-4.0097775,1.0844723,-0.6560113,0.7422025,-3.8738184
1570715494,-1.3215994,-11.884817,-7.417237,-4.2984734,-4.0097775,1.0844723,-0.6560113,0.7422025,-3.8738184
1570715494,-1.3215994,-11.884817,-7.417237,-4.2984734,-4.0097775,1.0844723,-0.6560113,0.7422025,-3.8738184
1570715494,1.6711528,-14.867992,-11.334151,-4.753355,-4.0161695,1.1111047,3.8977604,-5.3965306,-10.079589
1570715494,2.7150247,-22.505495,-11.683704,-3.8872685,-3.9064438,5.014353,5.693412,-13.464991,-18.430565
1570715494,-18.26297,-45.52814,-3.8546648,-4.0353446,-4.8726683,4.7373753,-13.383588,-37.497986,-1.043872
1570715494,-25.239674,-13.192051,-3.169923,-5.4266224,2.7314212,2.8603222,-19.656397,-6.133945,0.7326257
1570715494,-14.374787,-16.318878,-6.2823853,-2.7559233,-2.389461,1.0834069,-8.350976,-10.0508585,-1.7381904
1570715494,7.5225816,-10.654198,1.5610195,-2.0901127,-1.5436152,0.77340555,13.958196,-4.7979803,6.081272
1570715494,24.74168,-4.7884035,-4.357447,1.5734435,-1.8493555,-1.6203166,31.253908,1.0726024,0.038307227
1570715494,17.013197,2.7341783,-2.954445,2.486403,0.886327,-2.324478,23.127989,9.375694,0.866701
1570715494,-5.722142,2.1404164,0.16759412,2.6802871,2.47575,-0.61041516,-0.062249243,9.303867,3.7445314
1570715494,-19.431341,-1.6232687,-2.7341783,0.64237404,1.5020686,0.3483521,-14.077906,5.7269306,0.93373865
1570715494,-0.91937345,-27.557262,6.631939,2.3734815,4.1450706,0.05219955,4.31914,-20.140024,10.333375
1570715494,-18.59337,-34.45735,-12.823344,-0.21518998,-0.044742472,1.6874304,-13.723564,-26.848577,-8.99741
1570715494,-0.45489833,2.0973208,-10.941502,1.7556094,1.5681171,-0.85862935,4.4005427,9.864111,-7.445967
1570715494,-9.682152,-34.993652,-12.028469,5.5374136,2.1476386,-1.6703856,-5.2624555,-26.680984,-9.26556
1570715494,-17.180792,-20.269312,-8.963891,5.044181,3.0989487,-4.157854,-13.876793,-11.180922,-7.311892
1570715494,-10.520123,0.33039984,-16.342821,5.388272,2.2467113,-1.5862272,-11.501745,3.1268275,-18.483236
1570715494,3.3854012,0.009576807,-4.9943047,5.9752507,1.697018,0.1384886,7.4268136,10.970232,-10.620679
1570715494,-11.109096,13.292608,0.023942016,0.32491556,0.39629045,0.34089503,-4.8602295,20.321983,3.3279405
1570715494,-17.99482,8.690952,-6.9240313,-3.7136252,-0.28123838,-1.5894231,-17.84638,20.298042,-7.747637
1570715494,-3.5913026,9.356541,-5.4539914,-3.4920433,-2.8944118,-1.0077709,-3.8019924,19.761742,-7.019799
1570715494,4.654328,-0.9624691,-3.0693667,-3.7136252,-4.434831,-0.41440052,6.3206925,9.864111,-1.9201498
1570715494,1.4652514,-4.7788267,-4.7548847,-3.527198,-4.585038,0.7797974,3.5051112,6.1626754,-2.1739352
1570715494,8.935161,-17.721882,-21.499931,-5.2316732,-3.332249,2.389461,13.393165,-7.9248075,-17.48725
1570715494,-21.763294,-63.719284,-13.8959465,-3.8371994,-5.0324626,7.8160834,-11.343728,-43.79474,-7.2209125
1570715494,-22.414516,2.825158,-7.896077,-4.717135,1.9686687,2.389461,-13.891158,6.4020953,-13.297397
1570715494,-15.222335,-9.32781,-3.145981,-2.5375373,-1.1419983,1.1377372,-11.382035,0.0,5.5976434
1570715494,-3.193865,-15.696386,-1.9632454,-0.56780326,-2.2701478,0.68924713,0.02873042,-8.968679,1.3742718
1570715494,6.4882865,-3.1268275,8.465898,-0.13529271,-0.58378273,-0.32278496,10.6637745,1.5945383,14.465767
1570715494,25.886108,-1.1875241,-13.168109,2.4139628,-2.024064,-2.2573643,31.201237,3.193865,-7.0724716
1570715494,6.909666,2.8443117,1.9488802,2.4459217,1.7087363,-1.4701098,17.075447,8.848969,4.7884035
1570715494,-5.544971,-0.320823,-2.930503,2.5801492,2.837951,-0.5869786,1.8243817,7.632715,3.9312792
1570715494,-15.255854,-9.830592,-9.648633,0.49216717,2.9082606,0.5571503,-10.007763,-2.360683,-6.0621185
1570715495,-16.515203,-31.201237,2.111686,1.0088362,2.2839966,4.010843,-26.915615,-39.466022,10.601525
1570715495,1.6998832,-3.8163576,2.360683,2.1284633,0.30147904,-0.92148185,7.091625,3.371036,6.2823853
1570715495,-8.628703,-18.253393,-16.361975,5.63116,1.7428257,-1.6650591,-2.2409728,-7.153875,-15.35641
1570715495,-20.891804,-22.97476,-4.912902,4.4923573,1.9857135,-3.3120081,-16.587029,-14.389153,-2.9113493
1570715495,-6.9048777,-4.5202527,-14.164097,3.7935224,2.142312,-3.0435534,-3.6391866,4.6495395,-12.981361
1570715495,0.4309563,3.8881836,-12.789825,5.394664,1.7343034,-0.34302562,3.2752678,13.268666,-12.77546
1570715495,-1.5466543,5.2480903,7.1251445,4.312322,0.9726161,-0.0063917814,1.3503298,14.518439,5.770026
1570715495,-18.23424,14.882358,-11.745954,-0.8138869,0.419727,-0.33876443,-15.32768,24.109612,-13.335704
1570715495,-9.006987,7.560889,-6.4260373,-2.4917295,-1.2506586,-1.2751604,-6.38773,16.955736,-7.422025
1570715495,6.9383965,8.355764,3.6008794,-2.701593,-2.5812144,-0.4538165,9.294291,17.860744,3.107674
1570715495,2.3894134,-1.0726024,-2.834735,-3.789261,-2.9253054,0.33130735,5.315128,10.266336,-0.7517793
1570715495,-0.01436521,-10.692505,-8.781932,-3.7679553,-3.1618013,1.7566746,2.7102363,-1.3359646,-7.656657
1570715495,0.46447513,-22.012291,-31.182083,-5.1858654,-4.545622,3.486717,3.9935284,-13.125013,-28.998571
1570715495,-24.961946,-60.439228,0.61291564,-4.474247,-3.9959288,4.6361723,-19.661184,-52.619766,3.2465374
1570715495,-22.266075,1.8100165,-3.2609026,-4.9568267,1.9441669,3.9298804,-16.19917,8.619126,0.34476504
1570715495,-14.058752,-10.381259,-9.730036,-2.8422122,-2.0847862,1.012032,-8.552089,-1.9297266,-4.6686935
1570715495,4.4484267,-19.388245,4.0414124,-2.3553715,-2.4086363,0.12463974,11.27669,-13.666103,8.1402855
1570715495,27.839777,-8.844181,-4.3718123,-0.015979454,-1.6267084,-1.8429637,34.677616,-3.1651347,-0.22984336
1570715495,22.256498,3.3854012,-6.7324953,1.628839,-0.81069094,-2.6579158,33.40869,9.002198,-5.8801594
1570715495,0.5746084,4.012682,-2.0638018,3.2385027,1.7683929,-1.0663623,9.23683,11.262324,3.4524388
1570715495,-12.440272,1.1252748,4.309563,2.1476386,3.889399,-0.24821419,-4.4675803,8.058883,5.7269306
1570715495,-16.831238,-16.730682,-7.785944,0.5134731,2.0549579,0.8021686,-15.873557,-4.8027687,-4.122815
1570715495,-21.600489,-47.907974,-4.3287168,-0.72014076,2.1007655,1.5201787,-16.342821,-40.58172,-0.46447513
1570715495,3.3806129,0.94331545,-8.561666,0.60402334,-0.6967042,-1.6980833,7.0245876,1.3934253,-3.241749
1570715495,-7.97748,-9.844957,-8.963891,4.942978,2.880563,-1.1313454,2.183512,3.821146,-6.081272
1570715495,-20.652384,-30.363266,-9.361329,4.868407,1.890902,-3.4973698,-14.446613,-25.306711,-8.552089
1570715495,-8.159439,-5.530606,-17.592594,4.3890233,1.6597326,-2.593998,-7.5225816,-2.4947581,-16.577452
1570715495,0.110133275,-0.4309563,-12.248735,5.403186,1.0812764,-0.9385266,3.2992098,10.505757,-12.938266
1570715495,-3.9791632,4.2521024,8.130709,3.6145525,0.9406572,-0.5347791,0.2777274,11.295844,2.9783869
1570715495,-21.677103,12.607866,-8.805874,-0.6210681,0.21625528,-0.3526133,-18.698715,21.906946,-11.281479
1570715495,-5.544971,11.760319,-6.4068837,-2.4384646,-1.5968801,-1.8568126,-6.588843,20.226215,-7.8912888
1570715495,6.167464,10.922348,2.1978772,-3.6614256,-3.3184,-0.4825795,7.896077,22.907722,0.80445176
1570715495,-0.6751649,-4.367024,-2.1978772,-4.2963424,-3.6656868,0.031958908,1.6376339,7.52737,-1.4700398
1570715495,7.690176,-22.208614,-17.611748,-4.6787844,-3.106406,0.53797495,8.025364,-11.899182,-13.077129
1570715496,1.9536686,-25.234886,-15.610195,-3.8052406,-4.59356,4.799163,4.654328,-16.247053,-12.751518
1570715496,-21.748928,-45.757984,-10.955867,-3.3269224,-5.3009176,4.9195414,-17.00362,-37.79008,-7.752425
1570715496,-24.325089,-11.7268,-3.1890767,-4.064108,3.436648,2.837951,-18.914194,-4.644751,0.90979666
1570715496,-9.792285,-15.600618,0.29209262,-1.9175345,-1.9569504,0.6903124,-6.9719152,-8.7771435,2.9975405
1570715496,3.6343982,-8.983045,0.59376204,-1.3635801,-1.7449564,0.49003658,9.768343,-2.815581,5.1235914
1570715496,14.03481,3.1603463,-0.5554548,1.1675655,-1.6490797,-1.406192,17.492037,9.821015,6.7708025
1570715496,25.368961,6.4164605,-8.576031,1.772654,-1.2634422,-2.5481904,31.37362,13.144167,-4.7261543
1570715496,6.191406,0.49320555,4.0078936,2.3798733,1.3262947,-0.57526034,11.803414,7.714118,7.5321584
1570715496,-6.315904,-8.403648,-1.8195933,1.7321728,2.3148901,0.05113425,-0.92416185,-0.9624691,1.6136919
1570715496,-22.898146,-19.948488,-14.777013,0.7169448,1.2527891,1.1132354,-16.261417,-7.4603324,-8.5473
1570715496,0.50757074,-18.286913,4.7979803,0.243953,3.0009415,3.2385027,5.8705826,-11.319786,9.136273
1570715496,-3.265691,-12.047623,0.63206923,3.5495694,0.60402334,-1.0013791,1.9057846,-4.817134,4.76925
1570715496,-12.660539,-20.101717,-22.668303,4.50088,2.9221096,-0.8991106,-7.795521,-12.186486,-19.52232
1570715496,-24.751257,-16.189592,-20.920534,5.32755,1.1920673,-2.777229,-20.547039,-7.632715,-18.607735
1570715496,-12.076353,-11.013328,-11.501745,4.6063437,2.29678,-2.9625907,-10.654198,-1.0486604,-11.281479
1570715496,-1.661576,2.3415294,-12.794614,5.6599226,0.74464256,-0.2823037,1.1731589,11.7268,-12.856863
1570715496,-1.2737153,2.8778305,3.8738184,3.6433156,0.56247675,-0.26738954,1.5658079,12.157756,2.4708161
1570715496,-13.369223,13.172897,-7.335834,-0.7989727,0.04154658,-1.3177723,-10.726024,22.467188,-9.006987
1570715496,-11.870452,11.066,-8.322245,-2.6994624,-0.49216717,-1.3284253,-11.449073,20.599712,-9.179369
1570715496,5.3678,6.861782,1.0486604,-3.2065437,-2.877367,-0.21305938,7.4028716,16.443377,0.6368576
1570715496,1.5945383,-2.9783869,-4.6160207,-3.5282636,-3.2928329,0.2865649,3.6631286,6.5936313,-4.1946416
1570715496,2.7389667,-9.423578,-6.129156,-3.7221475,-3.4643457,1.6906263,5.171476,0.0,-4.9416323
1570715496,6.4499793,-21.5957,-25.354595,-5.641813,-3.3301182,3.3269224,9.299079,-12.631808,-22.950817
1570715496,-26.403255,-73.7893,-11.856087,-4.9206066,-4.7203307,7.1875587,-14.743494,-55.44971,-9.89763
1570715496,-23.03222,14.863204,-6.8761473,-5.533152,0.67539823,2.8944118,-14.757859,16.381128,-8.298303
1570715496,-15.413871,-12.229582,-10.740389,-3.5293288,-1.6139249,0.6828553,-11.099519,-1.8291701,-3.8833952
1570715496,-1.6519991,-22.926876,-2.231396,-1.7577399,-2.8134491,0.43464115,1.1061212,-15.887922,1.1109096
1570715496,5.66947,-5.731719,6.919243,-1.0216198,-1.0162933,-0.7350549,10.0029745,-1.1061212,12.722788
1570715496,26.867731,-1.5514427,-13.910312,2.5194273,-2.2147524,-2.874171,30.631416,1.3311762,-6.2632318
1570715496,9.792285,4.280833,0.272939,2.7463355,2.2083604,-1.4828933,21.667526,11.27669,1.7142484
1570715496,-4.1132383,-0.46447513,1.115698,2.4278116,2.707985,-0.68924713,3.1028855,7.7332716,5.602432
1570715496,-17.942148,-8.0924015,-8.820239,0.5102772,2.378808,0.41013932,-9.279925,2.255338,-2.135628
1570715496,-10.6877165,-27.044903,15.921441,3.619879,5.266828,0.25886714,-5.5880666,-20.757729,13.618219
1570715497,0.48362875,-13.340492,-12.26789,2.5023825,-1.4093878,0.2801731,-0.60333884,-15.002068,-3.4476504
1570715497,3.940856,-2.4181437,-14.087482,3.321596,2.2850618,-1.8610737,10.314221,8.528147,-10.534488
1570715497,-17.190369,-23.69781,-13.350069,4.7182,3.1096017,-1.4658486,-12.210428,-15.619772,-12.363658
1570715497,-13.311762,-13.40753,-14.571112,2.8059921,0.4857754,-3.688058,-16.658855,-10.232818,-15.562311
1570715497,5.3821654,2.3558946,-9.801862,4.82473,1.5958148,-0.9704855,8.0684595,12.756307,-9.279925
1570715497,-2.2218192,4.644751,2.801216,3.2779186,0.6583535,-0.14168449,3.217807,11.9853735,-0.22505496
1570715497,-19.10094,12.923901,-2.2888567,-0.95663667,0.56993383,-0.47618774,-16.567875,22.361843,-3.0789435
1570715497,-6.167464,7.2544312,-4.8841715,-2.3915915,-1.2208303,-1.5904883,-7.0341644,15.629349,-5.3582234
1570715497,6.0238113,7.599196,-1.5227122,-2.5172966,-2.345784,-0.40055165,7.872135,17.219099,-1.1252748
1570715497,3.2848446,2.5474305,-1.0103531,-3.512284,-3.3141387,0.88313115,5.3438582,12.066776,0.08619126
1570715497,2.4229321,-2.6671407,-5.0038815,-3.3961666,-2.5673656,2.292519,5.0517654,6.579266,-3.0885203
1570715497,12.090718,-21.758505,-30.013712,-5.9880342,-1.1015171,2.874171,15.672444,-13.110648,-27.07842
1570715497,-37.52672,-77.82592,-5.9280434,-4.140809,-3.820155,6.1723304,-32.36482,-70.46614,-1.9919758
1570715497,-28.538885,10.802638,5.133168,-5.403186,1.4019308,2.0826554,-22.902933,17.137695,10.055647
1570715497,-9.65821,-10.740389,-18.076223,-1.844029,-1.6959528,0.3526133,-3.8019924,-5.0661306,-12.6222315
1570715497,-0.33039984,-17.357962,-4.4101195,-1.1324106,-2.8400817,-0.12677033,5.9567738,-11.903971,0.7757214
1570715497,1.9488802,-0.08140286,7.7093296,-0.29082605,-0.14381509,-1.3816901,8.207323,5.243302,13.057976
1570715497,24.454376,1.0295067,-11.980585,2.7324867,-3.0648594,-2.4459217,30.746338,7.086837,-7.5225816
1570715497,8.379706,0.33997664,-3.4476504,1.998497,2.0443048,-0.8469111,14.408306,6.9479733,0.5602432
1570715497,-3.691859,-2.1452048,1.8674773,1.9526893,2.2765396,-0.9385266,1.8626889,4.8458643,5.90889
1570715497,-18.243816,-16.898275,-8.513782,1.7737194,2.43953,0.31745848,-13.005303,-9.629479,-4.5154643
1570715497,-29.472624,-43.924023,3.6104562,1.09406,2.400114,1.080211,-24.674643,-36.44454,7.7667904
1570715497,2.9879637,0.9816227,-13.148955,1.259181,0.41653112,-0.9193513,7.967903,8.552089,-9.404425
1570715497,-2.3223755,-11.669339,-6.05733,4.8332524,1.6203166,-1.8791838,2.0829554,-3.5529952,-2.7485435
1570715497,-11.947066,-25.129541,-15.916653,3.7604983,3.4068196,-2.0762637,-6.9383965,-17.219099,-12.828133
1570715497,-9.409213,-4.5298295,-11.563994,3.7764776,1.4466733,-2.586541,-6.5696893,4.7309427,-10.04607
1570715497,3.0502129,0.23942018,-9.519346,4.7693343,1.6629285,-0.24608359,5.4922986,9.730036,-9.169792
1570715497,-1.8483237,0.61291564,0.076614454,4.0662384,1.4189755,-0.0021305939,1.5562311,7.3885064,-3.845088
1570715497,-19.608511,11.631032,-6.009446,-0.23223473,0.1022685,-0.20240642,-15.17445,19.938911,-4.4675803
1570715497,-9.241618,7.8386164,-4.7261543,-2.4587054,-0.7041613,-1.5180482,-10.189722,17.530344,-5.0134583
1570715497,8.010999,10.979809,-1.8435353,-2.2839966,-2.4267464,-0.60615396,11.085154,20.839132,0.05746084
1570715497,2.6144683,-0.33518824,-2.6719291,-3.932011,-2.8496692,0.7169448,5.5976434,11.520899,-0.56982
1570715497,-0.59855044,-9.097966,-6.5744777,-3.2278497,-2.4725542,1.7960906,1.733402,2.719813,-3.0454245
1570715497,3.0933087,-23.784,-26.384102,-5.5810905,-3.9479904,2.8166451,5.923255,-10.405201,-14.753071
1570715498,-28.093563,-58.413734,0.22026655,-3.8521137,-4.603148,6.0242543,-19.273323,-49.014095,2.7581203
1570715498,-22.682667,7.465121,-15.978902,-4.9301944,1.4551957,3.3194652,-14.039598,12.26789,-15.413871
1570715498,-12.741941,-13.13459,-10.314221,-2.7814903,-1.2922052,0.65196174,-8.978256,-3.739743,-5.0517654
1570715498,-1.2210429,-23.860615,-1.7860745,-1.9867787,-2.7026584,0.32704616,0.9911995,-18.478449,4.367024
1570715498,0.6895301,-0.21068975,5.722142,-1.4679792,-0.49429777,-0.5241261,6.6846113,3.217807,10.462662
1570715498,14.346057,-0.1436521,-5.118803,1.6959528,-2.1295285,-2.0517619,20.87744,5.5162406,-0.49320555
1570715498,16.457743,0.0,-2.5330653,2.607847,0.52945256,-1.4274979,27.906815,5.2959743,-1.982399
1570715498,-2.0398598,-0.08140286,1.3838485,1.8877062,2.4363341,-0.38670278,5.923255,7.4986396,4.525041
1570715498,-11.602302,-4.050989,-2.2361844,1.2037855,2.2978456,-0.08522376,-4.223372,4.6591167,2.6431987
1570715498,-11.899182,-30.157364,2.1547816,2.5268843,4.424178,-0.31319728,-6.555324,-22.931664,6.081272
1570715498,-0.8523358,-12.962208,-6.517017,1.7140628,-0.2087982,1.3113805,0.7613561,-13.479356,-0.5602432
1570715498,-1.6424223,-4.8362875,-12.923901,2.5215578,0.6871165,-0.9534408,3.5769374,2.6048915,-9.251195
1570715498,-14.882358,-23.90371,-12.349293,5.168821,2.5247538,-1.521244,-10.754754,-17.27177,-7.3310456
1570715498,-18.770542,-20.470425,-11.669339,3.9948635,0.50814664,-3.2598085,-14.853627,-11.688493,-9.725247
1570715498,-4.285621,0.4261679,-12.492945,4.613801,1.2463974,-1.9739952,-1.163582,9.667787,-11.468226
1570715498,0.5315128,0.8283938,-10.132261,4.9397817,0.93000424,-0.11079088,3.4380736,10.184934,-10.386047
1570715498,-8.5473,10.730812,4.951209,1.5702477,-0.23330003,-0.24608359,-5.6886234,20.03468,3.7732618
1570715498,-8.015787,7.608773,-6.3925185,-3.0733817,-1.2740952,-1.6948874,-8.432379,16.476896,-6.4882865
1570715498,-0.14844051,8.781932,-5.6120086,-2.6174345,-2.5652351,-0.9459837,2.0494366,18.334797,-5.7748146
1570715498,4.984728,2.7246015,0.79487497,-3.8020449,-3.5165453,0.5646074,7.1969705,12.263102,1.316811
1570715498,0.79487497,-4.7165775,-6.4787097,-3.545308,-2.995615,0.9736814,3.323152,4.654328,-5.0900726
1570715498,4.6160207,-12.4785795,-11.228806,-4.057716,-2.2669518,2.4874682,7.8146744,-3.4476504,-9.136273
1570715498,-13.785813,-47.457867,-14.087482,-4.5584054,-3.9437292,5.3520517,-9.428367,-39.240967,-10.970232
1570715498,-20.03468,-30.913933,-3.8786068,-5.173082,-2.7069194,2.579084,-18.526333,-40.213013,2.135628
1570715498,-16.539145,-5.3199162,-4.0414124,-3.580463,1.7098016,1.1015171,-10.596737,0.81402856,0.7757214
1570715498,-12.569559,-16.208746,-5.0038815,-1.9111427,-2.5172966,0.44849002,-6.315904,-10.5440645,0.0
1570715498,-2.753332,-8.015787,4.4244847,-1.7385646,-1.0908641,-0.02130594,3.845088,-2.6240451,9.270349
1570715498,12.5264635,-7.350199,-1.2401965,1.2123079,-1.4434774,-1.0993865,13.680469,-0.110133275,6.1195793
1570715498,30.775068,0.50757074,-12.459426,2.4544442,-0.9577019,-2.3851998,38.93451,2.8299465,-11.247959
1570715498,-1.1252748,1.7381904,-1.1827357,3.0488799,2.6579158,-0.9246777,4.76925,8.628703,2.5474305
1570715498,-8.863335,-1.9201498,-1.9153614,1.8557472,3.9330764,-0.18003519,-2.1978772,7.1730285,2.3223755
1570715498,-16.931795,-27.131094,1.2210429,1.9473628,3.494174,0.25141007,-12.593501,-16.52478,4.6160207
1570715498,0.2873042,-12.588713,-1.9009962,1.306054,1.0173585,2.1071572,1.9440918,-9.011775,0.82360536
1570715499,-3.4045548,-11.597513,-9.385271,2.062415,1.7790459,-0.5198649,4.630386,-0.56982,-4.927267
1570715499,-16.089035,-21.126436,-10.572795,5.5672417,2.571627,-1.2282873,-9.873688,-15.916653,-9.835381
1570715499,-16.294937,-22.419304,-16.745047,3.9682312,0.7009654,-2.7090502,-11.506534,-12.243947,-9.749189
1570715499,-3.667917,-1.934515,-10.520123,5.4756265,0.6668759,-2.116745,-5.281609,4.0078936,-9.495404
1570715499,-0.91937345,-0.47405192,-11.927913,5.177343,1.1814142,-0.32278496,1.5370775,8.8777,-15.064317
1570715499,-1.0295067,10.108319,4.084508,2.4917295,0.7648832,-0.067113705,1.8339585,19.393034,2.7868507
1570715499,-14.068329,14.30775,-4.280833,-2.0006278,0.5113425,-0.71907544,-10.299856,27.734432,-6.0716953
1570715499,-6.172252,8.619126,-4.7548847,-3.8489177,-2.2286012,-0.653027,-4.9655743,17.932571,-5.8466406
1570715499,-0.82360536,2.27928,-3.241749,-4.616997,-3.5644836,-0.5315832,1.13964,13.939042,-1.6711528
1570715499,-1.8722657,-5.8562174,-6.133945,-3.9064438,-4.265449,-0.5869786,0.78050977,3.7541082,-4.5920787
1570715499,6.8186865,-12.86644,-13.67568,-4.2366858,-4.1056542,0.11505207,9.399636,-3.691859,-11.353305
1570715499,0.58418524,-29.372066,-12.176909,-3.9586434,-4.4050026,4.2601223,4.10845,-20.772095,-9.040505
1570715499,-13.977349,-19.843143,-23.831884,-5.30944,-2.2072952,2.7708373,-9.169792,-27.705702,-14.255077
1570715499,-21.404163,-4.6830587,1.6328455,-4.449745,1.0834069,1.4370855,-17.223886,0.79966336,8.111555
1570715499,-10.309433,-14.590265,-6.7133417,-1.9473628,-1.7556094,0.36646214,-4.4196963,-8.868123,-1.340753
1570715499,0.8523358,-5.554548,1.8818425,-1.2751604,-1.5382888,0.092680834,7.589619,-3.2130187,4.855441
1570715499,8.355764,-5.913678,-0.45010993,1.4093878,-1.5393541,-0.7691444,14.69561,-0.37349546,4.572925
1570715499,28.385654,-4.1036615,-11.57836,2.8496692,-1.1313454,-1.8610737,34.67283,2.0829554,-7.2927384
1570715499,2.2936451,3.0933087,-1.8004397,2.880563,2.5311456,-0.92254716,8.121132,9.873688,2.2266076
1570715499,-10.089166,0.2825158,-0.7230489,1.9505587,3.3386407,-0.41226992,-4.7740383,7.479486,3.289633
1570715499,-18.416199,-13.148955,0.79008657,1.9143386,2.8017309,0.527322,-11.707646,0.21547815,2.7006595
1570715499,5.315128,-16.371552,-1.7525556,1.4733057,0.7297284,1.7513481,10.386047,-9.102755,2.4420857
1570715499,-4.8698063,-8.537724,-11.262324,3.476064,0.5614115,-0.7989727,0.095768064,-0.93373865,-7.5561004
1570715499,-14.494497,-21.68668,-9.935937,4.9568267,3.6784704,-1.3092499,-10.065224,-13.450625,-6.967127
1570715499,-17.946936,-16.208746,-11.554418,4.578646,1.0088362,-2.7644455,-12.971785,-7.2927384,-9.691729
1570715499,-8.896853,-2.801216,-11.99495,4.722461,0.7084225,-1.4807627,-5.889736,6.4978633,-11.204864
1570715499,-2.8299465,0.521936,-9.77792,4.6255193,0.41440052,-0.18323107,-0.0047884034,9.89763,-10.242394
1570715499,-8.532935,5.094861,5.913678,1.8024824,-0.36539686,-0.93426543,-5.875371,14.422671,4.486734
1570715499,-14.777013,17.420212,-7.240066,-2.3084984,-0.12357444,-2.1124837,-12.579136,26.891674,-8.499416
1570715499,1.412579,9.931149,-6.9000893,-3.0179863,-2.342588,-1.553203,2.9879637,19.598934,-7.311892
1570715499,6.301539,2.3894134,-2.8060043,-4.050259,-3.3002899,0.32598087,7.785944,12.071565,-2.3511062
1570715499,0.39743748,-6.6510925,-0.7613561,-4.0449324,-3.6007037,0.8522375,2.9161377,4.486734,0.05267244
1570715499,8.48984,-19.464859,-23.745693,-5.276416,-2.095439,1.7300422,10.79785,-10.314221,-21.073763
1570715500,-7.872135,-50.900726,-5.023035,-4.039606,-3.8680933,7.3526793,-12.239159,-42.59285,-1.508347
1570715500,-19.460072,-13.618219,-14.12579,-5.0782704,-1.3689066,1.8898368,-15.059528,-26.455929,-7.029376
1570715500,-21.978771,-2.3894134,1.2066777,-4.1056542,0.50708133,2.3404574,-20.508732,4.903325,8.058883
1570715500,-6.9862804,-17.353174,-10.582372,-1.3284253,-2.2040994,1.3369477,-3.821146,-10.060435,-6.0716953
1570715500,3.3518825,-8.192958,4.501099,-1.7960906,-0.5827174,0.99818325,10.433931,-6.191406,8.255207
1570715500,16.749836,-7.015011,-5.4779334,1.6586673,-1.4594568,-1.0770152,20.135237,0.78529817,2.930503
1570715500,18.35395,-0.45010993,-4.5441947,2.500252,0.5912398,-1.7992865,27.820623,5.023035,-2.2840683
1570715500,-1.9776106,2.432509,-1.1492168,2.9647214,1.5691824,-1.0908641,6.363788,8.552089,4.8027687
1570715500,-11.942278,0.7565677,0.6847417,1.5777048,2.4949255,-0.56993383,-6.555324,7.627927,5.1475334
1570715500,-8.652645,-13.905523,-5.947197,3.1074712,2.5812144,0.2056023,-8.341399,-3.1842883,-0.61291564
1570715500,-23.716963,-51.01086,-13.733141,-0.72759783,0.419727,-0.10120321,-11.99495,-31.962593,2.5378537
1570715500,8.848969,6.588843,-19.929335,1.0599705,1.883445,-0.8810006,8.987833,6.6893997,-16.050728
1570715500,-7.5082164,-3.6008794,-1.0342951,5.410643,1.3262947,0.30680552,3.0789435,8.595184,2.9496565
1570715500,-27.394455,-31.895555,-1.8483237,4.194074,2.0965044,-3.3386407,-16.850391,-22.390574,-6.895301
1570715500,-2.6384103,-7.086837,-16.041151,3.447301,1.0130974,-2.6248918,-2.4947581,-4.9655743,-10.788273
1570715500,2.6623523,-0.7038953,-12.397177,5.205041,1.5553335,-0.41013932,5.7843914,9.184157,-12.98615
1570715500,-1.8435353,3.169923,3.596091,4.172768,1.1217576,-0.040481284,0.6895301,12.62702,3.064578
1570715500,-19.421764,13.129802,-4.879383,-0.43570644,0.5688686,-0.20027582,-16.850391,22.548592,-5.7604494
1570715500,-6.775591,8.537724,-6.7133417,-2.4310076,-0.85330284,-1.7343034,-4.582502,18.0858,-7.062895
1570715500,6.143522,8.810662,-0.9911995,-2.8784323,-2.5428638,-0.13635801,8.078036,18.420988,-0.7469909
1570715500,1.7812861,-0.7613561,-3.4524388,-4.2878203,-2.9892232,0.57739097,3.9121256,8.734048,-2.2697031
1570715500,-0.18195933,-3.5290532,-3.2992098,-3.5101533,-2.7655108,1.2570504,2.3127987,5.722142,-1.2162545
1570715500,4.8219223,-22.16552,-27.729645,-5.5842867,-3.1884336,2.8752365,8.197746,-13.455414,-24.736893
1570715500,-27.672184,-75.134834,-2.2409728,-4.3346934,-4.8162074,5.4841485,-22.682667,-67.53085,1.436521
1570715500,-20.36029,5.93762,-5.0374002,-6.155286,1.4253674,3.7786083,-14.5088625,12.20564,-0.272939
1570715500,-10.601525,-13.024457,-15.322891,-2.3436532,-1.4818281,0.5912398,-4.5920787,-7.5704656,-9.811439
1570715500,3.514688,-16.280571,0.22505496,-2.2179482,-2.8539305,0.2066676,10.0029745,-11.247959,5.583278
1570715500,1.8531121,3.3327289,3.739743,-0.26099774,-0.5315832,-1.1590431,8.413225,8.178593,9.174581
1570715500,14.432248,1.1444284,-7.1490865,2.3734815,-1.9249916,-2.5631044,20.9349,6.6415157,-2.2888567
1570715500,15.682021,4.6112323,-1.1109096,3.1383648,1.1153659,-1.3401436,21.811178,10.898406,3.2513258
1570715500,-2.791639,-4.548983,0.5554548,1.940971,1.872792,-0.95557135,2.9640217,2.2122424,4.711789
1570715500,-15.011644,-8.992621,-4.6112323,0.5347791,1.7620012,-0.4239882,-13.000515,-1.9249382,-0.39264908
1570715500,-23.405716,-45.79629,7.656657,2.2701478,4.418852,-0.53904027,-18.574217,-38.441303,11.990162
1570715500,0.61770403,-4.525041,-7.872135,1.553203,-1.1132354,0.26845482,5.659893,2.815581,-3.763685
1570715501,6.1530986,-14.561535,-11.745954,3.8872685,2.8145144,-1.5936842,10.840945,-6.799533,-8.015787
1570715501,-12.842498,-22.620419,-19.278112,4.745898,3.7157557,-0.8426499,-8.810662,-14.15452,-16.390705
1570715501,-20.39381,-13.9917145,-19.680338,3.889399,0.47618774,-2.7431395,-17.089811,-4.9655743,-17.712305
1570715501,-1.6136919,0.36391866,-9.514558,4.87906,1.6927568,-1.5010034,-0.110133275,10.759542,-10.266336
1570715501,-3.916914,-0.62728083,-9.045294,4.5339036,1.1324106,0.068179004,-0.1340753,8.930372,-8.676587
1570715501,-11.113884,4.486734,4.5298295,1.6426879,0.12677033,-0.28336897,-5.961562,13.828909,4.3478703
1570715501,-16.941372,8.010999,-6.8761473,-2.744205,0.039415985,-2.1689446,-12.828133,17.563864,-7.493851
1570715501,-1.3311762,11.123461,-5.8322754,-1.9132733,-1.7896988,-2.0102153,-3.064578,19.503166,-6.9240313
1570715501,9.519346,10.85531,1.8579005,-3.4419744,-3.1660626,0.14061919,13.139379,24.851814,2.2888567
1570715501,0.7086837,-6.133945,-1.7142484,-4.3293667,-2.9636562,0.9726161,2.9496565,6.493075,-0.6847417
1570715501,6.646304,-20.283676,-27.183765,-5.897484,-2.0336518,0.8042992,7.6470804,-8.930372,-18.277336
1570715501,-11.247959,-40.57693,-3.53863,-3.7594328,-3.0467494,6.6069717,-1.9728222,-25.321077,-5.3007627
1570715501,-14.671668,-8.073248,-16.97489,-4.104589,-1.5382888,1.3444047,-11.286267,-19.79526,-5.2480903
1570715501,-22.850262,-5.3486466,0.6512229,-4.34215,0.7584914,2.2808008,-20.211851,1.5275006,7.6470804
1570715501,-12.665327,-19.79526,-6.5457473,-1.474371,-2.719703,1.424302,-10.04607,-13.220781,-1.4748282
1570715501,-0.62249243,-8.485051,4.390966,-1.9846482,-0.5262567,0.8564987,5.185841,-6.373365,6.871359
1570715501,19.005173,-3.3087866,-2.6719291,1.3987349,-1.5201787,-1.356123,21.753717,2.8538885,5.1906295
1570715501,19.876663,-1.7286136,-6.1770406,1.5862272,0.20134112,-1.7715888,28.993782,4.5681367,-4.1946416
1570715501,2.9879637,1.5370775,2.7868507,2.719703,1.4967422,-1.8397678,8.63828,7.85777,7.704541
1570715501,-8.695741,2.6240451,1.0151415,2.2946496,2.7058542,-0.92041653,-2.1452048,9.572019,4.5298295
1570715501,-17.606958,-9.466674,-2.4851813,2.0943737,2.3511102,-0.40374753,-10.548853,2.3894134,-0.24420857
1570715501,-41.079712,-77.43806,4.5681367,0.3398297,0.55075854,3.1894991,-36.545094,-70.073494,9.198523
1570715501,16.036364,-0.24420857,-12.363658,0.24821419,1.1036476,-3.734931,20.470425,7.2304893,-7.819463
1570715501,-6.5601125,-5.353435,-12.224793,6.084976,3.2267845,-0.0063917814,-2.896984,2.8060043,-8.207323
1570715501,-27.298687,-33.327286,-13.182474,4.0598464,0.771275,-2.4299424,-24.037785,-24.631548,-10.0269165
1570715501,-0.5363012,-1.661576,-15.500062,4.0822177,2.2051647,-2.7719026,1.685518,7.632715,-13.306973
1570715501,-0.35913026,1.6089035,-11.693281,4.857754,1.492481,0.20240642,1.5370775,11.176133,-10.673351
1570715501,-2.6001031,4.1276035,3.5769374,3.7786083,1.5276358,0.24927948,-0.62728083,13.728353,3.371036
1570715501,-19.10094,10.0987425,-9.485827,-0.75742614,0.17790459,0.07563608,-17.03235,19.670761,-9.9790325
1570715501,-13.13459,4.3239284,-5.583278,-1.7939601,0.12890093,-2.0283253,-13.728353,15.251065,-4.879383
1570715501,5.329493,10.67814,0.9816227,-1.6852998,-2.1934464,-0.95557135,6.579266,20.39381,1.3215994
1570715501,1.9201498,3.1316159,-0.14844051,-3.5538306,-3.0020068,0.5859133,3.2561142,12.785037,0.91937345
1570715501,0.3878607,-6.0716953,-4.783615,-3.2512863,-2.7474008,1.1963284,2.111686,3.3806129,-2.834735
1570715502,4.9464207,-19.61809,-14.772224,-5.2252812,-2.4704237,1.6022066,7.369353,-10.548853,-11.927913
1570715502,-17.156849,-47.433926,-2.801216,-3.3375752,-3.792457,6.7593093,-13.374011,-39.221813,1.0055647
1570715502,-14.915876,-4.644751,-19.34036,-4.1386786,-1.2708993,1.5585294,-9.753978,2.5713725,-15.1696615
1570715502,-16.203957,-6.9767036,-2.2218192,-3.0946877,0.039415985,1.6149901,-10.749966,-0.6799533,2.9592333
1570715502,-10.084377,-14.312538,-3.3327289,-1.2474627,-2.9157176,0.5582156,-4.0557775,-8.48984,1.7621324
1570715502,-0.10055647,-6.6846113,0.5315128,-1.7492175,-1.0897988,-0.14381509,6.133945,-3.7349546,3.5242648
1570715502,15.160085,-2.1260512,-0.095768064,0.12357444,-0.6317211,-1.8919674,17.630901,4.19943,7.6614456
1570715502,27.480648,5.803545,-13.948619,2.324478,-1.7002139,-2.5726922,33.241096,10.357317,-8.844181
1570715502,-0.32561144,1.8866309,1.9153614,2.0251296,2.3372614,0.1054644,8.571242,9.816227,5.21936
1570715502,-11.616667,-5.731719,-3.2321723,1.6096637,2.3979833,0.39096397,-6.2967505,1.3024458,1.0534488
1570715502,-11.176133,-21.504719,-2.7629087,1.9217957,3.8233507,0.1747087,-8.805874,-8.413225,-2.6910827
1570715502,-26.350584,-46.045288,-0.1340753,-0.43570644,1.8418984,1.5201787,-19.756952,-29.496565,5.544971
1570715502,-1.3599066,1.2066777,-12.215217,1.9537545,0.29402196,-0.8650211,1.910573,4.654328,-6.1195793
1570715502,-7.8050976,-19.37388,-2.7629087,4.7150044,2.3724163,-0.96302843,0.23463176,-6.4739213,-3.2992098
1570715502,-16.218323,-23.20939,-9.241618,4.2270985,2.453379,-3.0041373,-12.531252,-14.609419,-6.291962
1570715502,-4.855441,-1.3503298,-13.101071,4.4891615,1.080211,-2.04537,-5.0517654,2.767697,-11.750742
1570715502,3.4524388,1.5131354,-12.435484,4.8385787,1.5201787,0.23116943,6.7229185,11.659762,-12.86644
1570715502,-2.2744915,7.4746976,4.7261543,2.6845484,0.92148185,0.5603462,2.408567,14.968549,2.4708161
1570715502,-21.236568,9.485827,-6.981492,-1.2549198,0.65196174,-0.47299185,-17.81765,20.049046,-8.6334915
1570715502,-9.509769,7.441179,-5.5497594,-2.8262327,-1.6085984,-1.9953011,-9.251195,15.98369,-5.961562
1570715502,4.4580035,8.111555,-1.6136919,-2.948742,-2.8933465,-0.9055024,4.3766007,18.05228,-2.2984335
1570715502,4.759673,-0.6943185,-4.1419687,-3.9139009,-3.652903,0.091615535,7.1059904,10.43872,-1.3215994
1570715502,3.7541082,-4.271256,-5.947197,-3.2150662,-2.9146523,0.9822038,6.167464,4.5633483,-4.185065
1570715502,2.767697,-17.779343,-15.768212,-5.080401,-2.6355445,2.9050648,7.374141,-5.779603,-7.651869
1570715502,-23.056162,-64.365715,-14.12579,-3.1490178,-4.8023586,5.4266224,-14.733917,-47.05085,-13.278243
1570715502,-21.739351,-3.1794999,-6.1770406,-5.280677,-0.9278736,1.815266,-16.25663,3.7301662,-1.8866309
1570715502,-12.583924,-10.204087,-10.084377,-2.1923811,0.37285393,0.9044371,-9.739613,-2.054225,-3.8642416
1570715502,-12.741941,-13.9198885,-2.7820623,-1.4466733,-3.2427638,0.43783703,-6.6654577,-8.307879,2.4899697
1570715502,-1.1731589,-4.050989,-1.3455414,-1.4807627,-1.0897988,-0.19921052,5.3486466,1.3215994,3.6248214
1570715502,9.974244,-0.58897364,0.5363012,0.61361104,-1.1270841,-1.5414847,16.376339,4.8745947,5.5641246
1570715502,27.691338,-0.7422025,-7.4363904,2.0070195,-1.3294905,-2.073068,33.94978,5.3342814,-2.954445
1570715502,4.232949,0.21068975,-1.2018893,1.9931706,1.6725162,-1.0706234,10.151415,6.8043213,2.9879637
1570715502,-7.5944076,-2.4516625,-1.3503298,1.6320349,2.959395,-0.9236124,-2.1739352,4.5394063,2.8778305
1570715503,-16.788143,-11.003751,-2.4133554,1.7374994,2.0176723,0.018110048,-11.760319,-3.7541082,1.8722657
1570715503,-17.108965,-35.975273,-2.504335,0.14168449,3.0329003,3.347163,-16.347609,-29.185318,-1.757344
1570715503,-3.2944214,-16.218323,-7.5704656,2.3191514,0.22264706,-1.0951252,1.7190368,-9.030929,-3.1651347
1570715503,-5.6120086,-14.781801,-14.719552,4.4358964,3.1447566,-1.5340276,-1.1683705,-6.9000893,-10.927136
1570715503,-19.129671,-17.161638,-10.668563,4.6436296,1.3518618,-1.3390783,-15.284584,-8.647857,-7.675811
1570715503,-11.123461,-11.779472,-12.435484,4.1333523,1.3316212,-2.7452703,-7.9104424,-2.72939,-10.433931
1570715503,-0.7757214,-4.1371803,-11.439496,4.3293667,1.3305559,-1.1036476,1.7908629,5.281609,-10.534488
1570715503,-2.5091233,-1.5849615,-4.6351743,4.922737,1.172892,0.25993246,0.02873042,7.8769236,-4.999093
1570715503,-10.773908,6.5601125,-0.78050977,1.2005897,-0.32385027,-0.81601745,-8.346188,15.98369,-1.9776106
1570715503,-18.411411,14.633361,-5.4204726,-2.2680173,-0.025567126,-2.3010414,-14.5088625,24.191013,-6.3781533
1570715503,-3.2944214,12.08593,-5.707777,-2.1817281,-2.2126217,-1.9494934,-4.8841715,21.543026,-6.7324953
1570715503,6.7564373,4.146757,-1.067814,-3.9245539,-3.2438293,-0.48151422,7.9487495,16.481684,-0.59855044
1570715503,2.1021092,-7.651869,-3.2082303,-4.4145904,-3.8585055,0.2087982,3.8594532,4.2042184,-0.9959879
1570715503,9.021352,-15.8065195,-18.047493,-5.3105054,-3.0488799,0.7883197,9.069236,-4.735731,-13.2351465
1570715503,1.8387469,-14.772224,-10.94629,-4.5147285,-2.9018688,4.19727,4.122815,-5.9807158,-7.2352777
1570715503,-18.29649,-43.11957,-14.020445,-3.2065437,-2.759119,3.6081607,-19.22544,-49.19127,-10.457873
1570715503,-22.40015,-7.3885064,3.2034419,-4.534969,2.0229988,3.1021447,-18.071434,-0.19632454,4.3143516
1570715503,-14.235924,-14.264654,-5.9902925,-2.0975697,-1.7662623,1.4179102,-11.046846,-8.418014,0.0
1570715503,0.8762778,-0.8858546,2.8634653,-1.3752984,-0.043677174,0.15233746,6.871359,4.247314,8.676587
1570715503,6.397307,1.5179238,3.3662477,-0.044742472,-0.5145384,-0.87886995,9.562442,6.5265937,10.146626
1570715503,21.62443,-4.6255975,-6.631939,1.9889094,-1.7534788,-2.3915915,24.813507,0.8762778,0.29688102
1570715503,5.4683566,0.31603462,-0.62728083,2.6632423,1.0706234,-1.1558472,15.05474,5.6120086,3.394978
1570715503,-6.943185,-0.05267244,-1.6376339,2.0219336,2.575888,-0.5017549,-0.29688102,6.9862804,2.5953147
1570715503,-13.168109,-12.861651,-1.6711528,2.227536,2.90613,0.020240642,-7.1634517,-0.47405192,0.9528923
1570715503,-5.8226986,-22.711397,-2.0685902,0.98433435,1.8887714,3.1010795,-12.143391,-29.376854,1.5993267
1570715503,-5.439626,-10.702082,-3.787627,1.8695961,0.760622,-0.5827174,2.2840683,-0.9624691,2.657564
1570715503,-7.5561004,-16.031574,-17.568651,4.589299,2.5801492,-1.4882199,-3.2752678,-8.240842,-13.421895
1570715503,-21.772871,-18.674774,-11.496957,4.660674,1.022685,-1.8312454,-14.958972,-9.246407,-6.3829417
1570715503,-11.482592,-14.159308,-13.28782,3.9021826,1.2229608,-3.2097397,-8.561666,-5.0900726,-10.951078
1570715503,1.0869676,1.3503298,-15.021221,4.5967565,0.8298663,-1.3017929,2.8682537,8.868123,-12.928689
1570715503,-0.40701428,0.35913026,-2.7629087,5.1762776,1.2708993,-0.3483521,1.4987702,9.974244,-2.930503
1570715503,-9.68694,14.015656,-2.0638018,0.43251055,-0.06178722,-0.33556855,-7.8769236,23.606829,-3.0023289
1570715503,-9.983821,9.160215,-5.851429,-3.1990867,-0.99392205,-1.7769153,-10.903194,19.670761,-5.2241483
1570715503,-0.45489833,9.212888,-3.0454245,-3.1586053,-2.630218,-0.7339896,0.6512229,18.942924,-2.6240451
1570715504,3.2848446,-3.3662477,-3.5194764,-3.9906023,-2.8816283,0.22903883,4.43885,6.2632318,-2.0829554
1570715504,2.27928,-5.813122,-2.9113493,-2.7133112,-2.6792219,1.2900746,3.7541082,3.6056678,-3.0693667
1570715504,6.325481,-10.424355,-9.428367,-3.2587433,-2.4299424,3.228915,8.66701,-1.3551182,-6.5122285
1570715504,-20.503942,-57.207054,-24.516624,-3.9756882,-4.1163073,6.6964564,-16.620548,-49.014095,-20.767305
1570715504,-21.389797,-3.1028855,3.643975,-5.725971,0.56673795,1.7023445,-16.452953,3.9743748,8.298303
1570715504,-9.653421,-6.1770406,-8.523358,-1.8408331,-0.5262567,1.686365,-4.256891,-0.062249243,-3.0693667
1570715504,-10.5440645,-13.982138,-7.3406224,-1.0535786,-2.209426,1.1952631,-4.6255975,-8.279149,-1.982399
1570715504,1.3072342,-9.5385,-0.23463176,-1.4541303,-1.4019308,0.16831692,7.8625584,-8.465898,4.55856
1570715504,10.084377,-1.1540052,-1.8195933,1.3497312,-1.3614495,-1.6714509,16.323668,4.390966,3.3183637
1570715504,20.30762,2.2601264,-9.600749,2.43953,-1.2059162,-2.7974699,24.17186,10.448297,-3.5673606
1570715504,5.5976434,3.040636,3.5051112,2.3798733,0.99818325,-0.81708276,8.288726,9.988609,7.5800424
1570715504,-7.6710224,-0.59855044,-1.5275006,1.3518618,1.998497,-0.4495553,-2.3894134,6.646304,2.4420857
1570715504,-17.525557,-15.093047,-7.091625,0.9065677,2.7282255,0.65196174,-10.218452,-2.0829554,-3.241749
1570715504,-6.8426285,-27.02575,-1.5562311,0.65089643,1.0312074,2.916783,-12.162544,-33.092655,4.525041
1570715504,-1.4987702,-11.314998,-3.8402996,1.6927568,0.5528891,-1.4956769,6.421249,-1.5849615,1.9440918
1570715504,-9.097966,-19.37388,-13.642161,4.7586813,2.6110427,-1.6895609,-3.4859576,-9.883265,-11.568783
1570715504,-20.796036,-21.20305,-11.219229,4.562667,1.2005897,-1.822723,-14.4849205,-11.09473,-4.5537715
1570715504,-10.620679,-7.9870567,-13.929465,4.3336277,1.180349,-3.1191895,-10.7356,-2.5905263,-14.202404
1570715504,-0.08619126,-0.48362875,-10.611102,4.495553,0.7467731,-0.8309316,2.5378537,8.250419,-9.519346
1570715504,-0.9672575,1.9153614,-2.2888567,4.1237645,1.0525134,-0.25034478,0.7422025,9.452309,-5.66947
1570715504,-10.879252,10.409989,-1.0821792,0.28869548,-0.2769772,-0.8341275,-6.555324,17.640478,0.9720459
1570715504,-13.000515,8.48984,-4.7788267,-2.2488418,0.12463974,-1.266638,-11.506534,21.638796,-6.3589997
1570715504,2.7581203,9.629479,-3.3758245,-2.0922432,-2.0475006,-0.77873206,1.8818425,18.636467,-4.793192
1570715504,4.2281604,5.1523223,-0.21068975,-3.4707375,-2.7218337,0.25460598,5.765238,14.829685,0.038307227
1570715504,-1.8914193,-8.959103,-5.2720323,-4.175964,-3.0179863,1.2368097,-0.019153614,3.1028855,-2.255338
1570715504,4.721366,-20.90138,-22.026655,-4.854558,-2.5801492,2.2477765,5.717354,-8.422802,-18.784906
1570715504,-18.009186,-54.147266,-3.8115692,-2.7719026,-3.7541063,6.497246,-8.810662,-37.598545,-2.3223755
1570715504,-13.110648,-7.062895,-17.702728,-4.3496075,-2.3489797,1.3816901,-8.0684595,0.58418524,-14.202404
1570715504,-18.995596,-6.9000893,-0.33518824,-3.7658246,0.6977695,2.0783944,-13.575124,-0.16759412,4.3047748
1570715504,-7.0581064,-15.102624,-1.412579,-1.4583915,-1.8099395,1.2016549,-4.5537715,-8.374918,1.6950948
1570715504,4.060566,-8.049306,1.1300632,-1.7161933,-0.5177343,0.6402435,10.405201,-2.3319526,5.947197
1570715504,21.025879,-2.6431987,-5.5018754,0.7989727,-0.9960526,-1.3944737,27.346571,3.0693667,-0.6464345
1570715504,16.247053,-0.6655881,-2.9161377,1.6565367,-0.2823037,-1.865335,22.280441,5.6120086,1.5849615
1570715505,-3.3662477,2.0254946,-0.033518825,2.6888094,1.324164,-0.5816521,2.3319526,8.805874,4.1706996
1570715505,-10.472239,0.4261679,-2.0973208,1.172892,2.231797,0.05539544,-5.0757074,7.4746976,2.0685902
1570715505,-27.011383,-35.00802,-7.16824,1.0876682,2.7058542,0.65196174,-21.873426,-27.811047,-2.9257145
1570715505,2.858677,-12.076353,2.6623523,0.32278496,1.453065,0.95983255,8.336611,-5.243302,7.07726
1570715505,1.388637,-13.244724,-12.971785,3.7498453,0.31958908,-3.095753,6.325481,-5.803545,-8.911219
1570715505,-12.995727,-18.717869,-8.767567,4.309126,3.6390543,-0.6903124,-8.78672,-10.553641,-5.3199162
1570715505,-20.18312,-16.917429,-16.457743,4.053455,0.7584914,-2.7282255,-16.46253,-8.183381,-13.977349
1570715505,-0.94331545,-5.81791,-11.195287,4.456137,1.3774289,-2.5236886,1.8435353,3.4715924,-9.758766
1570715505,-3.6583402,-0.110133275,-10.242394,5.0207443,0.85862935,-0.08309316,-1.1013328,9.351752,-10.055647
1570715505,-7.019799,4.5202527,5.5641246,2.8326244,0.23116943,-0.57739097,-4.5633483,13.9677725,4.644751
1570715505,-16.807297,16.931795,-7.120356,-1.4040613,0.56673795,-1.5894231,-14.068329,26.446352,-8.087613
1570715505,-2.657564,11.554418,-4.405331,-2.5876062,-1.9857135,-2.3074331,-1.1875241,21.246145,-4.6782703
1570715505,3.9983168,7.153875,-0.44532153,-4.136548,-3.0787082,-0.22690825,5.2049947,16.869545,0.110133275
1570715505,2.9017725,-8.121132,-8.298303,-3.8361342,-2.7687068,0.14168449,4.213795,1.4460979,-6.603208
1570715505,2.3223755,-9.442732,-3.7349546,-3.4931087,-3.2843103,1.3859513,4.050989,-0.11971009,-1.2258313
1570715505,0.91937345,-18.7466,-21.605276,-5.353117,-2.6398058,2.575888,5.0661306,-8.259995,-16.721106
1570715505,-23.913286,-69.75746,-12.516887,-3.0478146,-3.1447566,6.103086,-16.70674,-56.96285,-13.804967
1570715505,-18.272547,-3.5338416,-1.8052281,-3.6390543,1.7598705,3.1042752,-13.383588,3.2561142,3.3087866
1570715505,-16.25184,-12.29662,-5.93762,-2.034717,-2.073068,1.5180482,-10.888829,-6.229713,-0.39743748
1570715505,-2.6862943,-17.108965,-4.1419687,-0.8341275,-1.4583915,0.8607599,-0.61770403,-12.014104,-0.29688102
1570715505,3.0310593,-0.9768343,4.343082,-0.61041516,-0.16192514,-0.34302562,8.034941,2.834735,9.255983
1570715505,16.424223,1.0630256,-4.0222588,2.0869167,-0.9704855,-2.2871926,21.250935,6.2728086,1.091756
1570715505,10.132261,3.2944214,0.521936,2.410767,0.7851238,-1.3465353,20.523096,10.175357,3.8115692
1570715505,-4.721366,-1.0869676,-0.07182605,1.4456079,1.7119322,-0.35580918,2.0398598,6.9240313,5.2480903
1570715505,-12.406754,-9.078813,-5.5641246,1.646949,2.2083604,0.2418224,-6.8522053,0.80924016,-0.4165911
1570715505,-30.363266,-53.02199,-0.842759,0.5571503,2.4192894,1.2336138,-19.187132,-44.158657,7.053318
1570715505,4.146757,-5.0661306,-2.5953147,0.9065677,1.56066,-0.32811147,6.679823,1.685518,2.255338
1570715505,-2.882619,-14.250289,-15.59583,4.936586,1.5734435,-1.6725162,3.2944214,-6.9240313,-11.176133
1570715505,-18.86631,-21.792025,-12.066776,4.330432,2.895477,-1.6767774,-13.129802,-15.006856,-9.528923
1570715505,-13.757083,-6.7947445,-14.901511,3.5591571,1.6480143,-2.7750986,-14.5567465,-0.6464345,-14.432248
1570715505,0.10055647,0.47884035,-11.362882,4.5541444,1.1920673,-0.39948636,1.4460979,9.466674,-10.108319
1570715505,-1.3982137,2.6862943,-3.2944214,4.34215,1.8664002,0.4218576,1.7238252,11.717223,-5.674258
1570715505,-6.4020953,2.9352913,3.8594532,1.786503,0.29189137,0.05219955,-2.3511062,13.273455,4.1180267
1570715506,-10.951078,5.2385135,-8.499416,-0.6913777,0.49855897,-0.7414467,-9.02614,13.450625,-9.141062
1570715506,-5.530606,6.229713,-7.4268136,-0.9118942,0.16299044,-0.8522375,-3.3758245,15.773001,-8.09719
1570715506,10.01734,12.737153,4.2042184,-1.6799732,-1.6703856,0.045807768,11.09473,21.68189,2.5378537
1570715506,0.92416185,2.27928,-0.6943185,-3.028639,-1.636296,0.6913777,3.0310593,11.851298,-0.59376204
1570715506,-5.602432,-12.86644,3.86903,-4.477443,-2.1124837,1.1430637,-3.1747115,-3.41892,4.903325
1570715506,4.2185836,-29.39122,-28.572403,-6.853055,-0.85117227,0.692443,6.727707,-20.317196,-25.814283
1570715506,-21.619642,-52.75384,-0.7613561,-4.1099157,-4.291016,5.642878,-17.683575,-44.50342,2.791639
1570715506,-16.093824,7.7332716,-24.162283,-4.8833213,-1.7769153,0.79471153,-11.238382,15.1936035,-20.049046
1570715506,-12.263102,-11.171345,-7.3885064,-4.047063,-2.048566,1.4956769,-7.005434,-4.606444,-2.3319526
1570715506,-6.789956,-21.270088,-5.544971,-1.6884956,-3.3311834,0.78725445,-0.7517793,-15.303738,-0.62728083
1570715506,-1.532289,-6.1100025,3.53863,-2.3202167,-0.95131016,0.113986775,4.8267107,-0.56982,8.537724
1570715506,7.144298,1.1492168,-0.39264908,0.14914156,-1.8056782,-1.6341655,13.560759,6.6989765,4.5154643
1570715506,22.199038,4.0414124,-9.002198,1.57877,-1.7556094,-2.3958528,28.486212,10.189722,-4.663905
1570715506,8.293514,7.192182,4.189853,2.18812,0.9481143,-2.2200787,14.053964,14.087482,8.106767
1570715506,-6.421249,3.3087866,3.016694,1.334817,0.4175964,-0.75742614,-0.9959879,10.606314,6.679823
1570715506,-18.952501,0.33997664,-9.184157,-0.6626147,0.42718408,0.32598087,-13.627796,7.7189064,-5.521029
1570715506,-67.58831,-107.921036,19.895817,-2.3511102,4.5690584,4.6723924,-62.072075,-101.13587,24.334665
1570715506,24.20059,-7.5848308,1.3120226,-1.4189755,-0.9044371,0.63385165,21.997925,-4.6782703,-1.0247183
1570715506,1.3215994,-9.337387,0.8810662,4.1706376,0.556085,-2.877367,6.8665705,-2.5809495,5.329493
1570715506,-26.522966,-39.97838,-8.963891,1.6085984,4.5701237,-1.4232367,-16.203957,-31.823729,-11.51611
1570715506,-16.021997,-4.9655743,-12.938266,1.8450943,-0.5891092,-3.7551718,-17.147272,-3.347094,-4.793192
1570715506,4.7788267,-5.765238,-8.872911,3.4600844,2.3436532,-1.7556094,8.532935,3.5482068,-3.3806129
1570715506,-4.5154643,-0.61770403,-10.309433,4.599952,1.8418984,-0.56780326,-0.39264908,8.360553,-9.720459
1570715506,-6.397307,2.96881,1.7286136,3.35462,2.2296665,-0.15446806,-3.2034419,11.559206,2.27928
1570715506,-11.343728,6.631939,-0.5554548,0.25673655,1.4370855,-0.35900506,-7.4603324,16.73547,1.2114661
1570715506,-0.7326257,12.018892,-5.932832,-0.017044751,0.3824416,-0.24501829,-0.9672575,20.355503,-5.631162
1570715506,7.589619,11.48738,1.2114661,-0.57632565,-0.4527512,1.219765,10.208876,20.81519,2.719813
1570715506,0.46447513,-0.5267244,-0.6560113,-2.5172966,0.07457078,2.1465733,3.8163576,9.3421755,1.9536686
1570715506,1.4556746,-3.4524388,-8.034941,-2.4736195,0.35580918,2.4437912,5.1379566,6.2584434,-4.3143516
1570715506,-3.845088,-33.29377,-31.48854,-5.1400576,-0.703096,1.2400056,4.1132383,-14.494497,-11.707646
1570715506,-33.992874,-58.18389,21.375433,-3.7136252,1.1366718,3.853179,-25.16306,-55.09537,13.22557
1570715506,-17.372328,3.3997664,-5.5737014,-5.640747,-3.221458,0.56780326,-13.972561,3.2992098,13.421895
1570715506,-10.764331,7.642292,-16.759413,-0.0692443,0.46127358,1.4445426,-7.086837,24.665066,-13.948619
1570715506,-11.133038,-23.597252,-6.9862804,-1.8024824,-2.489599,0.19814523,-5.046977,-18.363527,-5.00867
1570715507,-4.7788267,-12.401965,7.374141,-2.5652351,-2.9902885,-0.47938362,-0.37349546,-9.825804,14.106636
1570715507,6.9862804,0.39264908,-6.445191,-0.29082605,-0.77766675,-1.912208,10.371682,4.927267,0.10534488
1570715507,9.069236,0.047884032,-2.9879637,1.1174965,1.0972558,-3.063794,15.332468,5.497087,2.2218192
1570715507,9.600749,8.360553,-1.1444284,2.3393922,0.05113425,-2.726095,15.246277,14.66688,3.7972038
1570715507,-1.0055647,1.1587936,2.1643584,1.4733057,0.20134112,-0.46020827,4.367024,7.967903,6.727707
1570715507,-4.7979803,-1.541866,-6.5505357,-0.4538165,1.5350928,0.556085,0.51235914,5.2959743,-1.9488802
1570715507,-20.235792,-11.918336,-15.749059,0.26206306,2.6856136,0.8735435,-15.14572,-5.2049947,-10.721235
1570715507,17.506403,-37.51714,-2.3702598,-4.7128735,3.457954,3.3141387,22.96997,-31.378407,2.9783869
1570715507,-20.06341,-18.013973,-12.990938,1.872792,-0.7670138,-1.4818281,-14.810532,-12.061988,-7.2209125
1570715507,-0.641646,-14.06354,-1.2449849,2.6248918,3.035031,-1.9143386,3.9600096,-7.345411,4.2185836
1570715507,-8.288726,-11.860875,-6.967127,1.2059162,0.30147904,-1.0301422,-4.0557775,-4.6782703,-1.7956513
1570715507,-4.012682,-8.341399,-6.727707,2.0847862,2.263756,-0.82453984,-0.25378537,-0.80924016,-1.6950948
1570715507,-4.534618,-4.1276035,-6.6846113,3.0414228,0.9001759,-0.67220235,-1.1587936,3.8642416,-2.1164744
1570715507,-3.3614593,-3.1842883,-5.415684,3.0265086,0.95450604,-0.32811147,-0.20590134,5.257667,-1.5466543
1570715507,-5.415684,0.8475474,-4.9655743,1.8877062,0.8778047,-0.3494174,-2.4468741,9.576807,-1.6184803
1570715507,-4.3766007,2.6862943,-4.8506527,1.2059162,0.5816521,-0.44103295,-1.5801731,11.583148,-1.8195933
1570715507,-0.5554548,3.5529952,-2.5474305,1.2421362,-0.046873067,-0.6157416,2.0638018,12.603078,0.16759412
1570715507,-1.6519991,3.9791632,2.5139117,0.28763017,-0.15233746,0.25141007,0.91937345,13.101071,5.0278234
1570715507,0.7182605,0.49799395,0.90500826,-0.8980453,-0.66794115,1.0791458,3.5434184,9.519346,3.4955344
1570715507,0.842759,-17.559074,-14.331692,-4.2345552,-0.9917914,-0.019175345,3.9073372,-8.791509,-11.171345
1570715507,-7.067683,-26.75281,-6.4643445,-4.506206,2.1124837,1.5574641,-4.0318356,-18.59337,-1.9440918
1570715507,-17.108965,-26.465506,-1.067814,-2.1188755,-0.6945736,0.653027,-13.761871,-18.89504,4.1946416
1570715507,-17.3005,-6.919243,-6.3685765,-1.9782565,-2.8635182,0.6540923,-13.464991,0.29209262,-0.93852705
