time,ax,ay,az,gx,gy,gz,la_x,la_y,la_z,fox,foy,foz
1570715538,-0.36212158,0.15322876,11.241974,0.095321655,0.10505676,0.19662476,-0.040909782,-0.25326404,0.61491203
1570715538,-0.14186096,0.2280426,11.215637,-0.029312134,0.5205078,0.32125854,-0.0020036101,-0.224125,0.74191
1570715538,-0.14186096,0.2280426,11.215637,-0.029312134,0.5205078,0.32125854,-0.0020036101,-0.224125,0.74191
1570715538,-0.14186096,0.2280426,11.215637,-0.029312134,0.5205078,0.32125854,-0.0020036101,-0.224125,0.74191
1570715539,-0.14186096,0.2280426,11.215637,-0.029312134,0.5205078,0.32125854,-0.0020036101,-0.224125,0.74191
1570715539,-0.08380127,0.65182495,10.392624,5.0354004E-4,0.39801025,0.2679901,-0.0020036101,-0.224125,0.74191
1570715539,-1.3976135,0.34477234,11.400589,0.45217896,-0.19534302,0.6355133,-0.67561746,-0.2510773,0.74174595
1570715539,-2.6384125,-0.50457764,12.069763,0.82928467,-0.5106659,0.9593506,-1.8977869,-1.0226575,1.1896563
1570715539,-4.3029785,-1.8148041,11.174942,1.9606018,-1.421463,2.0437927,-4.3308773,-2.989995,0.93733406
1570715539,-4.3029785,-1.8148041,11.174942,1.9606018,-1.421463,2.0437927,-4.3308773,-2.989995,0.93733406
1570715539,-4.3029785,-1.8148041,11.174942,1.9606018,-1.421463,2.0437927,-4.3308773,-2.989995,0.93733406
1570715539,-4.3029785,-1.8148041,11.174942,1.9606018,-1.421463,2.0437927,-4.3308773,-2.989995,0.93733406
1570715539,7.8092804,-2.5665894,4.993103,1.5866852,-2.391922,6.9940643,0.15333748,-5.7581806,-3.5539246
1570715539,9.019562,0.92715454,6.711548,2.0863037,-0.9559479,4.344757,3.7988367,-0.7332494,-0.33178186
1570715539,5.7131653,0.46388245,5.181656,1.2223663,0.761261,4.6249237,-1.5517507,-0.7726165,-2.2445745
1570715539,7.9786835,0.012573242,8.08223,-0.15396118,2.2813873,4.628113,0.9648237,-0.08810216,-0.37784576
1570715539,8.589798,-5.7377014,9.919174,0.03353882,3.4436035,4.411865,3.194077,-5.073423,2.656434
1570715539,7.5800476,-1.450882,7.4800873,1.4780273,0.43849182,3.2496643,0.8017082,-1.2523272,-6.0353317
1570715539,7.3507996,-2.3768463,6.862976,3.6501007,-2.6017761,2.4251556,1.3883681,-1.6464366,-1.2400045
1570715539,9.50618,-1.9273376,3.1872864,3.048233,-1.1221313,1.9489746,3.1035266,-1.8927798,-4.4126606
1570715539,10.168167,-3.545807,1.7471619,1.4599152,-0.036621094,1.237381,4.249828,-2.906285,-6.561982
1570715539,1.1366425,-4.9248657,9.879669,1.7709808,-1.4406433,2.5881348,-6.9597917,-6.540084,1.0095844
1570715539,6.218338,0.32859802,1.5358734,2.283371,-4.2454834,3.468048,-1.1989126,0.86942947,-6.676219
1570715539,10.504562,6.1345367,4.7698517,2.6306458,-4.936844,3.1420746,1.6455345,4.165246,-2.4173975
1570715539,6.5726776,5.6580963,6.182434,5.2267,-3.4603882,-0.11550903,-1.9341774,6.4499965,0.7312908
1570715539,5.21756,5.0344086,2.9855652,5.261856,-2.5080414,-1.3394928,-3.7017155,3.2182674,-1.2934299
1570715539,5.4845123,5.462967,-0.51475525,3.9515686,-3.5370789,-2.3855896,-3.8367157,3.2794032,-3.4728713
1570715539,6.739685,4.356247,-1.2162476,1.9051971,-5.401291,-2.7584229,-3.2428703,0.562413,-3.5678046
1570715539,11.718414,5.383957,6.834854,0.44259644,-4.765335,-2.8319244,1.7153292,1.1354198,5.534923
1570715539,13.817535,4.0306396,6.2949524,0.25297546,-1.6473083,-2.9810638,5.1963644,-0.9291086,7.30528
1570715539,10.983398,4.7010193,0.19332886,0.19226074,-0.767395,-2.248169,2.6498022,-1.5234222,1.6041911
1570715539,12.610855,6.50206,-2.988556,-0.74624634,-1.6494293,-1.901947,4.2806835,0.05420208,-2.034906
1570715539,13.046005,5.6904144,-0.46566772,-1.4493103,-1.9658203,-1.8369751,5.23652,-1.0856061,0.019312978
1570715539,13.85585,6.4966736,2.561798,-1.3907318,-0.45314026,-2.0574799,6.4061112,-1.0915823,3.254356
1570715539,9.262573,5.98909,-2.2200165,0.20610046,1.3013458,-1.9637299,2.8959045,-2.9640474,-2.0404649
1570715539,9.262573,5.98909,-2.2200165,0.20610046,1.3013458,-1.9637299,2.8959045,-2.9640474,-2.0404649
1570715540,7.8847046,8.811859,-1.6400299,0.88360596,0.24354553,-1.152008,2.8768263,-0.020428658,-0.69081616
1570715540,7.8847046,8.811859,-1.6400299,0.88360596,0.24354553,-1.152008,2.8768263,-0.020428658,-0.69081616
1570715540,9.473251,7.2442627,0.28071594,-1.2458496,0.62065125,0.86027527,3.7998877,-2.0921469,0.58125556
1570715540,9.564835,7.3280487,0.19692993,-1.2394562,0.66218567,0.8357849,3.7998877,-2.0921469,0.58125556
1570715540,7.020401,6.922241,-0.6188965,-1.1510468,1.7040253,0.45654297,1.5430312,-1.4585075,-1.5164328
1570715540,6.8923035,6.803726,-0.72784424,-1.1435852,1.6646118,0.47891235,1.4121742,-1.735609,-1.5886302
1570715540,5.601242,6.629547,-0.7523804,-1.1702118,-1.1040192,1.094635,-0.0021328926,-1.957531,-2.2665434
1570715540,5.601242,6.629547,-0.7523804,-1.1702118,-1.1040192,1.094635,-0.0021328926,-1.957531,-2.2665434
1570715540,5.779602,1.0905609,2.7132263,-1.026413,-2.009491,1.397171,-0.98749924,-6.0433297,0.7949327
1570715540,5.779602,1.0905609,2.7132263,-1.026413,-2.009491,1.397171,-0.98749924,-6.0433297,0.7949327
1570715540,3.7696686,-0.3902588,4.9583893,-0.5576935,-1.9732666,1.4142151,-2.9847412,-7.713374,3.5683076
1570715540,3.691864,0.7661438,2.4145508,0.18266296,-1.6334534,1.5431061,-3.9869976,-6.235162,1.8652917
1570715540,7.665039,4.4645844,1.7645264,0.004776001,-1.4203949,0.7931671,-1.3809075,-2.3522682,0.47998396
1570715540,7.636902,7.8565674,0.73861694,-0.6706085,0.027297974,0.6813202,-0.5946722,0.9430728,1.1955659
1570715540,9.6635895,3.609253,-2.4103699,-0.1635437,-1.5727386,1.1287231,-0.5179806,-2.2284217,-2.642989
1570715540,9.6635895,3.609253,-2.4103699,-0.1635437,-1.5727386,1.1287231,-0.5179806,-2.2284217,-2.642989
1570715540,16.904861,9.914383,1.1923065,-0.44050598,-1.9274597,0.7324524,6.7894964,3.1459146,1.5391343
1570715540,15.430634,9.003998,1.5861511,-1.0136261,-0.5170593,0.065597534,7.2719555,3.8775907,1.8766568
1570715540,7.926605,2.5683746,-1.3808594,-0.5587616,-1.1711273,0.5140686,0.7526045,-2.2978587,-1.2813543
1570715540,10.154404,7.0156097,0.96606445,-0.33824158,-0.25286865,-0.656662,1.2037535,1.3040819,2.4919043
1570715540,10.154404,7.0156097,0.96606445,-0.33824158,-0.25286865,-0.656662,1.2037535,1.3040819,2.4919043
1570715540,9.529526,6.036377,-2.9328918,-1.1020355,-0.31785583,-3.2271423,1.3749466,0.3438964,-0.9053376
1570715540,4.6034546,6.427826,1.8620911,-0.96035767,1.4728546,-0.55119324,-3.0383139,-0.49059772,2.51046
1570715540,4.593872,6.2446747,1.6142883,-0.8122864,1.270462,-0.45532227,-3.0383139,-0.49059772,2.51046
1570715540,4.178482,3.8839874,0.8152313,0.6172943,-1.2989655,0.18170166,-3.5046706,-3.282693,0.87237334
1570715540,4.9787445,5.340866,-0.7044983,0.75364685,-1.3969727,0.5172577,-3.0463815,-2.4047933,0.36666232
1570715540,6.8438263,6.5720825,-1.9045868,0.2785492,-1.3468933,0.60461426,-1.1071677,-0.33410692,-0.9709467
1570715540,7.2490387,6.2045746,0.113723755,-0.045303345,-1.1860352,-0.2156372,-0.075303555,-0.31158113,1.3169969
1570715540,7.2490387,6.2045746,0.113723755,-0.045303345,-1.1860352,-0.2156372,-0.075303555,-0.31158113,1.3169969
1570715540,7.5291595,5.1810455,1.7208252,0.017547607,-0.4882965,-1.1168518,0.6897249,-0.8086653,2.596834
1570715540,7.5435333,6.115982,0.888855,0.40530396,-1.0582123,0.184906,0.47015715,-1.0333686,2.2094564
1570715540,7.5435333,6.115982,0.888855,0.40530396,-1.0582123,0.184906,0.47015715,-1.0333686,2.2094564
1570715540,9.035721,5.0415955,-2.1685486,0.5065155,-0.060058594,-1.2883606,2.8193636,-0.41922617,-1.7866414
1570715540,9.035721,5.0415955,-2.1685486,0.5065155,-0.060058594,-1.2883606,2.8193636,-0.41922617,-1.7866414
1570715541,6.261429,5.147537,-3.2243958,-0.8080292,0.9167938,-2.2300568,-0.2002492,-2.8726077,-0.6523161
1570715541,4.6824646,5.0703278,-0.833786,-1.9915314,1.0456848,-1.9456329,-0.9791279,-2.7955828,-0.1791389
1570715541,4.6824646,5.0703278,-0.833786,-1.9915314,1.0456848,-1.9456329,-0.9791279,-2.7955828,-0.1791389
1570715541,5.207382,6.9461823,1.4323273,-0.26367188,-0.03982544,-0.656662,-0.43538284,-2.0044346,1.9118615
1570715541,4.9745483,9.027344,-0.8774719,-0.16886902,-0.060058594,-0.6321564,-0.051448345,0.25547028,-0.5361203
1570715541,4.9745483,9.027344,-0.8774719,-0.16886902,-0.060058594,-0.6321564,-0.051448345,0.25547028,-0.5361203
1570715541,3.9378662,8.451538,0.24241638,-0.3488922,0.25205994,-0.4883423,-0.9181943,-0.21702099,0.24369244
1570715541,5.3139343,8.173798,0.75057983,0.020751953,0.14447021,-0.75253296,0.57479477,-0.75392056,0.7923939
1570715541,5.3139343,8.173798,0.75057983,0.020751953,0.14447021,-0.75253296,0.57479477,-0.75392056,0.7923939
1570715541,3.6218262,6.9521637,0.22026062,0.25297546,0.29467773,-1.9285889,0.19021344,-1.9118567,0.354644
1570715541,3.6218262,6.9521637,0.22026062,0.25297546,0.29467773,-1.9285889,-0.075805664,-2.2009716,0.29008195
1570715541,1.9141693,5.063141,-0.6069336,-0.37979126,0.5758972,-2.2715912,-0.82641125,-4.5186033,-0.63933414
1570715541,1.9141693,5.063141,-0.6069336,-0.37979126,0.5758972,-2.2715912,-0.82641125,-4.5186033,-0.63933414
1570715541,1.3299866,5.5282135,0.4519043,-0.82081604,0.1199646,-2.7115479,0.14078438,-4.6378,0.040987372
1570715541,1.3299866,5.5282135,0.4519043,-0.82081604,0.1199646,-2.7115479,0.14078438,-4.6378,0.040987372
1570715541,1.8507233,11.42334,-0.1490326,-0.4618225,-1.275528,-3.3081055,2.4354613,6.772153,-0.82752407
1570715541,1.992569,19.612701,-0.9935913,-0.25727844,-2.4600983,-3.234604,2.0212073,7.89406,-1.4244947
1570715541,-5.434845,5.688019,2.8467102,-0.4895172,-3.061966,0.060272217,-4.34697,-4.938593,1.0743657
1570715541,-4.9470215,6.272812,3.0514069,-0.49058533,-2.9586487,0.22218323,-3.8933802,-4.2664557,1.3294762
1570715541,-2.2733002,7.944565,5.546768,0.25404358,1.0914917,0.09329224,-0.8646486,-1.8601685,4.190531
1570715541,-2.451065,7.9122314,5.4492035,0.3115692,1.2384949,0.09754944,-0.83221686,-1.7867966,3.9601424
1570715541,-2.0823517,9.303864,0.7697296,0.20503235,2.9184265,0.19129944,-0.4272735,-0.51824856,-0.004105687
1570715541,-2.3385315,8.938156,-0.10055542,-0.7451782,2.5370636,0.22857666,-0.6915966,-0.7496519,-1.4362875
1570715541,-2.222412,8.941742,-0.0574646,-0.76008606,2.448639,0.23176575,-0.6890402,-0.77635,-1.4032173
1570715541,-2.2092438,8.965683,0.7194519,-0.19869995,-0.10160828,-0.014297485,-0.43172216,-0.6968994,-0.8455645
1570715541,-2.2092438,8.965683,0.7194519,-0.19869995,-0.10160828,-0.014297485,-0.43172216,-0.6968994,-0.8455645
1570715541,-2.0386658,8.829224,1.498764,0.27427673,-0.97618103,-0.24333191,-0.31443644,-0.8074169,-0.07735264
1570715541,-1.8782501,8.799286,1.7675171,0.30943298,-0.6598053,-0.22521973,-0.0694232,-0.8927603,0.32994843
1570715541,-1.8010406,8.796295,1.8177948,0.30410767,-0.62464905,-0.21777344,-0.08852041,-0.8780794,0.35690737
1570715541,-1.7950592,8.630493,1.9830017,0.07507324,0.12956238,-0.06437683,0.12470698,-0.99676895,0.7577779
1570715541,-1.7950592,8.630493,1.9830017,0.07507324,0.12956238,-0.06437683,0.12470698,-0.99676895,0.7577779
1570715541,-1.7968445,8.774155,1.7411804,-0.043167114,0.2414093,0.010192871,0.08094823,-0.8505297,0.4142468
1570715541,-2.0488434,8.801086,1.6651611,-0.15182495,0.24461365,0.07411194,-0.16327572,-0.8363781,0.25716722
1570715541,-2.0296783,8.841187,1.6280518,-0.16033936,0.24461365,0.0826416,-0.18248332,-0.80509853,0.22392547
1570715542,-2.1882935,9.037506,1.7172394,-0.07299805,0.3202362,0.008071899,-0.25523818,-0.58219814,0.29789388
1570715542,-2.1882935,9.037506,1.7172394,-0.07299805,0.3202362,0.008071899,-0.25523818,-0.58219814,0.29789388
1570715542,-2.2355804,8.601761,1.506546,-0.026123047,0.269104,-0.004714966,-0.4717958,-0.89156246,0.13889301
1570715542,-1.8243866,8.720276,1.60112,0.022872925,0.043273926,-0.05265808,0.019508123,-0.99735737,0.118817925
1570715542,-1.853714,8.898651,1.5658112,0.0058288574,0.0059814453,-0.07395935,0.0839932,-0.6920757,0.16897964
1570715542,-1.8279724,8.91481,1.7214355,-0.103881836,0.20625305,-0.031341553,0.06784737,-0.708436,0.26086557
1570715542,-1.7878723,8.905838,1.6346436,-0.10708618,0.23608398,-0.023895264,0.12336826,-0.65324116,0.2566408
1570715542,-1.8393402,9.021347,1.5867615,-0.06021118,0.2179718,0.030441284,0.10167742,-0.43562508,0.163486
1570715542,-1.8620911,9.016571,1.6148834,-0.05381775,0.21052551,0.030441284,0.10167742,-0.43562508,0.163486
1570715542,-2.315796,8.71489,1.8501129,0.011154175,0.16471863,0.06878662,-0.36618364,-0.79514885,0.3992455
1570715542,-2.315796,8.71489,1.8501129,0.011154175,0.16471863,0.06878662,-0.36618364,-0.79514885,0.3992455
1570715542,-2.5570068,8.446152,1.8962097,-0.10601807,0.28935242,0.09436035,-0.6542876,-1.036665,0.38877952
1570715542,-2.5360565,8.462906,1.8609009,-0.1124115,0.29786682,0.09541321,-0.6542876,-1.036665,0.38877952
1570715542,-1.8040314,8.789719,1.4269409,-0.14543152,0.27017212,-0.017501831,0.057776332,-0.6409025,-0.05397749
1570715542,-1.8171997,8.796295,1.4574738,-0.14649963,0.25419617,-0.021759033,0.057776332,-0.6409025,-0.05397749
1570715542,-1.5310974,8.948334,1.3904266,-0.16033936,0.021972656,-0.044128418,0.42668843,-0.51184845,-0.2364881
1570715542,-1.5406647,8.944138,1.3766632,-0.16033936,0.015579224,-0.042007446,0.42668843,-0.51184845,-0.2364881
1570715542,-1.5364838,8.964493,1.6663666,-0.033584595,-0.04727173,0.03363037,0.46863508,-0.4382515,-0.026228428
1570715542,-1.5364838,8.964493,1.6663666,-0.033584595,-0.04727173,0.03363037,0.46863508,-0.4382515,-0.026228428
1570715542,-1.5861511,8.742432,1.8237762,0.07720947,-0.1388855,0.09008789,0.37613726,-0.5994644,0.116729975
1570715542,-1.8992004,8.625107,2.0536194,0.1347351,-0.19641113,0.09329224,0.03192711,-0.82629585,0.3851714
1570715542,-2.0410614,8.586212,2.2511444,0.029266357,-0.1580658,0.05493164,-0.18506086,-0.8481331,0.5728717
1570715542,-2.1709442,8.556274,2.1290436,-0.059143066,-0.076034546,0.036834717,-0.26067853,-0.84770584,0.550678
1570715542,-2.0374603,8.414429,2.0835571,-0.15075684,0.028366089,0.026184082,-0.22357297,-0.9699955,0.41532683
1570715542,-2.1218567,8.857346,1.5939331,-0.15075684,0.012374878,0.12950134,-0.2521739,-0.50753784,-0.111200094
1570715542,-2.1218567,8.857346,1.5939331,-0.15075684,0.012374878,0.12950134,-0.2521739,-0.50753784,-0.111200094
1570715542,-2.1805267,8.829819,1.8830414,-0.1443634,0.1157074,0.15400696,-0.44088745,-0.5248709,0.07629442
1570715542,-2.1787262,8.638275,1.99617,-0.0847168,0.1434021,0.11566162,-0.48542082,-0.6463089,0.14837503
1570715542,-1.5759888,8.790314,1.9919739,0.093185425,-0.13781738,-0.033477783,0.11484182,-0.63888836,0.1508044
1570715542,-1.0163422,8.620331,2.4516602,0.11769104,-0.49787903,-0.043060303,0.6327257,-0.7495136,0.63693213
1570715542,-1.0163422,8.620331,2.4516602,0.11769104,-0.49787903,-0.043060303,0.6327257,-0.7495136,0.63693213
1570715542,-0.8253937,9.059662,2.2116394,0.14964294,-0.3902893,-0.028152466,0.857496,-0.33687878,0.5235777
1570715542,-0.8253937,9.059662,2.2116394,0.14964294,-0.3902893,-0.028152466,0.857496,-0.33687878,0.5235777
1570715543,-0.90200806,8.834,2.5468292,0.10597229,0.08908081,0.21899414,0.6503506,-0.56181335,0.81822336
1570715543,-0.90200806,8.834,2.5468292,0.10597229,0.08908081,0.21899414,0.6503506,-0.56181335,0.81822336
1570715543,-1.1893158,8.808868,1.9698334,0.12408447,0.17643738,0.20301819,0.32054615,-0.65177727,0.27912068
1570715543,-1.162384,8.91301,1.9638367,0.10809326,0.11038208,0.1689148,0.33024323,-0.51740074,0.26695848
1570715543,-0.90560913,9.108734,1.9315186,0.11555481,0.021972656,0.10394287,0.47431767,-0.37219143,0.3071196
1570715543,-1.0923615,9.043503,1.1923065,-0.16140747,0.088012695,0.18916321,0.28862667,-0.39380264,-0.48158133
1570715543,-1.0923615,9.043503,1.1923065,-0.16140747,0.088012695,0.18916321,0.28862667,-0.39380264,-0.48158133
1570715543,-1.0684052,8.999207,1.5263062,-0.17312622,0.2179718,0.17105103,0.21297085,-0.42921162,-0.1929847
1570715543,-0.81881714,8.93396,1.2581482,0.11236572,0.04220581,0.06878662,0.43435216,-0.42191124,-0.315251
1570715543,-0.7266388,8.923782,1.2665253,0.16989136,-0.083496094,0.042160034,0.5330386,-0.48159504,-0.4051913
1570715543,-0.6183014,8.889664,1.5346832,0.23806763,-0.32530212,-0.06437683,0.64572024,-0.49658108,-0.07217157
1570715543,-0.58418274,8.873505,1.948883,0.114486694,-0.3391571,-0.14320374,0.66762173,-0.6655617,0.37255633
1570715543,-0.8451538,8.826828,1.9943695,0.062286377,-0.27737427,-0.1687622,0.5354545,-0.57096004,0.55357504
1570715543,-0.8672943,8.808868,1.964447,0.050582886,-0.26779175,-0.16236877,0.49212968,-0.60842896,0.51369023
1570715543,-0.98820496,8.948929,2.063202,-0.0847168,-0.087753296,-0.19645691,0.3350544,-0.4512291,0.46115625
1570715543,-0.98820496,8.948929,2.063202,-0.0847168,-0.087753296,-0.19645691,0.3905238,-0.4546423,0.5135647
1570715543,-1.0905609,9.009384,1.6974945,0.007965088,-0.106933594,-0.20179749,0.32430303,-0.33790302,0.14996147
1570715543,-1.2940674,8.859146,2.0332794,0.095321655,0.06350708,-0.11444092,0.3379221,-0.5001373,0.5346949
1570715543,-1.2940674,8.859146,2.0332794,0.095321655,0.06350708,-0.11444092,0.2481122,-0.5477686,0.5144094
1570715543,-1.4879913,8.812454,1.8914185,-0.0016174316,0.28507996,-0.0622406,0.064537644,-0.58240986,0.35286522
1570715543,-1.663971,8.816055,1.6472168,-0.08364868,0.62384033,-0.08779907,-0.07847047,-0.5991888,0.20893824
1570715543,-1.6585846,8.800491,1.5819702,-0.076187134,0.60040283,-0.09207153,-0.0374521,-0.5382042,0.13679194
1570715543,-1.2479706,8.633484,1.2785034,0.13580322,-0.5330353,-0.12402344,0.45689762,-0.5689974,-0.30494857
1570715543,-1.2276306,8.645462,1.2617493,0.14112854,-0.5639343,-0.12615967,0.49116886,-0.63610744,-0.23946655
1570715543,-1.5418701,8.5048065,1.829773,0.12940979,-0.6118622,-0.108047485,0.23602188,-0.8050308,0.21348667
1570715543,-1.9201508,8.640076,2.5198975,0.048446655,0.08908081,-0.028152466,-0.22375691,-0.6733246,1.0582393
1570715543,-1.9393005,8.680771,1.687912,-0.015472412,0.37669373,0.007003784,-0.23152864,-0.6429796,0.47149456
1570715543,-1.948288,8.820831,1.6208801,-0.1166687,-0.14846802,-0.08354187,-0.1891669,-0.4397869,-0.044092894
1570715543,-1.9201508,8.817841,1.6603851,-0.103881836,-0.17404175,-0.08779907,-0.1891669,-0.4397869,-0.044092894
1570715543,-1.4975739,8.847168,1.4269409,0.036727905,-0.5149231,-0.15492249,0.27565837,-0.42255974,-0.13536549
1570715543,-1.467041,8.841782,1.4089813,0.04524231,-0.62783813,-0.18048096,0.33211315,-0.4340906,-0.21112335
1570715543,-2.2086487,8.712494,2.0494385,-0.090042114,-0.15060425,0.025115967,-0.3532747,-0.52136517,0.30408597
1570715543,-2.2086487,8.712494,2.0494385,-0.090042114,-0.15060425,0.025115967,-0.4012288,-0.519886,0.37051594
1570715544,-2.1517944,8.811859,1.4024048,-0.052749634,0.25738525,0.01979065,-0.377851,-0.40006065,-0.23056805
1570715544,-2.1517944,8.811859,1.4024048,-0.052749634,0.25738525,0.01979065,-0.377851,-0.40006065,-0.23056805
1570715544,-2.0644073,8.65683,1.7531586,0.08467102,-0.2049408,-0.09207153,-0.20244217,-0.54786205,0.016272068
1570715544,-2.0644073,8.65683,1.7531586,0.08467102,-0.2049408,-0.09207153,-0.20244217,-0.54786205,0.016272068
1570715544,-1.8997955,8.7226715,1.9494781,0.04951477,-0.14527893,-0.075027466,-0.06411195,-0.49080467,0.33998716
1570715544,-1.8507233,8.751999,1.9261322,-0.027191162,0.12742615,-0.008972168,4.1604042E-4,-0.4595728,0.28436184
1570715544,-1.9740143,8.73465,1.7130585,-0.05381775,0.16577148,-0.004714966,-0.05606842,-0.47198582,0.061079264
1570715544,-1.9740143,8.73465,1.7130585,-0.05381775,0.16577148,-0.004714966,-0.05606842,-0.47198582,0.061079264
1570715544,-2.047638,8.843582,1.7639313,0.011154175,0.17004395,-0.030288696,-0.11634171,-0.35609436,0.105039716
1570715544,-1.9967651,8.850174,1.7944489,0.01222229,0.17962646,-0.030288696,-0.11727369,-0.34907532,0.11141932
1570715544,-2.1523895,8.754395,1.8638916,0.12727356,0.40226746,-0.051589966,-0.15824509,-0.37860966,0.26672196
1570715544,-2.1523895,8.754395,1.8638916,0.12727356,0.40226746,-0.051589966,-0.15824509,-0.37860966,0.26672196
1570715544,-2.1062927,8.866928,1.7741089,0.15284729,0.44274902,-0.047332764,-0.07406902,-0.30963516,0.22458434
1570715544,-2.0608063,8.799881,1.7411804,0.15390015,0.4416809,-0.05265808,-0.07406902,-0.30963516,0.22458434
1570715544,-2.114685,8.765778,1.5586243,0.20184326,0.40333557,-0.0814209,-0.018751144,-0.2773142,0.22647667
1570715544,-2.114685,8.765778,1.5586243,0.20184326,0.40333557,-0.0814209,-0.018751144,-0.2773142,0.22647667
1570715544,-2.2780762,8.752609,1.3742676,0.20291138,0.37243652,-0.06437683,-0.025109053,-0.2840929,0.103096485
1570715544,-2.3618774,8.805283,1.2713165,0.20291138,0.36497498,-0.0622406,-0.12248683,-0.31758404,0.039910674
1570715544,-2.5857391,9.023743,1.3904266,0.19651794,0.46725464,-0.063308716,-0.30605412,-0.1467762,0.29593742
1570715544,-2.6533813,9.017166,1.1204834,0.118759155,0.43954468,-0.072891235,-0.3888681,-0.021250725,0.07824528
1570715544,-2.6892853,8.844772,1.0696106,0.18373108,0.4640503,-0.0899353,-0.2867427,-0.17933464,0.059947133
1570715544,-2.6892853,8.844772,1.0696106,0.18373108,0.4640503,-0.0899353,-0.2867427,-0.17933464,0.059947133
1570715544,-2.8467102,8.573639,0.9528961,0.33605957,0.4374237,-0.15171814,-0.39224577,-0.40941715,0.13043529
1570715544,-2.8700562,8.072052,1.525711,0.45750427,0.40119934,-0.1836853,-0.450536,-0.9574604,0.8582078
1570715544,-2.6665497,8.140884,0.24121094,0.22421265,0.12530518,-0.20179749,-0.13895702,-0.9384756,-0.59393805
1570715544,-2.5468292,8.644867,0.6548157,0.06867981,0.63342285,-0.015365601,0.057403088,-0.44460297,0.22252932
1570715544,-2.5468292,8.644867,0.6548157,0.06867981,0.63342285,-0.015365601,0.057403088,-0.44460297,0.22252932
1570715544,-2.8311462,8.706512,0.26156616,-0.05807495,0.62809753,0.10394287,-0.255924,-0.31559277,-0.14371327
1570715544,-2.8515015,9.038712,-0.37469482,0.0058288574,0.36071777,-0.010040283,-0.27897668,-0.039155006,-0.6332604
1570715544,-2.7677002,9.01297,-0.34954834,0.015426636,0.20625305,-0.047332764,-0.19892526,0.0108270645,-0.78688145
1570715544,-2.3930054,8.423401,0.38067627,0.062286377,0.109313965,-0.10058594,0.19422913,-0.43909836,-0.089677006
1570715544,-2.7174225,9.086594,-0.24360657,-0.0463562,0.06564331,-0.0814209,-0.11034036,-0.12255764,-0.33660504
1570715544,-2.7174225,9.086594,-0.24360657,-0.0463562,0.06564331,-0.0814209,-0.11034036,-0.12255764,-0.33660504
1570715545,-2.5522156,8.957306,0.13526917,-0.13264465,0.1710968,-0.070755005,0.009067297,0.18904018,-0.68983006
1570715545,-3.0328522,9.215881,-1.1959076,0.35949707,0.7570038,0.06665039,-0.21107411,0.17121029,-1.1273549
1570715545,-3.0328522,9.215881,-1.1959076,0.35949707,0.7570038,0.06665039,-0.21107411,0.17121029,-1.1273549
1570715545,-2.6593628,8.830414,-1.083374,0.37335205,0.23822021,0.040023804,-0.14061737,0.020093918,-1.3322664
1570715545,-1.1127014,8.257599,0.23822021,0.71743774,0.27975464,-0.02708435,1.6461515,-0.6978884,0.34099433
1570715545,-1.1791382,8.306686,0.24301147,0.73553467,0.3671112,-0.010040283,1.5919943,-0.6844168,0.5501647
1570715545,-2.114685,8.49762,-0.3106537,0.5107727,0.6909485,0.14016724,0.7700989,-0.40719318,0.3945099
1570715545,-2.779663,8.218689,-0.65960693,0.10383606,-0.28056335,0.24029541,-0.31486154,-0.8272934,-0.1982047
1570715545,-2.4378967,8.400055,-0.4046173,0.18054199,-0.3807068,0.091156006,0.06808424,-0.511014,0.2816912
1570715545,-2.4378967,8.400055,-0.4046173,0.18054199,-0.3807068,0.091156006,0.06808424,-0.511014,0.2816912
1570715545,-2.261322,8.43837,-0.5853882,0.10064697,-0.15486145,0.13056946,0.25227404,-0.5627489,0.20533937
1570715545,-2.1565704,8.489838,-0.8750763,-0.07192993,0.045410156,0.18276978,0.28641844,-0.5616703,-0.106329024
1570715545,-2.1565704,8.489838,-0.8750763,-0.07192993,0.045410156,0.18595886,0.28641844,-0.5616703,-0.106329024
1570715545,-2.1613617,8.807068,-0.5805969,-0.20188904,-0.40093994,0.17105103,0.0600698,-0.19650936,-0.024188638
1570715545,-2.1613617,8.807068,-0.5805969,-0.20188904,-0.40093994,0.17105103,0.0600698,-0.19650936,-0.024188638
1570715545,-2.2726898,8.77356,-0.41838074,-0.17312622,-0.43077087,0.091156006,-0.008286715,-0.225317,0.023843825
1570715545,-2.4163513,8.89566,-0.6027374,-0.078323364,-0.46699524,-0.018569946,-0.13058543,-0.16411495,-0.114085555
1570715545,-2.5755615,8.437164,-0.38426208,0.039916992,-0.338089,0.0037994385,-0.3693924,-0.579834,0.0053756237
1570715545,-2.5755615,8.437164,-0.38426208,0.039916992,-0.338089,0.0037994385,-0.3693924,-0.579834,0.0053756237
1570715545,-2.2463531,8.51857,-0.2454071,0.071884155,-0.20706177,0.06452942,0.049499035,-0.4912529,0.06525749
1570715545,-2.3217773,8.435974,-0.015563965,0.10171509,-0.14953613,0.12950134,-0.1018126,-0.5717888,0.3183914
1570715545,-2.5318756,9.361328,-1.1605835,0.009033203,-0.14953613,0.15507507,-0.19865346,0.4849577,-0.5702863
1570715545,-1.8686676,9.192535,-0.7972717,-0.0016174316,-0.22198486,0.11991882,0.2651744,0.2839489,-0.61368465
1570715545,-1.6376343,9.004593,0.046691895,0.18798828,0.31918335,0.124176025,0.57296896,-0.04669094,0.34818524
1570715545,-2.5803528,8.566452,-0.7775116,0.07295227,0.17643738,0.018722534,-0.40759397,-0.48216438,-0.16668445
1570715545,-2.5803528,8.566452,-0.7775116,0.07295227,0.17643738,0.018722534,-0.40759397,-0.48216438,-0.16668445
1570715545,-3.652359,8.405441,-0.74160767,0.27108765,-0.64808655,-0.23693848,-1.432267,-0.5455904,-0.2786832
1570715545,-3.5948944,8.08223,-0.4734497,0.40957642,-0.6502075,-0.30725098,-1.4752665,-0.8063059,0.0657419
1570715545,-2.4923706,7.9272003,-0.24061584,0.46496582,-0.42651367,-0.38500977,-0.5911584,-1.0344219,0.19714946
1570715545,-1.130661,7.2951355,0.60572815,-0.1954956,0.4171753,0.12738037,1.3176723,-1.5298119,1.2955124
1570715545,-1.1294708,7.2675934,0.5925598,-0.22532654,0.44700623,0.15933228,1.3176723,-1.5298119,1.2955124
1570715545,-1.8213959,7.994232,0.24182129,-0.58325195,0.64941406,0.38304138,0.59390664,-1.0709419,1.035506
1570715545,-2.3343506,9.135681,-1.4347229,-0.7909851,-0.2454071,0.21792603,-0.13506365,0.14144993,-1.124997
1570715545,-2.3343506,9.135681,-1.4347229,-0.7909851,-0.2454071,0.21792603,-0.13506365,0.14144993,-1.124997
1570715546,-2.5588074,9.625885,-1.3610992,-0.30096436,-0.36473083,0.079437256,-0.4867015,0.50184727,-1.1878995
1570715546,-2.8167725,10.072403,-1.5682068,-0.16673279,0.34474182,-0.16131592,-0.75737,1.1321592,-1.5185225
1570715546,-2.3930054,9.569031,-0.80744934,-0.1315918,0.30319214,-0.21138,-0.38135004,0.7201452,-0.97240144
1570715546,-1.546051,8.51738,-0.0018005371,-0.08578491,-0.4371643,-0.25505066,0.5964503,-0.4518118,-0.094673775
1570715546,-1.546051,8.51738,-0.0018005371,-0.08578491,-0.4371643,-0.25505066,0.5964503,-0.4518118,-0.094673775
1570715546,-1.9039917,8.435974,0.70628357,-0.5726013,0.18920898,0.0048675537,0.38027,-0.5452137,0.616853
1570715546,-1.9039917,8.435974,0.70628357,-0.5726013,0.18920898,0.0048675537,0.38027,-0.5452137,0.616853
1570715546,-1.8519135,8.445541,0.38845825,-0.7675476,-0.046203613,0.1103363,0.52990603,-0.47617245,-0.123448074
1570715546,-1.8519135,8.445541,0.38845825,-0.7675476,-0.046203613,0.1103363,0.52990603,-0.47617245,-0.123448074
1570715546,-3.047226,8.674194,1.0474701,-0.7132263,0.078430176,0.19874573,-0.64370847,-0.37177563,0.16855097
1570715546,-2.426529,8.746613,0.9139862,-0.4607544,0.3660431,-0.028152466,-0.3151734,-0.22751331,-0.038764
1570715546,-2.426529,8.746613,0.9139862,-0.4607544,0.3660431,-0.028152466,-0.3151734,-0.22751331,-0.038764
1570715546,-1.9686279,8.912415,0.93673706,-0.22746277,-0.21238708,-0.1602478,0.36283612,0.054243088,-0.20713472
1570715546,-1.91716,8.947128,0.90141296,-0.22958374,-0.2177124,-0.15917969,0.33118653,0.019388199,-0.2539258
1570715546,-2.0332794,8.869324,1.2048798,-0.24023438,-0.14527893,-0.06437683,0.24795818,-0.011054993,-0.35257757
1570715546,-1.7579498,8.775345,1.9075775,-0.10282898,0.37243652,-0.005783081,0.4718163,-0.06592083,0.52551615
1570715546,-1.6412201,8.804672,1.9746246,-0.045303345,0.4683075,-0.011108398,0.63991547,-0.035830498,0.643311
1570715546,-1.6316528,8.795105,1.1947021,0.017547607,0.44381714,-0.032409668,0.8142183,-0.090268135,0.049726844
1570715546,-1.6490021,8.807663,1.1564026,0.0037078857,0.42677307,-0.026016235,0.75739837,-0.07402897,-0.024849057
1570715546,-2.1601715,8.9279785,1.2671356,-0.21681213,-0.24754333,0.009140015,0.24228501,0.08520126,-0.13858545
1570715546,-2.1655579,8.944733,1.2288208,-0.22000122,-0.26139832,0.009140015,0.24228501,0.08520126,-0.13858545
1570715546,-2.1918945,8.681976,1.632843,-0.16993713,-0.24754333,-0.019622803,0.1527865,-0.0886631,0.23084247
1570715546,-2.1128845,8.6514435,1.7316132,-0.0697937,0.03262329,-0.045196533,0.27182102,-0.1588974,0.30615044
1570715546,-2.1128845,8.6514435,1.7316132,-0.0697937,0.03262329,-0.045196533,0.27182102,-0.1588974,0.30615044
1570715546,-2.1440125,8.832214,1.68013,-0.03677368,0.07736206,-0.045196533,0.20916319,-0.0324049,0.21056724
1570715546,-2.146408,8.792709,1.6938934,-0.035705566,0.076293945,-0.043060303,0.24009657,1.1253357E-4,0.20006597
1570715546,-2.1757355,8.783722,1.6986847,-0.041030884,0.04006958,-0.037734985,0.19941974,-0.0126132965,0.176471
1570715546,-2.1763306,8.756195,1.7046661,-0.05381775,0.004928589,-0.030288696,0.21749377,-0.013450623,0.23213482
1570715546,-2.2200165,8.681976,1.932724,-0.041030884,-0.008926392,-0.0025787354,0.15827298,-0.07086754,0.33157134
1570715546,-2.2080536,8.678375,1.9255371,-0.038909912,-0.008926392,6.1035156E-4,0.1581235,-0.101716995,0.3679061
1570715546,-2.2499542,8.693344,1.8004456,-0.029312134,0.029418945,0.0155181885,0.12188482,-0.093476295,0.2327367
1570715546,-2.2415771,8.8016815,1.6897125,-0.035705566,0.024093628,0.024047852,0.14030123,-0.025977135,0.1375761
1570715546,-2.3343506,8.760986,1.7758942,-0.030380249,0.015579224,0.025115967,0.043279886,0.03663349,0.16558123
1570715547,-2.2834625,8.717285,1.7489624,-0.039978027,0.04966736,0.03363037,0.027523994,-0.03800583,0.13270843
1570715547,-2.1553802,8.759186,1.8112183,-0.03465271,0.07949829,0.03363037,0.15795851,-0.039274216,0.14430308
1570715547,-2.0817566,8.634689,1.6071014,0.004776001,-0.022781372,0.034698486,0.21547198,-0.14135838,0.021638632
1570715547,-2.0817566,8.634689,1.6071014,0.004776001,-0.022781372,0.034698486,0.21547198,-0.14135838,0.021638632
1570715547,-2.2475586,8.543106,1.9333191,-0.037841797,-0.009994507,0.042160034,0.08658123,-0.1607275,0.25383437
1570715547,-2.1912994,8.543106,1.9333191,-0.037841797,-0.009994507,0.042160034,0.08658123,-0.1607275,0.25383437
1570715547,-2.5791473,8.592194,1.9375153,-0.09643555,0.04966736,0.010192871,-0.25308275,-0.18113422,0.1741091
1570715547,-2.6024933,8.580215,1.9512787,-0.0974884,0.050735474,0.0155181885,-0.32500625,-0.1608429,0.19870448
1570715547,-2.692276,8.611343,2.0368652,-0.10708618,0.060317993,0.017654419,-0.4061978,-0.11829758,0.2501601
1570715547,-2.609085,8.535934,1.9387054,-0.123062134,0.121032715,-0.030288696,-0.33245206,-0.17967415,0.1531409
1570715547,-2.609085,8.535934,1.9387054,-0.123062134,0.121032715,-0.030288696,-0.33245206,-0.17967415,0.1531409
1570715547,-2.6533813,8.562866,1.7980499,-0.13052368,0.101867676,-0.061172485,-0.31424427,-0.18539906,0.024910688
1570715547,-2.5366516,8.63768,1.8399506,-0.11880493,-0.0046691895,-0.09739685,-0.16897511,-0.07052231,-0.025903821
1570715547,-2.466034,8.898651,1.640625,-0.1166687,-0.14953613,-0.096328735,-0.0813241,0.22247791,-0.23938584
1570715547,-2.4474792,8.822632,1.6454163,-0.12838745,-0.18469238,-0.0856781,-0.030381203,0.17471695,-0.2942158
1570715547,-2.347519,8.634094,2.067398,-0.12945557,-0.07284546,-0.020690918,0.052063227,-0.04705715,0.08475721
1570715547,-2.3989868,8.664612,2.0296783,-0.13264465,0.088012695,0.030441284,0.00787878,-0.024477959,0.054819822
1570715547,-2.2128448,8.520966,1.9003906,-0.15501404,0.23394775,0.07624817,0.1790688,-0.10633469,-0.115272045
1570715547,-2.067398,8.533539,1.8872223,-0.15075684,0.23501587,0.07197571,0.2535491,-0.1593113,-0.20154524
1570715547,-2.1841125,8.656235,1.8956146,-0.14543152,0.14128113,0.029373169,0.20098615,0.050281525,-0.19047904
1570715547,-2.1882935,8.573639,1.9596558,-0.135849,0.076293945,0.0155181885,0.17726183,-0.041915894,-0.13722253
1570715547,-2.1613617,8.53952,2.1212616,-0.07725525,-0.0057373047,0.013397217,0.21786547,-0.059030533,-0.009664774
1570715547,-2.0350647,8.544312,2.3349457,5.0354004E-4,-0.22410583,-0.030288696,0.24829149,-0.117339134,0.14480376
1570715547,-2.0350647,8.544312,2.3349457,5.0354004E-4,-0.22410583,-0.030288696,0.24829149,-0.117339134,0.14480376
1570715547,-2.1517944,8.563461,2.5043335,0.050582886,-0.30400085,-0.075027466,0.16233897,-0.002696991,0.29929256
1570715547,-2.114685,8.493423,2.522293,0.060165405,-0.34980774,-0.098464966,0.15954733,-0.031303406,0.3098185
1570715547,-2.1440125,8.592789,2.5809479,0.058029175,-0.38389587,-0.13894653,0.12862253,0.025341034,0.34220052
1570715547,-2.269699,8.552689,2.74794,0.07507324,-0.5064087,-0.17941284,4.6682358E-4,-0.08802223,0.43140912
1570715547,-2.4702148,8.671799,2.8515015,0.12727356,-0.56925964,-0.21777344,-0.075696945,0.10515404,0.6277137
1570715547,-2.3265686,8.798691,2.8838196,0.08679199,-0.27416992,-0.14213562,0.010142803,0.1967392,0.68827724
1570715547,-2.3121948,8.740036,2.9179382,0.083602905,-0.25286865,-0.13574219,0.010142803,0.1967392,0.68827724
1570715547,-2.1727448,8.699326,2.6988678,0.0058288574,-0.071777344,-0.022827148,0.2430048,0.13148499,0.40498734
1570715547,-2.2726898,8.640671,2.9514465,-0.087905884,0.29786682,0.13589478,0.044448853,0.015094757,0.66267276
1570715547,-2.2726898,8.640671,2.9514465,-0.087905884,0.29786682,0.13589478,0.044448853,0.015094757,0.66267276
1570715548,-1.8626862,8.77475,2.4019775,-0.115600586,0.3617859,0.07197571,0.4258914,0.11774349,0.13866472
1570715548,-1.8477325,8.723877,2.3469238,-0.115600586,0.3394165,0.06665039,0.44514418,0.16836548,0.09032202
1570715548,-1.6597748,8.831009,2.230194,-0.10601807,0.16151428,0.026184082,0.5958483,0.18335819,-0.096015215
1570715548,-1.4155731,8.936951,2.0985107,-0.07939148,0.047531128,0.007003784,0.8800597,0.40037632,-0.26013327
1570715548,-1.6711578,8.765167,2.340332,0.013290405,0.08375549,0.0868988,0.6261816,0.17189503,-0.04694128
1570715548,-1.9033966,8.771759,2.2720947,0.031402588,0.14128113,0.09222412,0.49052382,0.20672321,-0.04145336
1570715548,-2.2673035,8.705917,2.2822723,0.028198242,0.22969055,0.09648132,0.021805525,0.10766125,-0.107854605
1570715548,-2.0225067,8.890274,1.9422913,0.043121338,0.09654236,0.026184082,0.20935273,0.3233242,-0.35238194
1570715548,-1.9758148,8.596985,2.60849,0.21888733,-0.384964,-0.061172485,0.35601878,-0.03265381,0.33797622
1570715548,-1.9758148,8.596985,2.60849,0.21888733,-0.384964,-0.061172485,0.35601878,-0.03265381,0.33797622
1570715548,-2.1296387,8.735245,2.7742767,0.13366699,-0.09095764,0.026184082,0.05073309,0.15195656,0.51709557
1570715548,-2.182312,8.626907,2.6258392,0.07507324,0.019836426,0.0592041,0.030581236,0.045013428,0.39778996
1570715548,-2.387619,8.592194,2.2984314,0.051635742,0.043273926,0.04109192,-0.1953814,-0.088988304,0.11248016
1570715548,-2.387619,8.592194,2.2984314,0.051635742,0.043273926,0.04109192,-0.1953814,-0.088988304,0.11248016
1570715548,-1.9895782,8.744827,2.023697,0.032470703,-3.9672852E-4,0.024047852,0.16273642,0.12687111,-0.18069553
1570715548,-1.9895782,8.744827,2.023697,0.032470703,-3.9672852E-4,0.024047852,0.16273642,0.12687111,-0.18069553
1570715548,-1.8441315,8.725067,1.9632416,0.050582886,0.028366089,0.027236938,0.34127307,0.07459259,-0.21032572
1570715548,-1.9099731,8.721481,1.8507233,0.06867981,6.5612793E-4,0.032562256,0.2637577,0.04708481,-0.28487444
1570715548,-2.143402,8.652649,1.8956146,0.081466675,-0.10479736,0.0155181885,-0.02739191,-0.011009216,-0.20923567
1570715548,-2.2122498,8.640076,1.916565,0.07081604,-0.10054016,-4.5776367E-4,-0.044476986,-0.0586977,-0.20770144
1570715548,-2.1398163,8.733444,1.9015961,0.08467102,-0.17404175,-0.035614014,-0.0026991367,0.03982544,-0.18763947
1570715548,-2.1470032,8.726868,1.9123688,0.08999634,-0.17936707,-0.037734985,-0.0026991367,0.03982544,-0.18763947
1570715548,-2.0811615,8.702927,2.004547,0.102767944,-0.13781738,0.002746582,0.019368887,-0.021739006,-0.08187771
1570715548,-2.0811615,8.702927,2.004547,0.102767944,-0.13781738,0.002746582,0.019368887,-0.021739006,-0.08187771
1570715548,-2.1128845,8.679581,1.9536743,0.11343384,-0.14102173,0.0016784668,0.009418249,-0.035305977,-0.05651951
1570715548,-2.2673035,8.683777,2.0338745,0.083602905,-0.14846802,6.1035156E-4,-0.12031531,-0.042217255,0.071635365
1570715548,-2.2673035,8.683777,2.0338745,0.083602905,-0.14846802,6.1035156E-4,-0.12031531,-0.042217255,0.071635365
1570715548,-2.2948456,8.667007,1.9620514,0.046310425,-0.08135986,0.012329102,-0.22461629,-0.07171726,0.024755955
1570715548,-2.3301544,8.642471,1.9865875,0.042053223,-0.08135986,0.013397217,-0.21668458,-0.08860397,-0.0010939837
1570715548,-2.2744904,8.663422,1.9321136,0.050582886,-0.08135986,0.011260986,-0.1433754,-0.04018116,-0.024696112
1570715548,-2.173935,8.707108,1.95607,0.081466675,-0.07496643,-4.5776367E-4,-0.0846858,-0.019946098,0.02768445
1570715548,-2.173935,8.707108,1.95607,0.081466675,-0.07496643,-4.5776367E-4,-0.0846858,-0.019946098,0.02768445
1570715548,-2.2313995,8.666412,1.8980103,0.06655884,-0.08456421,-0.0025787354,-0.08961201,-0.120306015,-0.050113082
1570715549,-2.1715393,8.678375,2.0051422,0.03565979,-0.015319824,-0.029220581,0.008787394,-0.06321907,0.08255947
1570715549,-1.9853973,8.753799,1.8926239,0.019683838,-0.043014526,-0.035614014,0.09023571,0.03395176,-0.0569309
1570715549,-1.9985657,8.798096,1.8567047,0.020751953,-0.048339844,-0.03666687,0.09023571,0.03395176,-0.0569309
1570715549,-1.9817963,8.765778,1.8531189,0.044189453,-0.09307861,-0.019622803,0.108607054,0.08858776,-0.05240822
1570715549,-2.0650024,8.718491,1.9506683,0.06123352,-0.08029175,-0.0015258789,0.071769,-0.006706238,0.046174526
1570715549,-2.1733398,8.69754,1.9590607,0.071884155,-0.013183594,0.016586304,-0.06626034,-0.048057556,0.068909764
1570715549,-2.2110443,8.65683,1.9117737,0.062286377,-0.002532959,0.024047852,-0.09712148,-0.042969704,0.055209517
1570715549,-2.229599,8.685562,1.8543091,0.038864136,-0.0121154785,0.010192871,-0.13066411,-0.022371292,0.036062717
1570715549,-2.2744904,8.639481,1.8477325,0.011154175,-0.024902344,-4.5776367E-4,-0.15076613,-0.06892967,-0.013737559
1570715549,-2.2918549,8.739441,1.806427,-0.02079773,0.028366089,-0.012176514,-0.11917472,-0.046020508,-0.05023372
1570715549,-2.2918549,8.751404,1.7723083,-0.018661499,0.033691406,-0.010040283,-0.11917472,-0.046020508,-0.05023372
1570715549,-2.2505493,8.668213,1.7675171,-0.013336182,0.08694458,0.012329102,-0.14961338,-0.022221565,-0.059867024
1570715549,-2.2505493,8.668213,1.7675171,-0.013336182,0.08694458,0.012329102,-0.14961338,-0.022221565,-0.059867024
1570715549,-2.1571808,8.640076,1.7615356,-0.0016174316,0.13595581,0.012329102,-0.046607256,-0.07439709,-0.06745124
1570715549,-2.1571808,8.640076,1.7615356,-0.0016174316,0.13595581,0.012329102,-0.046607256,-0.07439709,-0.06745124
1570715549,-2.119461,8.725662,1.7292175,-0.057022095,0.14767456,0.0048675537,0.009408474,-0.006914139,-0.119517446
1570715549,-2.119461,8.725662,1.7292175,-0.057022095,0.14767456,0.0048675537,0.009408474,-0.006914139,-0.119517446
1570715549,-2.1176758,8.75679,1.6304474,-0.037841797,0.111450195,0.018722534,0.11552,0.062423706,-0.15413272
1570715549,-2.1045074,8.747223,1.6466064,-0.03677368,0.10398865,0.017654419,0.11552,0.062423706,-0.15413272
1570715549,-2.166153,8.7556,1.7238312,0.03779602,-0.017440796,-0.005783081,0.056056738,0.04574299,-0.12654483
1570715549,-2.166153,8.7556,1.7238312,0.03779602,-0.017440796,-0.005783081,0.056056738,0.04574299,-0.12654483
1570715549,-2.1996765,8.625107,1.7836761,0.03565979,-0.08242798,-0.016433716,0.018010616,-0.095184326,0.047642946
1570715549,-2.166748,8.616135,1.8183899,0.031402588,-0.08456421,-0.010040283,0.018010616,-0.095184326,0.047642946
1570715549,-1.9548645,8.738235,1.7645264,0.021820068,0.012374878,0.061325073,0.19994402,0.014259338,0.03119123
1570715549,-1.9548645,8.738235,1.7645264,0.021820068,0.012374878,0.061325073,0.19994402,0.014259338,0.03119123
1570715549,-1.6681671,8.838196,1.7627258,0.07720947,-0.06752014,0.040023804,0.42694402,0.108989716,-0.022154331
1570715549,-1.4335327,8.866928,1.6938934,0.18054199,-0.2837677,0.03363037,0.5531473,0.14780998,0.033004522
1570715549,-1.3467407,8.941742,2.01651,0.29452515,-0.5628662,0.09329224,0.68505716,0.1778431,0.30683458
1570715549,-1.5185242,8.909424,2.2960358,0.30197144,-0.37324524,0.23176575,0.4352697,0.13466072,0.6231092
1570715549,-1.5185242,8.909424,2.2960358,0.30197144,-0.37324524,0.23176575,0.4352697,0.13466072,0.6231092
1570715549,-1.5873566,8.741837,2.347519,0.27320862,-0.14208984,0.28077698,0.30814016,-0.050151825,0.71413887
1570715549,-1.7627258,8.661621,1.8118134,0.15710449,0.07736206,0.24880981,-0.122308254,-0.21519089,0.47878408
1570715549,-1.7627258,8.661621,1.8118134,0.15710449,0.07736206,0.24880981,-0.10962355,-0.22679901,0.35987937
1570715550,-1.7675171,8.589798,1.4604645,0.06442261,0.03794861,0.19342041,-0.17964876,-0.3195839,0.073524475
1570715550,-1.585556,9.169189,1.0474701,-0.17100525,-0.37324524,0.0048675537,-0.047376156,0.27056217,-0.4231509
1570715550,-1.585556,9.169189,1.0474701,-0.17100525,-0.37324524,0.0048675537,-0.047376156,0.27056217,-0.4231509
1570715550,-1.1875305,9.267349,1.0301056,-0.18804932,-0.5351715,-0.05265808,0.2826383,0.30526733,-0.53260255
1570715550,-1.2563629,8.933365,1.2838898,-0.0697937,-0.21665955,-0.05265808,0.28495097,-0.019544601,-0.44113803
1570715550,-1.2563629,8.933365,1.2838898,-0.0697937,-0.21665955,-0.05265808,0.28495097,-0.019544601,-0.44113803
1570715550,-1.5508423,9.048294,1.10672,0.21888733,-0.13142395,-0.07928467,-0.039821506,0.16016293,-0.5450311
1570715550,-1.5508423,9.048294,1.10672,0.21888733,-0.13142395,-0.07928467,-0.039821506,0.16016293,-0.5450311
1570715550,-1.3395538,9.035721,1.2000885,0.24765015,-0.21452332,-0.12295532,0.1794411,0.17572784,-0.35460508
1570715550,-1.2844849,9.264969,1.406601,0.37121582,-0.64915466,-0.026016235,0.28807557,0.3788166,0.017950892
1570715550,-1.2862854,9.206909,1.4616547,0.3701477,-0.67152405,-0.0079193115,0.28807557,0.3788166,0.017950892
1570715550,-0.84814453,8.786713,1.869873,0.3371277,-0.52770996,0.09222412,0.80508435,0.0160532,0.62622666
1570715550,-0.84814453,8.786713,1.869873,0.3371277,-0.52770996,0.09222412,0.80508435,0.0160532,0.62622666
1570715550,-1.3425446,8.364746,1.7567444,0.18373108,-0.26991272,0.12631226,0.028272629,-0.61683655,0.4498272
1570715550,-2.6988678,8.16124,1.8704681,-0.27220154,0.5918884,0.040023804,-0.8745872,-0.8466883,0.66321254
1570715550,-3.5488129,8.862732,1.304245,-0.46714783,0.9104004,0.13482666,-2.217656,-0.14150333,0.04742396
1570715550,-2.4857788,9.006393,1.5011597,-0.27645874,0.4182434,-0.119766235,-1.3363491,0.09973526,-0.056099176
1570715550,-1.6502075,8.747223,1.2102661,0.47454834,-0.97299194,-0.4659729,-0.19181442,-0.13851452,-0.17771757
1570715550,-2.261917,8.896851,1.3329773,0.8410034,-1.6994934,-0.52563477,-0.43711984,-0.027716637,0.06575143
1570715550,-3.032257,8.678375,1.5484467,0.5150299,-1.294693,-0.28274536,-1.2523499,-0.17695808,0.23547971
1570715550,-2.952652,8.613739,1.2108612,-0.10494995,1.2012177,0.08476257,-1.287348,-0.51194286,0.44715035
1570715550,-2.952652,8.613739,1.2108612,-0.10494995,1.2012177,0.08476257,-1.287348,-0.51194286,0.44715035
1570715550,-2.6414032,8.963287,1.0696106,-0.21148682,0.8858948,0.005935669,-0.9124383,0.056035995,-0.15448332
1570715550,-2.1709442,8.746017,0.9864044,0.081466675,0.21052551,-0.12083435,-0.41375387,-0.09211445,-0.017159224
1570715550,-1.7758942,8.435364,0.920578,0.09851074,-0.02810669,-0.1602478,0.045550942,-0.48829937,-0.19901836
1570715550,-1.9536743,8.844772,1.0325012,-0.103881836,0.22117615,-0.044128418,-0.09221804,-0.0054597855,-0.098044634
1570715550,-1.9440918,8.779541,1.0462646,-0.10708618,0.2872162,-0.016433716,-0.07378876,-0.0843668,-0.027064443
1570715550,-2.4474792,8.839996,0.660202,-0.0697937,0.33088684,-0.0015258789,-0.4774512,-0.023627281,-0.51660097
1570715550,-2.4474792,8.839996,0.660202,-0.0697937,0.33088684,-0.0015258789,-0.4774512,-0.023627281,-0.51660097
1570715550,-2.0835571,8.73584,0.78590393,0.08892822,0.21903992,-0.06542969,-0.16172445,-0.17276382,-0.27567434
1570715550,-1.7741089,8.699936,0.81103516,0.1304779,0.2179718,-0.06863403,0.12719643,-0.20908737,-0.1813637
1570715550,-1.8800507,9.078217,0.786499,0.11981201,0.25845337,-0.0622406,0.13854659,0.15462303,-0.14286405
1570715550,-2.051239,8.811264,0.6326752,-0.050628662,0.5173187,-4.5776367E-4,0.003399849,-0.03169155,-0.23635489
1570715550,-2.1290436,8.787918,0.4925995,-0.08578491,0.57377625,0.011260986,-0.067160845,-0.060913086,-0.38488698
1570715551,-1.9865875,9.272736,0.5746155,0.02394104,0.4129181,-0.054779053,0.12734056,0.30734444,-0.32331026
1570715551,-2.3199768,9.231445,0.2855072,0.11343384,0.2328949,-0.14639282,-0.21479607,0.3568287,-0.46309888
1570715551,-2.2679138,8.960297,0.13227844,0.13259888,0.12423706,-0.19007874,-0.17960072,0.13893795,-0.6643367
1570715551,-2.012329,8.595779,0.6476288,0.19544983,-0.32957458,-0.2944641,0.39444852,-0.23005295,-0.056895077
1570715551,-2.012329,8.595779,0.6476288,0.19544983,-0.32957458,-0.2944641,0.39444852,-0.23005295,-0.056895077
1570715551,-2.012329,8.595779,0.6476288,0.19544983,-0.32957458,-0.2944641,0.39444852,-0.23005295,-0.056895077
1570715551,-2.091339,8.650253,0.6248932,0.1816101,-0.30400085,-0.28167725,0.38760185,-0.22775269,0.015614331
1570715551,-3.210617,8.388092,0.64523315,0.021820068,0.5205078,-0.1133728,-0.59089303,-0.35159683,0.4677089
1570715551,-3.3189697,8.3797,0.096969604,-0.05595398,0.5567322,-0.11230469,-0.7677655,-0.40106106,-0.11951655
1570715551,-2.521698,7.894287,-0.33398438,-0.092163086,-0.120773315,-0.23693848,-0.17218065,-0.75730324,-1.0265539
1570715551,-1.91716,7.3154907,0.47584534,0.24765015,-0.5095978,-0.34666443,0.62287426,-1.2975826,-0.22708702
1570715551,-1.8609009,7.2837677,0.74220276,0.33926392,-0.4882965,-0.24758911,0.879724,-1.4931183,0.29316902
1570715551,-2.2876587,8.185181,0.46087646,-0.02293396,-0.32530212,-0.016433716,0.5071316,-0.6136608,0.15612075
1570715551,-2.1601715,8.362946,0.042495728,-0.3638153,-0.20387268,0.2637329,0.5670674,-0.3618889,-0.70830864
1570715551,-2.4654236,8.641876,0.6374512,-0.18804932,6.5612793E-4,0.35534668,0.24954748,-0.10289574,0.0134756565
1570715551,-2.9077606,8.799881,0.4297638,-0.17738342,0.008117676,0.38729858,-0.36258125,-0.013995171,-0.42442405
1570715551,-2.9335022,8.83461,0.517746,-0.18377686,-0.0014648438,0.3894348,-0.4161532,0.03627968,-0.32145518
1570715551,-3.0741577,9.450516,0.47225952,-0.30522156,0.046463013,0.2871704,-0.6888826,0.65869427,-0.21669549
1570715551,-3.47937,9.201523,-0.3609314,-0.2700653,-0.62890625,0.046417236,-1.2948146,0.4438553,-1.4036741
1570715551,-3.47937,9.201523,-0.3609314,-0.2700653,-0.62890625,0.046417236,-1.2948146,0.4438553,-1.4036741
1570715551,-2.1200714,8.587402,1.225235,0.23806763,-0.6118622,-0.18048096,0.14474225,-0.2675495,0.01667869
1570715551,-2.1200714,8.587402,1.225235,0.23806763,-0.6118622,-0.18048096,0.14474225,-0.2675495,0.01667869
1570715551,-1.9578552,8.593994,1.482605,0.12513733,-0.21238708,-0.013244629,0.3418591,-0.18236065,0.4657359
1570715551,-2.513916,8.808868,0.99479675,-0.30947876,0.4129181,0.25308228,-0.19687176,-0.01687336,0.18205309
1570715551,-2.513916,8.808868,0.99479675,-0.30947876,0.4129181,0.25308228,-0.19687176,-0.01687336,0.18205309
1570715551,-3.1004944,8.724472,0.26815796,-0.45755005,0.3106537,0.24136353,-0.8378463,-0.06842327,-0.6984657
1570715551,-2.7108307,8.704712,1.398819,0.13259888,-0.29016113,-0.10379028,-0.6866081,-0.07280731,0.17543888
1570715551,-2.7108307,8.704712,1.398819,0.13259888,-0.29016113,-0.10379028,-0.6866081,-0.07280731,0.17543888
1570715551,-1.5658112,8.781326,1.7687225,0.034591675,0.14660645,-0.0068511963,0.5870502,-0.019203186,0.5820223
1570715551,-1.5251007,8.774155,1.7292175,0.020751953,0.16044617,0.0048675537,0.6175015,-0.025024414,0.5351641
1570715551,-1.5424652,8.652649,1.3072357,-0.17633057,0.29360962,0.1412201,0.65815544,-0.0699234,0.13532054
1570715551,-1.8986053,8.643066,1.5340881,-0.2924347,0.2882843,0.21899414,0.33164525,-0.19602108,0.13761902
1570715552,-2.5869293,8.624512,1.407196,-0.36061096,0.35964966,0.17211914,-0.49086452,-0.047745705,0.04938352
1570715552,-2.5869293,8.624512,1.407196,-0.36061096,0.35964966,0.17211914,-0.49086452,-0.047745705,0.04938352
1570715552,-2.1954803,8.83461,1.7106628,-0.13903809,0.13168335,-0.0015258789,-0.2017076,-0.0031175613,0.1384579
1570715552,-2.1015167,8.757996,1.6292572,-0.10494995,0.12849426,-0.018569946,-0.073033094,0.05450058,0.13892353
1570715552,-2.1015167,8.757996,1.6292572,-0.10494995,0.12849426,-0.018569946,-0.073033094,0.05450058,0.13892353
1570715552,-1.9686279,8.698135,1.7238312,-0.123062134,0.17216492,0.014465332,0.058473825,-0.045843124,0.11278963
1570715552,-1.9195557,8.783722,1.8638916,-0.08258057,0.24887085,0.014465332,0.18291688,0.041265488,0.29278672
1570715552,-1.9554596,8.869919,1.60112,-0.12838745,0.24034119,-0.004714966,0.11896181,0.09731197,0.018437386
1570715552,-1.751358,8.980057,1.8351593,-0.10282898,0.11784363,-0.011108398,0.33423424,0.16991901,0.28704822
1570715552,-1.751358,8.980057,1.8351593,-0.10282898,0.11784363,-0.011108398,0.33423424,0.16991901,0.28704822
1570715552,-1.7333984,9.144058,1.4562683,-0.09855652,-3.9672852E-4,0.017654419,0.36754966,0.40625668,-0.21062148
1570715552,-2.1176758,8.718491,1.5987244,-0.111343384,0.21585083,0.1103363,0.020578623,0.020584106,-0.18893743
1570715552,-2.1176758,8.718491,1.5987244,-0.111343384,0.21585083,0.1103363,0.020578623,0.020584106,-0.18893743
1570715552,-2.2355804,8.664612,1.7369995,-0.0847168,0.25205994,0.07304382,-0.15608954,-0.0050258636,0.03581488
1570715552,-2.0620117,8.617325,1.7453766,0.0068969727,0.057113647,-0.0345459,-0.059764147,-0.13893795,-0.03261602
1570715552,-2.019516,8.617935,1.8136139,0.042053223,-0.05152893,-0.06756592,0.018258095,-0.10970783,0.05776763
1570715552,-1.8429413,8.57843,1.9985657,0.013290405,-0.12716675,-0.051589966,0.21185756,-0.14268017,0.23103595
1570715552,-1.9285278,8.726273,2.0919342,-0.12625122,-0.011062622,0.051742554,0.16153789,-0.005429268,0.2736771
1570715552,-1.9285278,8.726273,2.0919342,-0.12625122,-0.011062622,0.051742554,0.16153789,-0.005429268,0.2736771
1570715552,-2.2583313,8.626312,2.059021,-0.09643555,0.15405273,0.09968567,-0.1899581,-0.074243546,0.2830788
1570715552,-2.2499542,8.652054,2.1152802,-0.092163086,0.15939331,0.09968567,-0.1899581,-0.074243546,0.2830788
1570715552,-2.2709045,8.680771,2.1392212,-0.06767273,0.18495178,0.077316284,-0.21388245,-0.02955532,0.2805034
1570715552,-2.1296387,8.668213,2.0254974,-0.05595398,0.14021301,0.048553467,-0.13979912,0.03294182,0.12372196
1570715552,-2.0937347,8.607162,2.1140747,-0.14329529,0.109313965,0.029373169,-0.07777476,-0.114191055,0.24742877
1570715552,-2.0937347,8.607162,2.1140747,-0.14329529,0.109313965,0.029373169,-0.07777476,-0.114191055,0.24742877
1570715552,-2.146408,8.901047,1.7387848,-0.21253967,-0.12716675,-0.010040283,-0.0910151,0.15590382,-0.29947186
1570715552,-2.1457977,8.881897,1.7423859,-0.20935059,-0.13995361,-0.012176514,-0.0910151,0.15590382,-0.29947186
1570715552,-1.987793,8.810669,2.1128845,-0.101760864,-0.034484863,-0.026016235,-0.012076855,0.113059044,-0.009622335
1570715552,-1.987793,8.810669,2.1128845,-0.101760864,-0.034484863,-0.026016235,-0.012076855,0.113059044,-0.009622335
1570715552,-1.948288,8.742432,2.1733398,0.0026397705,0.09866333,-0.024963379,0.09429574,0.09925175,0.03230977
1570715552,-1.9979553,8.644867,2.4043732,-0.013336182,0.19667053,0.0155181885,0.05246377,0.004262924,0.23527646
1570715552,-1.9806061,8.628098,2.3816376,-0.02293396,0.19880676,0.0155181885,0.042755842,-0.018605232,0.2930212
1570715552,-2.1332397,8.63768,2.2439728,-0.1315918,0.13275146,-0.004714966,-0.031876326,-0.03909588,0.14483023
1570715552,-2.1332397,8.63768,2.2439728,-0.1315918,0.13275146,-0.004714966,-0.031876326,-0.03909588,0.14483023
1570715553,-2.221222,8.713104,2.2792816,-0.0974884,0.021972656,-0.023895264,-0.11107993,0.049596786,0.13104963
1570715553,-2.2553406,8.786713,2.3145905,-0.07192993,-0.031295776,-0.039871216,-0.20430684,0.11644173,0.13017249
1570715553,-2.0440521,8.649048,2.276291,-0.008010864,0.06138611,-0.022827148,0.02535677,0.017380714,0.13477612
1570715553,-2.0679932,8.622116,2.3546906,0.0068969727,0.07949829,-0.018569946,0.039893627,-0.01665783,0.13526726
1570715553,-1.9536743,8.629303,2.498352,0.022872925,0.14872742,-0.0079193115,0.1596601,-0.0677681,0.3056779
1570715553,-1.9357147,8.608353,2.473816,0.018615723,0.1434021,-0.0068511963,0.1709199,-0.039751053,0.2913165
1570715553,-2.051239,8.560471,2.2589264,-0.04849243,0.009185791,0.007003784,0.1012733,-0.10316181,0.06493449
1570715553,-2.1392212,8.692154,2.3211823,-0.05595398,-0.06964111,-0.0015258789,-0.00949502,0.0031385422,0.07102752
1570715553,-2.2313995,8.680771,2.2439728,0.0015716553,-0.04194641,-0.011108398,-0.099090576,0.041347504,0.046084166
1570715553,-2.2313995,8.680771,2.2439728,0.0015716553,-0.04194641,-0.011108398,-0.099090576,0.041347504,0.046084166
1570715553,-2.1924896,8.672989,2.418747,0.030334473,-0.029159546,-0.012176514,-0.08094239,0.0184803,0.17281246
1570715553,-2.2230225,8.693939,2.4043732,-0.0090789795,0.04006958,6.1035156E-4,-0.06570196,0.00356102,0.10656667
1570715553,-2.2230225,8.693939,2.4043732,-0.0090789795,0.04006958,6.1035156E-4,-0.06570196,0.00356102,0.10656667
1570715553,-2.2822723,8.61853,2.3654785,0.029266357,-0.014251709,-0.0015258789,-0.12830973,-0.023804665,0.13637638
1570715553,-2.3128052,8.6514435,2.3121948,0.021820068,-0.027038574,0.011260986,-0.1797049,-0.038493156,0.0417161
1570715553,-2.3217773,8.61554,2.3187866,0.0068969727,0.010253906,0.018722534,-0.16417885,-0.062274933,0.023786783
1570715553,-2.245758,8.611938,2.3463135,0.06655884,0.046463013,-0.0015258789,-0.03867793,-0.0067186356,0.08079958
1570715553,-2.245758,8.611938,2.3463135,0.06655884,0.046463013,-0.0015258789,-0.03867793,-0.0067186356,0.08079958
1570715553,-2.0859528,8.589798,2.1416168,-0.012268066,0.07522583,0.012329102,0.08152151,-0.045188904,-0.01830244
1570715553,-2.0859528,8.589798,2.1416168,-0.012268066,0.07522583,0.012329102,0.08152151,-0.045188904,-0.01830244
1570715553,-2.1517944,8.73764,2.0865479,0.02607727,-0.060058594,0.002746582,-0.0068924427,0.054668427,-0.07377291
1570715553,-2.1517944,8.73764,2.0865479,0.02607727,-0.060058594,0.002746582,-0.0068924427,0.054668427,-0.07377291
1570715553,-2.1290436,8.662216,2.0733795,0.004776001,0.029418945,0.008071899,0.031114817,0.054171562,-0.07572961
1570715553,-1.9967651,8.705917,2.149994,0.038864136,0.07949829,0.0048675537,0.13934565,-0.008192062,-0.043730736
1570715553,-1.9997559,8.684372,2.1601715,0.051635742,-0.07070923,0.002746582,0.1684146,0.0048770905,0.053832054
1570715553,-2.1296387,8.759781,2.0536194,-0.02079773,0.0059814453,0.03895569,0.025286674,0.08148384,-0.030570507
1570715553,-2.1296387,8.759781,2.0536194,-0.02079773,0.0059814453,0.03895569,0.025286674,0.08148384,-0.030570507
1570715553,-2.1655579,8.706512,2.0811615,-0.023986816,0.025161743,0.04109192,-0.027006388,0.06834316,-0.105357885
1570715553,-2.1811218,8.750214,2.1990814,0.04737854,0.047531128,0.014465332,-0.08222842,0.033649445,0.004683733
1570715553,-2.1571808,8.701721,2.151184,0.04737854,0.050735474,0.014465332,-0.06948185,0.041612625,0.025015831
1570715553,-2.0859528,8.621521,2.2164307,0.021820068,0.06350708,0.016586304,0.00822854,-0.10060787,0.13493562
1570715553,-2.0254974,8.626312,2.143402,0.01222229,0.050735474,0.013397217,0.07490635,-0.0821867,0.022330523
1570715553,-2.0105286,8.644272,2.051834,0.010101318,-0.056869507,-0.004714966,0.07194471,-0.051719666,-0.0541327
1570715553,-2.1302338,8.768158,1.9692383,0.0058288574,-0.09095764,-0.0025787354,-0.007946014,0.09521961,-0.09802008
1570715554,-2.072174,8.666412,2.0015564,-0.039978027,0.04966736,-0.0036468506,-0.0050132275,-0.04406166,-0.067157984
1570715554,-1.9584503,8.654434,2.0757751,-0.018661499,0.064575195,-0.024963379,0.12452936,-0.11359215,-0.09368491
1570715554,-2.063202,8.874115,1.8997955,0.053771973,-0.085617065,-0.03666687,0.056774378,0.17889214,-0.1702888
1570715554,-2.0763702,8.851364,1.909378,0.042053223,-0.10479736,-0.02708435,0.046331406,0.17602444,-0.19232559
1570715554,-2.0961304,8.668213,2.1164703,-0.0016174316,0.101867676,0.0357666,0.056674242,-0.03893757,0.04791355
1570715554,-2.0961304,8.668213,2.1164703,-0.0016174316,0.101867676,0.0357666,0.056674242,-0.03893757,0.04791355
1570715554,-2.1930847,8.622711,2.151184,0.036727905,0.1583252,0.0155181885,-0.06686664,-0.08544636,0.13068652
1570715554,-2.138626,8.610748,2.1547852,0.036727905,0.1583252,0.016586304,-0.06686664,-0.08544636,0.13068652
1570715554,-2.072174,8.649658,1.9578552,0.009033203,0.10505676,-0.012176514,0.03711319,-0.10215092,-0.059352398
1570715554,-2.0057373,8.654434,1.972229,-0.0058898926,0.012374878,-0.028152466,0.10981941,-0.04922867,-0.0821712
1570715554,-1.9686279,8.720276,1.9650421,0.011154175,-0.111190796,-0.037734985,0.17840505,0.059410095,-0.08188033
1570715554,-1.9177551,8.768768,1.9303284,0.01222229,-0.11651611,-0.017501831,0.20361137,0.072384834,-0.14134192
1570715554,-1.9991608,8.69873,1.9979553,-0.01121521,0.09440613,0.018722534,0.10480595,-0.024001122,-0.02238655
1570715554,-2.067398,8.643066,2.0446472,-0.008010864,0.14021301,0.016586304,0.021046877,-0.10435581,-9.6845627E-4
1570715554,-2.079361,8.668808,2.0650024,0.0026397705,0.12423706,0.0037994385,0.01636672,-0.06573105,-0.0323925
1570715554,-2.0655975,8.77356,1.9740143,0.03779602,-0.019577026,-0.033477783,0.0029268265,0.03564453,-0.081656694
1570715554,-2.072174,8.734055,2.000351,0.010101318,-0.11225891,-0.03666687,0.037913322,0.0349617,-0.046478987
1570715554,-2.1284485,8.710098,2.0470428,-0.0016174316,-0.07070923,-0.011108398,-0.022364616,0.013355255,0.107287884
1570715554,-2.1320343,8.717285,2.0380707,-0.0058898926,-0.02810669,-4.5776367E-4,2.1719933E-4,0.027558327,0.06776452
1570715554,-2.1475983,8.716095,2.1039124,-0.0048217773,0.050735474,0.01979065,-0.096530914,0.016676903,0.03731656
1570715554,-2.166748,8.675995,2.047638,-0.0026855469,0.1199646,0.020843506,-0.054521322,-0.031219482,0.055590153
1570715554,-2.166748,8.675995,2.047638,-0.0026855469,0.1199646,0.020843506,-0.054521322,-0.031219482,0.055590153
1570715554,-2.1182709,8.740631,2.063797,-0.0058898926,0.09440613,0.008071899,0.013772726,0.04766178,0.041156054
1570715554,-1.9991608,8.711899,2.0548248,0.0068969727,-0.013183594,-4.5776367E-4,0.106281996,0.011034012,0.017937183
1570715554,-1.9901733,8.6831665,2.1134796,-5.493164E-4,0.054992676,0.028305054,0.11816096,-0.0041160583,0.087065935
1570715554,-1.9865875,8.689163,2.07518,-0.0026855469,0.064575195,0.030441284,0.093654394,-0.032564163,0.0898633
1570715554,-2.0266876,8.677185,2.0308838,-0.023986816,0.07736206,0.020843506,0.037165165,-0.042411804,-0.08025432
1570715554,-2.0033417,8.707718,1.9470825,0.0037078857,-0.0036010742,0.005935669,0.11174369,-0.05901718,-0.028191328
1570715554,-2.0075378,8.740036,1.8968048,0.004776001,-0.036621094,-0.0068511963,0.0822916,0.020439148,-0.09504056
1570715554,-1.9117737,8.767563,1.9686279,0.01222229,-0.12397766,-0.010040283,0.13525367,0.048565865,-0.050022364
1570715554,-1.8824463,8.821442,2.0733795,0.03565979,-0.10586548,0.002746582,0.18008828,0.026129723,0.016135931
1570715554,-2.0428467,8.717285,2.1320343,0.025009155,0.058181763,0.046417236,0.014677763,0.025372505,0.07292795
1570715554,-2.1326294,8.6514435,2.0386658,0.01222229,0.11463928,0.044281006,-0.07715082,-0.024261475,0.07380295
1570715555,-2.1649628,8.5993805,2.0021515,0.018615723,0.07949829,0.034698486,-0.116164446,-0.10704422,0.056613684
1570715555,-2.119461,8.702927,2.0967255,0.029266357,-0.10267639,-0.012176514,-0.13696003,-0.0075950623,0.055613756
1570715555,-2.0757751,8.735245,1.9907837,-0.0026855469,-0.09414673,-0.011108398,0.0045137405,0.0064115524,-0.02863717
1570715555,-2.0584106,8.729858,1.9955597,-0.0058898926,-0.087753296,-0.010040283,-0.010512829,-0.012784004,-0.022684097
1570715555,-2.023697,8.807663,2.0290833,0.043121338,-0.009994507,0.002746582,0.06699419,0.02859974,-0.028337002
1570715555,-1.9997559,8.696945,1.9590607,0.044189453,0.0017242432,0.008071899,0.013112068,-0.002653122,-0.013513446
1570715555,-1.932724,8.658035,1.8249817,-0.01121521,-0.0046691895,-0.014297485,0.09053731,-0.06528473,-0.15705192
1570715555,-1.932724,8.658035,1.8249817,-0.01121521,-0.0046691895,-0.014297485,0.09053731,-0.06528473,-0.15705192
1570715555,-1.9602509,8.754395,1.8752594,0.0037078857,-0.1538086,-0.029220581,0.09329677,0.113648415,-0.13151538
1570715555,-1.9602509,8.754395,1.8752594,0.0037078857,-0.1538086,-0.029220581,0.09329677,0.113648415,-0.13151538
1570715555,-2.047638,8.668213,2.0685883,0.03565979,0.10292053,0.024047852,-0.0010991096,-0.04021454,0.044274926
1570715555,-2.059616,8.724472,2.0177155,0.032470703,0.11251831,0.026184082,-0.028723955,-0.060940742,0.10939407
1570715555,-2.2086487,8.725067,2.0697937,0.01222229,0.17004395,0.0315094,-0.13932824,0.02213192,0.08239913
1570715555,-2.260727,8.753799,1.9889832,-0.0058898926,0.11251831,0.025115967,-0.19606471,-0.013742447,0.07699728
1570715555,-2.1751251,8.763382,1.8620911,-0.02079773,-0.04727173,-0.0036468506,-0.14959407,0.02683258,-0.09544742
1570715555,-2.1098938,8.635284,1.9997559,-0.008010864,-0.07817078,-0.0079193115,-0.07333493,-0.032808304,-0.020246863
1570715555,-2.0069427,8.627502,2.0847473,0.019683838,0.008117676,-0.0068511963,0.05182147,-0.112579346,0.06695831
1570715555,-2.003952,8.610748,2.024292,0.031402588,0.076293945,-0.008972168,0.051986217,-0.11773205,0.07403028
1570715555,-2.012329,8.775345,1.9548645,0.01222229,0.09120178,-0.012176514,0.0455966,0.08676243,0.030235648
1570715555,-2.032074,8.789719,1.8794556,-0.02293396,-0.038757324,-0.014297485,0.0070068836,0.0229702,-0.084599495
1570715555,-2.091339,8.784332,1.932724,0.01222229,-0.109054565,-0.011108398,-0.02656293,0.04316616,4.2247772E-4
1570715555,-2.091339,8.784332,1.932724,0.01222229,-0.109054565,-0.011108398,-0.02656293,0.04316616,4.2247772E-4
1570715555,-2.1475983,8.641876,2.1021118,0.030334473,0.041137695,0.008071899,-0.07613468,-0.08069706,0.11533451
1570715555,-2.1475983,8.641876,2.1021118,0.030334473,0.041137695,0.008071899,-0.07613468,-0.08069706,0.11533451
1570715555,-2.150589,8.668213,1.9901733,0.019683838,0.054992676,0.007003784,-0.11131024,-0.082523346,0.0031565428
1570715555,-2.150589,8.668213,1.9901733,0.019683838,0.054992676,0.007003784,-0.11131024,-0.082523346,0.0031565428
1570715555,-2.087738,8.765778,1.9267273,-5.493164E-4,-0.052597046,-0.0015258789,-0.022393465,0.033881187,-0.021903992
1570715555,-2.059616,8.692154,1.9674377,-0.0058898926,-0.07070923,0.0037994385,0.022906303,-0.044094086,0.028602123
1570715555,-2.0410614,8.761581,1.9195557,-0.006942749,0.01876831,0.017654419,0.040169954,0.0321064,0.0040980577
1570715555,-2.0925293,8.713104,1.9051819,0.0026397705,0.057113647,0.028305054,-0.022957802,-0.010294914,-0.051677465
1570715555,-2.0925293,8.713104,1.9051819,0.0026397705,0.057113647,0.028305054,-0.022957802,-0.010294914,-0.051677465
1570715555,-2.1314392,8.675995,1.99617,0.036727905,0.045410156,0.022979736,-0.08676696,0.0129852295,0.07655871
1570715555,-2.1314392,8.675995,1.99617,0.036727905,0.045410156,0.022979736,-0.08676696,0.0129852295,0.07655871
1570715556,-2.0207062,8.723877,1.8728638,-0.01121521,-0.006790161,0.028305054,0.03858924,-0.025864601,-0.038077593
1570715556,-1.8411407,8.727463,1.8501129,0.0015716553,-0.057922363,0.025115967,0.17345047,0.03163433,-0.043563485
1570715556,-1.7842712,8.736435,1.8591003,0.010101318,-0.07817078,0.024047852,0.22009254,0.050723076,-0.06081128
1570715556,-1.9458923,8.79689,1.9638367,0.0058288574,-0.038757324,0.060272217,0.048488736,0.06329727,0.042426348
1570715556,-1.9458923,8.79689,1.9638367,0.0058288574,-0.038757324,0.060272217,0.048488736,0.06329727,0.042426348
1570715556,-2.0350647,8.684967,1.9943695,0.009033203,0.020904541,0.06985474,-0.0694406,-0.032465935,0.04702878
1570715556,-2.0380707,8.679581,1.99617,0.018615723,0.008117676,0.06452942,-0.09096217,-0.06700802,0.10776079
1570715556,-2.05542,8.668808,1.9979553,0.03565979,-0.045150757,0.04748535,-0.09803307,-0.07551479,0.12484324
1570715556,-2.079956,8.659821,1.9889832,-0.006942749,-0.083496094,0.042160034,-0.18253565,-0.06886196,0.06518781
1570715556,-2.079956,8.659821,1.9889832,-0.006942749,-0.083496094,0.042160034,-0.18253565,-0.06886196,0.06518781
1570715556,-2.0817566,8.753204,1.9674377,-0.03251648,-0.018508911,0.04748535,-0.16563499,-0.012888908,0.013845444
1570715556,-2.070984,8.759186,2.0284882,-0.029312134,-0.01638794,0.04534912,-0.16563499,-0.012888908,0.013845444
1570715556,-1.9381104,8.772354,1.8788452,0.017547607,-0.07070923,0.0155181885,-0.05496347,-0.0061531067,-0.12934041
1570715556,-1.9177551,8.772354,1.8788452,0.017547607,-0.07070923,0.0155181885,-0.05496347,-0.0061531067,-0.12934041
1570715556,-1.869278,8.689758,1.9548645,-0.016540527,-0.05899048,0.0315094,-0.017186284,-0.052549362,0.04031253
1570715556,-1.8591003,8.704117,1.9536743,-0.019729614,-0.052597046,0.032562256,-0.017186284,-0.052549362,0.04031253
1570715556,-1.7525482,8.823227,1.7405853,-0.02079773,-0.085617065,0.002746582,0.088032246,0.0872097,-0.2130909
1570715556,-1.7525482,8.823227,1.7405853,-0.02079773,-0.085617065,0.002746582,0.088032246,0.0872097,-0.2130909
1570715556,-1.6526031,8.841782,1.953064,0.027145386,-0.23370361,-0.020690918,0.16763663,0.10797596,-0.05622208
1570715556,-1.6017151,8.850769,1.9111786,0.030334473,-0.23049927,-0.015365601,0.17959106,0.09686375,-0.0325737
1570715556,-1.2976532,9.09079,2.07518,0.12088013,-0.26672363,0.020843506,0.4240321,0.264884,0.07937634
1570715556,-1.2976532,9.09079,2.07518,0.12088013,-0.26672363,0.020843506,0.45020795,0.264884,0.07937634
1570715556,-1.8058319,8.874115,2.2810822,0.07827759,-0.22303772,0.061325073,-0.056325197,0.117679596,0.23606586
1570715556,-2.1595764,8.677185,2.2894592,-0.02079773,0.25419617,0.10394287,-0.45524037,-0.12921906,0.40571988
1570715556,-2.1595764,8.677185,2.2894592,-0.02079773,0.25419617,0.10394287,-0.45524037,-0.12921906,0.40571988
1570715556,-1.9830017,8.810059,2.1547852,0.054840088,0.13595581,0.05493164,-0.29707015,-0.054821014,0.22410083
1570715556,-1.9177551,8.590393,2.1056976,0.015426636,0.059249878,0.0016784668,-0.25304914,-0.21421814,0.18914497
1570715556,-1.5328827,8.850174,2.0811615,0.05696106,-0.007858276,-0.054779053,0.0831362,-0.004374504,0.21673346
1570715556,-1.546051,8.850174,2.0811615,0.06123352,-0.015319824,-0.053710938,0.0831362,-0.004374504,0.21673346
1570715556,-1.486206,8.942337,1.9895782,0.08679199,-0.03982544,-0.04838562,0.18468964,0.1004858,0.098863125
1570715556,-1.4873962,8.802277,1.9285278,0.06762695,-0.024902344,-0.0345459,0.2298727,0.017681122,0.03498447
1570715556,-1.8944092,8.749603,2.031479,0.025009155,0.20413208,0.012329102,-0.17053676,-0.06336689,0.20722282
1570715556,-1.8812408,8.747818,2.0458527,0.016494751,0.22117615,0.0155181885,-0.17053676,-0.06336689,0.20722282
1570715557,-1.6914978,8.759781,1.901001,0.062286377,0.10612488,-0.053710938,0.026565313,-0.0263443,0.027577877
1570715557,-1.6992798,8.771164,1.8375549,0.06549072,0.07096863,-0.070755005,0.057383895,-0.029668808,0.03896725
1570715557,-1.4538727,8.831604,1.8279724,0.093185425,-0.060058594,-0.10697937,0.3179084,0.025951385,0.026161313
1570715557,-1.4514923,8.830414,1.8052216,0.09638977,-0.06964111,-0.1048584,0.3179084,0.025951385,0.026161313
1570715557,-1.319809,8.981842,1.6927032,0.12620544,-0.16339111,-0.08886719,0.45458484,0.1298027,-0.045413017
1570715557,-1.5688019,8.969284,1.6460114,0.04737854,-0.06324768,-0.016433716,0.27840137,0.11412525,-0.0787133
1570715557,-1.6298523,8.950729,1.7058716,0.030334473,0.0059814453,-0.0079193115,0.21377873,0.12057018,-0.011779666
1570715557,-1.9620514,8.905838,1.6885071,0.0037078857,0.11891174,-0.012176514,-0.07585013,0.06676483,0.012837887
1570715557,-2.198471,8.580826,1.7405853,-0.03251648,0.20306396,-0.010040283,-0.36894095,-0.2605915,0.017204404
1570715557,-2.257141,8.75679,1.6603851,0.018615723,0.2616577,-0.0388031,-0.39614165,-0.16058731,0.033504486
1570715557,-2.581543,9.263168,0.802063,-0.038909912,0.15405273,-0.13894653,-0.57185614,0.439888,-0.64661646
1570715557,-1.9446869,8.187576,2.3702545,0.3296814,-0.13995361,-0.17835999,0.08604002,-0.54429436,1.0106182
1570715557,-1.9446869,8.187576,2.3702545,0.3296814,-0.13995361,-0.17835999,0.08604002,-0.54429436,1.0106182
1570715557,-1.4736328,8.91362,1.296463,0.21569824,-0.24754333,-0.21884155,0.48931146,0.10997105,-0.29717946
1570715557,-1.4143677,8.926788,1.2970581,0.20503235,-0.256073,-0.21456909,0.56146765,0.1172781,-0.2488358
1570715557,-1.616684,8.711899,1.6412201,-0.028259277,-0.08882141,0.049606323,0.46078825,-0.12331104,-0.02834344
1570715557,-1.616684,8.711899,1.6412201,-0.028259277,-0.08882141,0.049606323,0.46078825,-0.12331104,-0.02834344
1570715557,-1.9889832,8.747818,1.1294708,-0.15289307,0.44487,0.1614685,0.13140082,-0.026423454,-0.3610114
1570715557,-1.9889832,8.747818,1.1294708,-0.15289307,0.44487,0.1614685,0.13140082,-0.026423454,-0.3610114
1570715557,-2.6270447,8.710709,1.2910767,-0.11987305,0.23928833,0.09222412,-0.61348903,-0.067964554,-0.26999152
1570715557,-2.6258392,8.738235,1.1833344,-0.11880493,0.22969055,0.08476257,-0.61348903,-0.067964554,-0.26999152
1570715557,-2.019516,8.77356,1.3856506,0.08039856,-0.24754333,-0.0856781,-0.058074474,-0.0065574646,-0.23167944
1570715557,-2.019516,8.77356,1.3856506,0.08039856,-0.24754333,-0.0856781,-0.058074474,-0.0065574646,-0.23167944
1570715557,-1.7310028,8.879501,1.6603851,0.22102356,-0.29760742,-0.10697937,0.25587988,0.042268753,0.09404564
1570715557,-1.7310028,8.879501,1.6603851,0.22102356,-0.29760742,-0.10697937,0.25587988,0.042268753,0.09404564
1570715557,-1.9871826,8.632889,1.5801697,-0.0058898926,0.24247742,0.077316284,0.045633316,-0.196661,0.15093613
1570715557,-1.9871826,8.632889,1.5801697,-0.0058898926,0.24247742,0.077316284,0.045633316,-0.196661,0.15093613
1570715557,-2.1493988,8.799286,1.2671356,-0.18591309,0.13700867,0.030441284,-0.16310215,-0.07542515,-0.22509432
1570715557,-2.1493988,8.799286,1.2671356,-0.18591309,0.13700867,0.030441284,-0.16310215,-0.07542515,-0.22509432
1570715557,-2.0272827,8.8567505,1.2360077,-0.09536743,-0.05899048,-0.02708435,-0.047591686,0.07382679,-0.28861296
1570715557,-2.0218964,8.799881,1.3443451,0.0026397705,-0.11225891,-0.024963379,-0.013747573,0.008564949,-0.2793759
1570715557,-2.1015167,8.75499,1.5442657,0.08786011,0.10398865,0.010192871,-0.12259507,-0.031867027,0.0035504103
1570715557,-2.1206665,8.79689,1.553833,0.091049194,0.113586426,0.010192871,-0.12259507,-0.031867027,0.0035504103
1570715558,-2.2182312,8.681976,1.5634155,0.055908203,0.08482361,0.012329102,-0.18105555,-0.16921711,0.09329128
1570715558,-2.2182312,8.681976,1.5634155,0.055908203,0.08482361,0.012329102,-0.18105555,-0.16921711,0.09329128
1570715558,-2.072174,8.7226715,1.5562286,-0.028259277,-0.09628296,-0.04093933,-0.039958477,-0.061260223,0.072396755
1570715558,-2.072174,8.7226715,1.5562286,-0.028259277,-0.09628296,-0.04093933,-0.039958477,-0.061260223,0.072396755
1570715558,-2.0464478,8.753204,1.5424652,-0.031448364,-0.007858276,-0.017501831,0.016672373,-0.009061813,-0.021299481
1570715558,-2.0464478,8.753204,1.5424652,-0.031448364,-0.007858276,-0.017501831,0.016672373,-0.009061813,-0.021299481
1570715558,-2.2541351,8.73584,1.6334381,-0.018661499,0.14767456,0.0155181885,-0.1560607,2.746582E-4,0.04033959
1570715558,-2.2541351,8.73584,1.6334381,-0.018661499,0.14767456,0.0155181885,-0.1560607,2.746582E-4,0.04033959
1570715558,-2.1092987,8.704117,1.4323273,-0.0058898926,-0.020645142,-0.026016235,-0.04111719,-0.053027153,-0.12868261
1570715558,-2.1164703,8.702332,1.4042053,-0.0026855469,-0.025970459,-0.029220581,-0.04111719,-0.053027153,-0.12868261
1570715558,-1.9231415,8.747818,1.4873962,0.018615723,-0.05152893,-0.031341553,0.19410825,0.02157116,-0.0020426512
1570715558,-1.9351196,8.831009,1.4838104,0.019683838,-0.048339844,-0.031341553,0.19410825,0.02157116,-0.0020426512
1570715558,-2.0290833,8.810059,1.5508423,-0.023986816,0.06777954,0.016586304,0.04319954,0.01391983,0.023768425
1570715558,-2.0290833,8.810059,1.5508423,-0.023986816,0.06777954,0.016586304,0.04319954,0.01391983,0.023768425
1570715558,-2.260727,8.747818,1.414978,-0.051696777,0.025161743,0.013397217,-0.19207644,0.024166107,-0.13474739
1570715558,-2.260727,8.747818,1.414978,-0.051696777,0.025161743,0.013397217,-0.19207644,0.024166107,-0.13474739
1570715558,-2.0506287,8.757996,1.4257507,0.0143585205,-0.09095764,-0.0068511963,0.021659851,-0.005121231,-0.056716084
1570715558,-2.0506287,8.757996,1.4257507,0.0143585205,-0.09095764,-0.0068511963,0.046306133,-0.017866135,-0.10557258
1570715558,-2.1122894,8.788513,1.5801697,0.040985107,0.024093628,0.024047852,-0.004965782,0.04273987,0.05136025
1570715558,-2.1122894,8.788513,1.5801697,0.040985107,0.024093628,0.024047852,-0.004965782,0.04273987,0.05136025
1570715558,-2.1889038,8.8094635,1.5388794,0.02394104,0.10505676,0.04534912,-0.05073762,0.03797531,0.012174368
1570715558,-2.2493591,8.754395,1.4868011,0.021820068,0.13595581,0.042160034,-0.15638518,-0.018580437,-0.007225275
1570715558,-2.1960754,8.620331,1.6316528,0.054840088,0.08375549,0.016586304,-0.12621355,-0.09512138,0.15749705
1570715558,-2.2074585,8.63768,1.6992798,0.046310425,0.017700195,-0.02708435,-0.10186648,-0.08243656,0.21041787
1570715558,-2.2074585,8.63768,1.6992798,0.046310425,0.017700195,-0.02708435,-0.10186648,-0.08243656,0.21041787
1570715558,-2.111084,8.662827,1.6759338,0.0068969727,0.03794861,-0.026016235,0.010973215,-0.10317135,0.22702229
1570715558,-1.9692383,8.757385,1.5682068,-0.05807495,0.07096863,-0.0079193115,0.1607964,-0.0018043518,0.117750764
1570715558,-1.9692383,8.757385,1.5682068,-0.05807495,0.07096863,-0.0079193115,0.1607964,-0.0018043518,0.117750764
1570715558,-2.048233,8.815445,1.525711,-0.080444336,0.08482361,0.01979065,0.09147382,0.09289646,-0.0067082644
1570715558,-2.0566254,8.736435,1.3551178,-0.111343384,0.13700867,0.025115967,-0.005956173,-0.020238876,-0.2101661
1570715558,-1.9955597,8.811859,1.3521271,-0.029312134,0.026229858,-0.013244629,0.09745312,0.04109955,-0.20184684
1570715558,-2.000351,8.786118,1.6130981,0.06335449,-0.10372925,-0.028152466,0.14718056,0.017385483,0.075143695
1570715558,-2.000351,8.786118,1.6130981,0.06335449,-0.10372925,-0.028152466,0.14718056,0.017385483,0.075143695
1570715558,-2.032074,8.771164,1.6962891,0.017547607,-0.011062622,6.1035156E-4,0.072253466,0.01676178,0.12908256
1570715559,-2.102707,8.689758,1.6597748,-0.045303345,0.0922699,0.040023804,-0.02876687,-0.033210754,0.14792144
1570715559,-2.300232,8.75679,1.4760284,-0.076187134,0.08908081,0.042160034,-0.14124107,-0.0044136047,-0.066191316
1570715559,-2.3026276,8.802887,1.4449005,-0.059143066,0.020904541,0.022979736,-0.18801141,0.04042816,-0.09023166
1570715559,-2.118866,8.725662,1.4766235,0.052703857,-0.057922363,-0.03666687,-0.024688482,0.002316475,-0.07852507
1570715559,-2.118866,8.725662,1.4766235,0.052703857,-0.057922363,-0.03666687,-0.024688482,0.002316475,-0.07852507
1570715559,-2.063202,8.71489,1.5711975,0.081466675,-0.04408264,-0.037734985,0.048160076,-0.060952187,0.0026289225
1570715559,-1.9943695,8.675995,1.5897522,0.0143585205,0.052856445,-0.020690918,0.14366603,-0.10823822,0.055893898
1570715559,-1.948883,8.710709,1.5867615,-0.019729614,0.052856445,-0.013244629,0.15957332,-0.1050663,0.051693916
1570715559,-2.0410614,8.705322,1.5604248,-0.0697937,0.034744263,-0.0036468506,0.06656861,-0.022488594,0.04370594
1570715559,-1.9931793,8.880692,1.4131775,-0.09855652,-0.030227661,-0.015365601,0.107332945,0.16213799,-0.1917504
1570715559,-2.126648,8.883682,1.3766632,0.011154175,-0.050476074,-0.012176514,0.02785778,0.15668392,-0.22515237
1570715559,-2.1218567,8.889664,1.3862457,0.015426636,-0.04408264,-0.010040283,0.02785778,0.15668392,-0.22515237
1570715559,-2.222412,8.857941,1.4814148,0.016494751,0.045410156,0.009140015,-0.096554756,0.11943245,-0.12948656
1570715559,-2.142212,8.720276,1.5472565,0.12088013,0.024093628,-0.011108398,0.0011713505,-0.024377823,0.0750289
1570715559,-2.119461,8.748413,1.5149384,0.12301636,0.015579224,-0.013244629,0.0011713505,-0.024377823,0.0750289
1570715559,-2.1039124,8.541321,1.7956543,0.10597229,-0.0920105,-0.03666687,0.041728735,-0.1633873,0.22672951
1570715559,-2.0440521,8.659821,1.5472565,-0.047424316,-0.04194641,-0.013244629,0.09806466,-0.030805588,0.06868625
1570715559,-2.0440521,8.659821,1.5472565,-0.047424316,-0.04194641,-0.013244629,0.09806466,-0.030805588,0.06868625
1570715559,-2.0685883,8.720886,1.4137726,-0.10069275,-0.14634705,-0.013244629,0.05990815,-0.0058784485,-0.17202222
1570715559,-2.130844,8.780136,1.411377,-0.021865845,-0.111190796,-0.015365601,-0.025583506,0.047992706,-0.10658765
1570715559,-2.130844,8.780136,1.411377,-0.021865845,-0.111190796,-0.015365601,-0.025583506,0.047992706,-0.10658765
1570715559,-2.2020721,8.789719,1.5322876,0.02607727,-0.11225891,-0.015365601,-0.0499146,0.07256317,-0.084738135
1570715559,-2.2170258,8.686768,1.4335327,0.013290405,-0.056869507,-0.013244629,-0.09170318,-0.020934105,-0.10973072
1570715559,-2.1882935,8.687363,1.4419098,0.0143585205,-0.06752014,-0.018569946,-0.08983755,-0.04148197,-0.11446905
1570715559,-2.1314392,8.75679,1.5083466,0.040985107,-0.14741516,-0.039871216,0.020229578,-0.03255844,-0.05419731
1570715559,-2.0602112,8.7699585,1.5430603,0.02607727,-0.21878052,-0.035614014,0.061130047,0.031859398,-0.06697619
1570715559,-2.1882935,8.683777,1.6759338,-0.023986816,0.013442993,0.032562256,-0.035866022,-0.023239136,0.07801843
1570715559,-2.2445679,8.768158,1.5664062,-0.031448364,0.034744263,0.03895569,-0.054680824,-0.022906303,0.10618746
1570715559,-2.2337952,8.7226715,1.4999695,-0.043167114,0.074157715,0.034698486,-0.13560414,-0.02100277,0.0010505915
1570715559,-2.236786,8.674194,1.5364838,-0.006942749,-0.062194824,-0.013244629,-0.1296854,-0.031716347,-0.06627762
1570715559,-2.047638,8.712494,1.6232758,0.01222229,-0.13995361,-0.030288696,0.057955742,0.034166336,0.021859288
1570715559,-2.047638,8.712494,1.6232758,0.01222229,-0.13995361,-0.030288696,0.057955742,0.034166336,0.021859288
1570715559,-2.070984,8.750214,1.663971,-0.015472412,-0.019577026,0.0016784668,0.08550787,0.0010223389,0.10861671
1570715560,-2.13443,8.721481,1.6124878,-0.030380249,0.03794861,0.025115967,-0.015121937,-0.008815765,0.032106757
1570715560,-2.2547455,8.740036,1.5735931,-0.010147095,0.035812378,0.024047852,-0.09033561,0.0011053085,0.060127616
1570715560,-2.2864685,8.696945,1.5951385,-0.049560547,0.024093628,0.005935669,-0.16738749,-0.027926445,-0.044100642
1570715560,-2.2499542,8.647263,1.5723877,-0.04849243,0.019836426,0.0048675537,-0.15745473,-0.02528286,-0.022170544
1570715560,-2.0644073,8.738235,1.6998901,-0.023986816,-0.02810669,-0.017501831,0.007172346,-0.011659622,0.034291387
1570715560,-2.0781708,8.771164,1.4838104,0.0058288574,-0.076034546,-0.023895264,0.057922363,0.039628983,-0.084180355
1570715560,-2.05542,8.750214,1.7369995,-0.0016174316,-0.06324768,-0.0025787354,0.07390475,0.08276653,0.06315243
1570715560,-2.111679,8.7777405,1.663971,-0.014404297,0.028366089,0.027236938,-0.0011305809,0.049990654,0.026266694
1570715560,-2.143402,8.706512,1.6609802,-0.008010864,0.07522583,0.042160034,-0.041856766,0.0118227005,0.02567923
1570715560,-2.119461,8.737045,1.6909027,0.03779602,0.029418945,0.032562256,-0.0155854225,-0.033658028,0.040776134
1570715560,-2.2505493,8.8358,1.4646454,0.040985107,-0.04408264,0.0155181885,-0.10741377,0.06139946,-0.17427123
1570715560,-2.2260132,8.669403,1.8519135,0.0058288574,0.017700195,0.016586304,-0.17535949,-0.04257679,0.25692868
1570715560,-2.0745697,8.778946,1.4377136,0.0058288574,-0.062194824,6.1035156E-4,0.09474325,0.02526474,-0.15762556
1570715560,-2.0745697,8.778946,1.4377136,0.0058288574,-0.062194824,6.1035156E-4,0.09474325,0.02526474,-0.15762556
1570715560,-2.1410217,8.787918,1.7136536,-0.008010864,0.024093628,0.028305054,-0.06735325,0.055570602,0.11453354
1570715560,-2.2182312,8.691544,1.6519928,5.0354004E-4,0.074157715,0.036834717,-0.12390089,-0.069345474,0.07241166
1570715560,-2.2331848,8.698135,1.6651611,-0.003753662,0.08055115,0.040023804,-0.12002778,-0.04688835,0.02030003
1570715560,-2.1122894,8.731659,1.5604248,-0.006942749,0.0017242432,-0.008972168,-0.026669264,-0.038240433,0.0022432804
1570715560,-2.0823517,8.723267,1.687912,0.013290405,-0.111190796,-0.033477783,0.044000864,0.018766403,0.015023828
1570715560,-2.0823517,8.723267,1.687912,0.013290405,-0.111190796,-0.033477783,0.044000864,0.018766403,0.015023828
1570715560,-2.039856,8.772949,1.6555939,-0.03251648,0.03048706,-0.010040283,0.06710458,-0.0049095154,0.04411304
1570715560,-2.0703888,8.783127,1.6711578,-0.042099,0.08375549,0.007003784,0.04229331,0.060689926,-0.012581944
1570715560,-2.0979156,8.736435,1.6226654,-0.023986816,0.07203674,0.012329102,0.013936758,0.007390976,-0.027925014
1570715560,-2.0979156,8.736435,1.6226654,-0.023986816,0.07203674,0.012329102,0.013936758,0.007390976,-0.027925014
1570715560,-2.1853027,8.704117,1.7016754,0.010101318,0.05606079,-0.004714966,-0.097708225,-0.048765182,0.08089101
1570715560,-2.2439728,8.71788,1.6735535,-0.006942749,0.085876465,-0.015365601,-0.07151461,-0.003030777,0.11359227
1570715560,-2.087143,8.77655,1.5915527,-0.02293396,0.04434204,-0.022827148,0.03218651,0.009292603,0.005973816
1570715560,-1.9381104,8.814255,1.6717529,-0.03251648,-0.014251709,-4.5776367E-4,0.19702125,0.066581726,0.00365901
1570715560,-1.953064,8.7777405,1.6382294,-0.03677368,-0.007858276,0.0037994385,0.19702125,0.066581726,0.00365901
1570715560,-2.0308838,8.771759,1.5604248,-0.038909912,0.059249878,0.025115967,0.10985446,-0.0050992966,-0.13074875
1570715560,-2.0548248,8.81485,1.577179,0.021820068,-0.03236389,6.1035156E-4,0.040134907,0.058935165,-0.1058377
1570715560,-2.0548248,8.81485,1.577179,0.021820068,-0.03236389,6.1035156E-4,0.040134907,0.058935165,-0.1058377
1570715560,-2.0386658,8.781937,1.6597748,0.05696106,-0.099472046,-0.008972168,0.019510508,0.03068924,0.0027433634
1570715561,-2.126648,8.716095,1.8507233,0.029266357,-0.013183594,0.018722534,0.0025627613,-0.011772156,0.18792427
1570715561,-2.126648,8.716095,1.8507233,0.029266357,-0.013183594,0.018722534,0.0025627613,-0.011772156,0.18792427
1570715561,-2.2080536,8.714294,1.7663269,-0.010147095,0.078430176,0.03895569,-0.09501505,-0.059419632,0.13671494
1570715561,-2.2966309,8.649658,1.704071,-0.025054932,0.059249878,0.022979736,-0.17735171,-0.059332848,0.023622274
1570715561,-2.2792816,8.667007,1.7316132,0.0068969727,-0.03555298,-0.019622803,-0.14716125,-0.06441021,0.04497683
1570715561,-2.1338348,8.713104,1.7645264,0.019683838,-0.09414673,-0.047332764,-0.03152442,-0.045642853,0.0922029
1570715561,-2.0141296,8.763977,1.6807251,-0.0016174316,-0.07284546,-0.015365601,0.11150265,0.035684586,0.03064835
1570715561,-2.0135193,8.783127,1.7322083,-0.021865845,-0.033432007,0.0048675537,0.11721873,0.0691309,0.026772857
1570715561,-2.0853424,8.762772,1.7094574,-0.031448364,0.052856445,0.029373169,0.03458023,0.006911278,0.025749803
1570715561,-2.1793213,8.73465,1.5861511,0.004776001,0.058181763,0.0155181885,-0.0863142,-0.047906876,-0.060603738
1570715561,-2.1793213,8.73465,1.5861511,0.004776001,0.058181763,0.0155181885,-0.0863142,-0.047906876,-0.060603738
1570715561,-2.0488434,8.741837,1.6693573,0.036727905,-0.08668518,-0.037734985,0.024190187,0.006757736,1.4901161E-5
1570715561,-2.0488434,8.741837,1.6693573,0.036727905,-0.08668518,-0.037734985,0.024190187,0.006757736,1.4901161E-5
1570715561,-2.0500336,8.778946,1.7681122,0.0058288574,0.014511108,0.017654419,0.06796074,0.035747528,0.11730039
1570715561,-2.0602112,8.746017,1.7609406,0.0037078857,0.024093628,0.01979065,0.06796074,0.035747528,0.11730039
1570715561,-2.1278534,8.778946,1.7417755,-0.0026855469,0.08908081,0.044281006,-0.016566277,0.063474655,0.09370136
1570715561,-2.2170258,8.696945,1.6208801,0.013290405,0.074157715,0.028305054,-0.13605595,-0.009900093,0.017635942
1570715561,-2.237381,8.71489,1.6513977,0.018615723,0.064575195,0.024047852,-0.123918295,-0.044344902,0.0046645403
1570715561,-2.0296783,8.67778,1.6855164,0.03779602,-0.056869507,-0.031341553,0.0714767,-0.076865196,0.047938347
1570715561,-2.0296783,8.67778,1.6855164,0.03779602,-0.056869507,-0.031341553,0.0714767,-0.076865196,0.047938347
1570715561,-1.9476776,8.774155,1.6418304,0.016494751,-0.06324768,-0.024963379,0.16920424,-0.030136108,0.045717716
1570715561,-1.9824066,8.783127,1.6603851,-0.010147095,-0.03768921,-0.0025787354,0.1438303,0.023457527,0.020356297
1570715561,-2.0500336,8.800491,1.6322479,-0.016540527,0.01876831,0.021911621,0.066393375,0.042915344,-0.001369834
1570715561,-2.1206665,8.883087,1.6286621,0.0015716553,0.03048706,0.032562256,-9.396076E-4,0.07023239,-0.056302786
1570715561,-2.166748,8.699936,1.4999695,0.02394104,0.021972656,0.01979065,-0.07527208,-0.030831337,-0.100456715
1570715561,-2.0614014,8.702927,1.5789795,0.04524231,-0.07710266,-0.026016235,0.027076244,-0.015676498,-0.08263755
1570715561,-2.0727844,8.736435,1.5747833,0.050582886,-0.08029175,-0.02708435,0.027076244,-0.015676498,-0.08263755
1570715561,-1.9446869,8.780731,1.6130981,0.05909729,-0.10372925,-0.029220581,0.103471756,0.034832954,0.0055195093
1570715561,-2.0135193,8.757385,1.7178345,0.031402588,-0.03555298,-0.0015258789,0.09540439,-0.0053224564,0.12329948
1570715561,-2.166153,8.77655,1.6130981,-0.017608643,0.099731445,0.037887573,-0.07233095,-0.012011528,0.009392738
1570715561,-2.173935,8.740036,1.5047607,-0.019729614,0.08375549,0.03363037,-0.08169651,-0.02188301,-0.056957126
1570715561,-2.1799164,8.75499,1.5251007,0.02607727,-0.04940796,-0.018569946,-0.11186814,-0.00947094,-0.07747376
1570715561,-2.1368256,8.7155,1.5675964,0.028198242,-0.045150757,-0.02708435,-0.050386667,-0.026488304,-0.055462003
1570715562,-2.0392609,8.737045,1.5095367,-0.0026855469,0.008117676,-0.024963379,0.09594607,-0.022535324,-0.07976937
1570715562,-2.0111237,8.73465,1.493988,-0.0016174316,0.009185791,-0.024963379,0.058908224,-0.02148056,-0.05893731
1570715562,-2.0093384,8.799286,1.5981293,0.01222229,-0.0036010742,-4.5776367E-4,0.13622785,0.0148944855,-0.02274537
1570715562,-2.0093384,8.799286,1.5981293,0.01222229,-0.0036010742,-4.5776367E-4,0.13622785,0.0148944855,-0.02274537
1570715562,-2.277481,8.65683,1.5400696,-0.039978027,0.13168335,0.020843506,-0.15668774,-0.13103199,-0.03523159
1570715562,-2.229004,8.647858,1.4897919,-0.041030884,0.13168335,0.018722534,-0.16264844,-0.08917236,-0.060854077
1570715562,-2.1039124,8.731049,1.4371185,-0.012268066,-0.040878296,-0.04093933,-0.025320053,-0.006661415,-0.18375278
1570715562,-1.9782104,8.79689,1.4604645,0.022872925,-0.18682861,-0.06756592,0.07843137,0.08800697,-0.118986726
1570715562,-1.95607,8.810669,1.7369995,0.0068969727,-0.043014526,0.0016784668,0.14516568,0.093832016,0.092969775
1570715562,-1.9752197,8.832809,1.7244263,0.0037078857,-0.018508911,0.010192871,0.14516568,0.093832016,0.092969775
1570715562,-2.237976,8.743622,1.538269,-0.039978027,0.315979,0.07518005,-0.113190174,-0.05475521,-0.020706534
1570715562,-2.2487488,8.729263,1.4736328,0.011154175,0.088012695,-0.0025787354,-0.13766003,-0.030597687,-0.039862752
1570715562,-2.2385712,8.726868,1.4652557,0.015426636,0.06564331,-0.011108398,-0.13766003,-0.030597687,-0.039862752
1570715562,-2.0099335,8.717285,1.7136536,0.052703857,-0.16125488,-0.06010437,0.11378145,-0.00784111,0.13385701
1570715562,-1.9614563,8.718491,1.6927032,0.04737854,-0.15274048,-0.059051514,0.11378145,-0.00784111,0.13385701
1570715562,-1.9231415,8.751404,1.6783295,-0.021865845,0.06350708,0.014465332,0.24752617,0.012274742,0.11069834
1570715562,-1.9973602,8.708908,1.5699921,-0.038909912,0.088012695,0.032562256,0.12895083,-0.028701782,0.060415983
1570715562,-2.1559753,8.8094635,1.5113373,-0.02079773,-0.024902344,0.012329102,-0.045101166,0.04144287,-0.07262671
1570715562,-2.1302338,8.740036,1.454483,-0.014404297,-0.09628296,-0.015365601,-0.09254384,-0.010831833,-0.09124434
1570715562,-2.118866,8.766373,1.4879913,-0.017608643,-0.09840393,-0.018569946,-0.09254384,-0.010831833,-0.09124434
1570715562,-2.111084,8.783127,1.5322876,0.0068969727,-0.11012268,-0.022827148,-0.03438306,0.04267788,-0.07214427
1570715562,-2.0925293,8.753799,1.5675964,0.039916992,-0.0920105,-0.017501831,0.02025342,0.001789093,-0.016899943
1570715562,-2.1853027,8.744827,1.6496124,-0.006942749,0.015579224,0.018722534,-0.11388588,-0.012842178,0.11095929
1570715562,-2.1853027,8.744827,1.6496124,-0.006942749,0.015579224,0.018722534,-0.11388588,-0.012842178,0.11095929
1570715562,-2.229004,8.729858,1.569397,-0.017608643,0.05606079,0.027236938,-0.16619015,-0.027374268,0.05171144
1570715562,-2.2679138,8.696335,1.5783844,0.0037078857,-0.0057373047,6.1035156E-4,-0.14588666,-0.04583168,0.038862467
1570715562,-2.2236176,8.734055,1.5849609,0.018615723,-0.030227661,-0.016433716,-0.112221,0.006251335,0.029182673
1570715562,-2.1314392,8.732254,1.6687622,0.0015716553,0.029418945,-0.008972168,0.011733055,0.0025081635,0.073497534
1570715562,-2.1009064,8.732849,1.6885071,-5.493164E-4,0.03048706,-0.0068511963,0.011627197,-0.017027855,0.08006525
1570715562,-2.0925293,8.780136,1.6543884,-0.003753662,0.013442993,0.009140015,0.031280756,0.029502869,0.04491818
1570715562,-2.0979156,8.774155,1.6508026,-0.0048217773,0.01876831,0.009140015,0.031280756,0.029502869,0.04491818
1570715562,-2.1954803,8.780731,1.656189,5.0354004E-4,0.04220581,0.016586304,-0.04265523,0.029182434,0.07276213
1570715562,-2.2499542,8.717285,1.6513977,0.02394104,0.054992676,0.028305054,-0.11614394,-0.020870209,0.054932952
1570715563,-2.197876,8.692154,1.6663666,0.02607727,0.027297974,0.007003784,-0.059942722,-0.026871681,0.11914146
1570715563,-2.197876,8.692154,1.6663666,0.02607727,0.027297974,0.007003784,-0.059942722,-0.026871681,0.11914146
1570715563,-2.027893,8.684967,1.5873566,-0.0026855469,-0.06324768,-0.022827148,0.12852716,-0.110780716,0.009495854
1570715563,-2.027893,8.684967,1.5873566,-0.0026855469,-0.06324768,-0.022827148,0.12852716,-0.110780716,0.009495854
1570715563,-1.9830017,8.800491,1.5364838,-0.027191162,-0.03236389,0.017654419,0.14781141,0.10537338,-0.07697213
1570715563,-1.9830017,8.800491,1.5364838,-0.027191162,-0.03236389,0.017654419,0.14781141,0.10537338,-0.07697213
1570715563,-2.284668,8.792114,1.5287018,0.01222229,0.057113647,0.040023804,-0.14738822,0.045484543,-0.05139339
1570715563,-2.2349854,8.786713,1.5436554,0.011154175,0.06138611,0.040023804,-0.14738822,0.045484543,-0.05139339
1570715563,-2.3044128,8.75499,1.4688416,0.028198242,0.085876465,0.012329102,-0.20757222,-0.028478622,-0.057206154
1570715563,-2.0380707,8.613739,1.5047607,0.079330444,-0.046203613,-0.056915283,0.08387923,-0.12867928,0.018333912
1570715563,-2.047638,8.647263,1.5574341,0.07827759,-0.050476074,-0.055847168,0.09356928,-0.15490818,-0.014508963
1570715563,-1.877655,8.770554,1.6460114,-0.02293396,0.10079956,0.002746582,0.24746442,0.04274273,0.162274
1570715563,-1.877655,8.770554,1.6460114,-0.02293396,0.10079956,0.002746582,0.24746442,0.04274273,0.162274
1570715563,-1.9584503,8.674789,1.3233948,-0.1124115,0.15086365,0.022979736,0.12526703,-0.038384438,-0.2216618
1570715563,-1.9584503,8.674789,1.3233948,-0.1124115,0.15086365,0.022979736,0.12526703,-0.038384438,-0.2216618
1570715563,-1.8878326,8.838196,1.2533722,-0.006942749,-0.17190552,-0.051589966,0.25909352,0.09705067,-0.30879235
1570715563,-1.853714,8.832809,1.3000488,-0.0058898926,-0.18255615,-0.05265808,0.22844744,0.10663986,-0.30032396
1570715563,-1.9321136,8.845383,1.4957733,0.016494751,-0.15274048,-0.0345459,0.16630983,0.07445526,-0.1449889
1570715563,-2.1841125,8.751404,1.388031,-0.023986816,0.045410156,0.018722534,-0.067961454,0.019016266,-0.103807926
1570715563,-2.1841125,8.751404,1.388031,-0.023986816,0.045410156,0.018722534,-0.067961454,0.019016266,-0.103807926
1570715563,-2.1517944,8.724472,1.388031,-0.02293396,-0.07070923,-0.005783081,-0.07063651,0.0019779205,-0.11972952
1570715563,-1.877655,8.886673,1.459259,0.018615723,-0.27844238,-0.030288696,0.18829441,0.17298508,-0.12876415
1570715563,-1.877655,8.886673,1.459259,0.018615723,-0.27844238,-0.030288696,0.18829441,0.17298508,-0.12876415
1570715563,-1.9279327,8.713104,1.8872223,0.08467102,-0.018508911,0.06665039,0.17108059,-0.044722557,0.31042457
1570715563,-1.9279327,8.713104,1.8872223,0.08467102,-0.018508911,0.06665039,0.17108059,-0.044722557,0.31042457
1570715563,-2.6473846,8.468292,1.7531586,-0.047424316,0.13807678,-0.017501831,-0.5828161,-0.30685997,0.25632918
1570715563,-2.6473846,8.468292,1.7531586,-0.047424316,0.13807678,-0.017501831,-0.5828161,-0.30685997,0.25632918
1570715563,-2.379837,8.635284,1.8405457,-0.04423523,-0.38282776,-0.12615967,-0.34024143,-0.12836647,0.22505713
1570715563,-2.379837,8.635284,1.8405457,-0.04423523,-0.38282776,-0.12615967,-0.34024143,-0.12836647,0.22505713
1570715563,-2.178131,8.97287,1.7896729,-0.1401062,0.047531128,0.049606323,-0.047380686,0.17382145,0.13170803
1570715563,-2.2050629,8.996216,1.7968445,-0.1401062,0.076293945,0.06239319,-0.047380686,0.17382145,0.13170803
1570715563,-2.4049683,8.881897,1.6478119,-0.12199402,0.38308716,0.14974976,-0.38838172,0.15413857,-0.08103669
1570715563,-2.4133606,8.77655,1.454483,-0.039978027,0.3394165,0.10180664,-0.38703728,0.070708275,-0.22269356
1570715563,-2.126648,8.710098,1.5634155,0.19226074,-0.09414673,-0.061172485,-0.09202504,-0.05972576,-0.15030324
1570715563,-1.9710236,8.712494,1.6849213,0.2316742,-0.19961548,-0.09100342,0.042745113,-0.04337597,0.07816064
1570715564,-1.948288,8.688553,2.0787659,0.0068969727,0.04220581,0.022979736,0.15801883,-0.079686165,0.46432543
1570715564,-1.948288,8.688553,2.0787659,0.0068969727,0.04220581,0.022979736,0.15801883,-0.079686165,0.46432543
1570715564,-2.206253,8.700531,1.4688416,-0.16673279,0.27230835,0.06878662,-0.1587305,-0.022301674,-0.0015143156
1570715564,-2.206253,8.700531,1.4688416,-0.16673279,0.27230835,0.06878662,-0.1587305,-0.022301674,-0.0015143156
1570715564,-2.0105286,8.799286,1.5963287,0.06655884,-0.22198486,-0.05265808,0.061645985,0.05318451,-0.17214
1570715564,-2.0171204,8.799286,1.5963287,0.06655884,-0.22198486,-0.05265808,0.061645985,0.05318451,-0.17214
1570715564,-1.9321136,8.772354,1.6843262,0.06123352,-0.03768921,-0.037734985,0.10915637,0.0061101913,0.0906384
1570715564,-1.9237366,8.791504,1.5831604,-0.015472412,0.12635803,0.0155181885,0.16497159,0.050566673,0.027431846
1570715564,-1.9237366,8.791504,1.5831604,-0.015472412,0.12635803,0.0155181885,0.16497159,0.050566673,0.027431846
1570715564,-1.924942,8.784332,1.5239105,-0.045303345,0.03048706,0.017654419,0.12525177,0.0129823685,-0.089776754
1570715564,-2.25354,8.713699,1.6579895,-0.041030884,-0.01638794,0.014465332,-0.1462009,-0.010979652,0.053809643
1570715564,-2.25354,8.713699,1.6579895,-0.041030884,-0.01638794,0.014465332,-0.1462009,-0.010979652,0.053809643
1570715564,-2.230194,8.712494,1.5867615,-0.021865845,0.062454224,6.1035156E-4,-0.16602898,-0.013092995,-0.04324746
1570715564,-2.197876,8.720276,1.6962891,0.028198242,-0.08668518,-0.024963379,-0.10016537,-0.020210266,0.031220675
1570715564,-2.2002716,8.706512,1.7052765,0.025009155,-0.08988953,-0.024963379,-0.10016537,-0.020210266,0.031220675
1570715564,-2.1715393,8.662216,1.8261719,-0.054885864,0.07096863,0.0048675537,-0.09211731,-0.06258297,0.15139186
1570715564,-2.1637573,8.644272,1.8130035,-0.06021118,0.076293945,0.008071899,-0.09211731,-0.06258297,0.15139186
1570715564,-2.2104492,8.689758,1.6831207,-0.088974,0.06138611,-0.0015258789,-0.11717534,-0.041270256,0.020493388
1570715564,-2.2559357,8.744827,1.6765442,-0.08578491,0.026229858,-0.015365601,-0.1485486,-0.01006794,-0.032458663
1570715564,-2.1559753,8.71788,1.6579895,-0.06021118,0.01876831,-0.0345459,-0.024143696,0.02610588,-0.09682047
1570715564,-2.1595764,8.729858,1.6759338,-0.061279297,0.021972656,-0.030288696,-0.024143696,0.02610588,-0.09682047
1570715564,-2.070984,8.7621765,1.7471619,-0.015472412,0.027297974,-0.008972168,0.08484888,0.06715107,-0.045907736
1570715564,-2.070984,8.7621765,1.7471619,-0.015472412,0.027297974,-0.008972168,0.08484888,0.06715107,-0.045907736
1570715564,-2.1990814,8.711899,1.9578552,-0.04423523,0.18388367,0.046417236,-0.05212307,0.023774147,0.20198977
1570715564,-2.1990814,8.711899,1.9578552,-0.04423523,0.18388367,0.046417236,-0.05212307,0.023774147,0.20198977
1570715564,-2.3121948,8.7155,1.814209,-0.045303345,0.14979553,0.04322815,-0.10823965,-0.025946617,0.101040244
1570715564,-2.4043732,8.669403,1.8507233,-0.08151245,0.097595215,0.028305054,-0.24799919,-0.015304565,0.029525518
1570715564,-2.166153,8.669403,1.8417358,-0.02293396,0.04006958,-0.005783081,-0.037015676,-0.021730423,0.04206109
1570715564,-2.051834,8.731049,1.8722687,0.019683838,-0.0036010742,-0.014297485,0.102511406,0.04802227,0.076276064
1570715564,-2.051834,8.731049,1.8722687,0.019683838,-0.0036010742,-0.014297485,0.102511406,0.04802227,0.076276064
1570715564,-1.7765045,8.724472,1.7202301,0.019683838,-0.08456421,0.007003784,0.3548894,-0.039168358,-0.12143648
1570715564,-1.7585449,8.724472,1.7202301,0.019683838,-0.08456421,0.007003784,0.3548894,-0.039168358,-0.12143648
1570715564,-1.9859924,8.67659,2.019516,0.03565979,0.026229858,0.008071899,0.053508043,-0.04275894,0.2546097
1570715565,-2.0889435,8.749603,1.8010406,-0.0016174316,-0.12716675,-0.0025787354,0.049474955,4.7397614E-4,-0.04730749
1570715565,-2.0889435,8.749603,1.8010406,-0.0016174316,-0.12716675,-0.0025787354,0.049474955,4.7397614E-4,-0.04730749
1570715565,-2.0661926,8.647263,1.9806061,-0.031448364,-0.08242798,-0.011108398,0.029708147,-0.07995033,0.08917117
1570715565,-2.1254578,8.923782,1.7998352,-0.006942749,-0.1346283,-0.02708435,-0.052481174,0.15552902,-0.03860271
1570715565,-2.17453,8.753204,1.9524689,0.017547607,-0.10267639,-0.0388031,-0.035621643,0.028671265,0.07800031
1570715565,-2.2319946,8.770554,1.8447266,0.0068969727,-0.0121154785,-0.02708435,-0.124525785,0.12146568,0.07614231
1570715565,-2.1577759,8.6358795,1.8549042,-0.028259277,0.06138611,-0.005783081,-0.040641308,-0.068582535,-0.02470088
1570715565,-2.135025,8.7777405,1.8112183,-0.026123047,0.11038208,-0.024963379,0.07179499,0.08854771,0.06687403
1570715565,-2.0865479,8.779541,1.8369446,0.004776001,-0.099472046,-0.042007446,0.072865725,0.07482338,-0.04237485
1570715565,-2.0626068,8.847168,1.9728241,-0.016540527,-0.05899048,-0.0345459,-0.0048835278,0.063723564,0.028324723
1570715565,-2.3768463,8.647263,1.711853,-0.043167114,0.004928589,0.016586304,-0.016792536,-0.046277046,-0.15638971
1570715565,-2.4774017,8.665817,1.7633362,-0.04849243,0.0113220215,0.025115967,-0.2044456,-0.0878315,-0.15371335
1570715565,-2.1092987,8.625717,1.5873566,-0.027191162,0.031555176,0.013397217,0.008176804,-0.07459259,-0.26470554
1570715565,-2.118866,8.641876,1.6292572,-0.021865845,0.010253906,0.011260986,0.008176804,-0.07459259,-0.26470554
1570715565,-2.111084,8.854355,1.7866669,0.034591675,-0.13569641,-0.037734985,-0.01654625,0.11136055,-0.09942877
1570715565,-2.111084,8.854355,1.7866669,0.034591675,-0.13569641,-0.037734985,-0.01654625,0.11136055,-0.09942877
1570715565,-2.585144,8.87291,2.3612823,0.016494751,0.0922699,-0.0899353,-0.5429156,0.09027958,0.4679575
1570715565,-2.5462341,8.820831,2.3343506,0.01222229,0.121032715,-0.094192505,-0.5429156,0.09027958,0.4679575
1570715565,-1.6986847,8.646057,1.1731567,0.08999634,-0.05152893,-0.12083435,0.3968308,-0.01880169,-0.4469875
1570715565,-1.5526428,8.474869,1.1665802,0.09211731,-0.22410583,-0.12509155,0.5737312,-0.0693655,-0.63502395
1570715565,-1.7597351,8.9279785,1.7711182,0.10916138,-0.49468994,-0.110183716,0.5782552,0.050429344,-0.18545282
1570715565,-2.0051422,8.282745,1.6795349,0.14431763,-0.47976685,-0.06010437,0.25364327,-0.22913074,-0.033340216
1570715565,-2.1122894,8.696335,2.0147247,0.17201233,-0.39135742,0.007003784,0.11783457,-0.072686195,0.1611644
1570715565,-2.1122894,8.696335,2.0147247,0.17201233,-0.39135742,0.007003784,0.11783457,-0.072686195,0.1611644
1570715565,-2.399582,9.194931,2.1535797,-0.02079773,0.027297974,0.051742554,-0.16929007,0.3667202,0.39864123
1570715565,-2.5288696,8.827423,1.9656372,-0.14224243,0.15405273,0.06665039,-0.43835592,0.07488346,0.18574369
1570715565,-2.7174225,8.634094,1.9500732,0.03779602,-0.20706177,-0.05052185,-0.6263008,-0.18692684,0.15413022
1570715565,-2.7174225,8.634094,1.9500732,0.03779602,-0.20706177,-0.05052185,-0.6263008,-0.18692684,0.15413022
1570715565,-2.2834625,8.872314,1.3647003,0.13685608,-0.5799103,-0.20179749,-0.22607875,0.02361393,-0.38321936
1570715565,-2.4181366,8.586212,1.3401489,0.24339294,-1.0603485,-0.29978943,-0.18720984,0.00584507,-0.53297055
1570715565,-2.1565704,8.919601,1.68013,0.17626953,-1.1199951,-0.26890564,0.064931154,0.1350708,-0.18057525
1570715565,-2.3259735,8.725662,1.7465668,0.06867981,-0.9346466,-0.2891388,0.05141139,0.10256386,-0.16096151
1570715565,-2.629425,8.678375,2.0685883,0.028198242,-0.8078766,-0.22628784,-0.2739985,-0.07252598,0.057582736
1570715566,-2.8916016,8.6753845,2.52948,0.09425354,-0.17190552,-0.13041687,-0.6249745,0.071466446,0.60961056
1570715566,-2.6725311,8.757385,1.9363098,0.2593689,0.2637787,-0.19859314,-0.32021022,0.11806774,0.17424667
1570715566,-2.6725311,8.757385,1.9363098,0.2593689,0.2637787,-0.19859314,-0.32021022,0.11806774,0.17424667
1570715566,-2.1212616,8.843582,1.7310028,-0.088974,-0.24435425,-0.25505066,0.3555174,0.12107563,-0.10081589
1570715566,-2.1212616,8.843582,1.7310028,-0.088974,-0.24435425,-0.25505066,0.3555174,0.12107563,-0.10081589
1570715566,-2.2888641,8.550293,2.0817566,-0.20614624,-0.4169159,-0.17196655,0.27774525,0.026126862,0.14683771
1570715566,-2.0548248,8.513779,2.857483,-0.20188904,-0.39242554,0.112457275,0.30553198,-0.23300934,0.85147154
1570715566,-1.977005,8.789719,2.6827087,-0.1720581,-0.09414673,0.09754944,0.53013825,0.3922329,0.82529926
1570715566,-1.8076172,8.740036,1.1031342,-0.16673279,-0.39561462,0.036834717,0.5978644,0.1652031,-1.0991998
1570715566,-2.6503754,8.273163,2.0548248,0.06762695,-0.5852356,0.0868988,-0.20886588,-0.38387203,0.013388634
1570715566,-2.6503754,8.273163,2.0548248,0.06762695,-0.5852356,0.0868988,-0.20886588,-0.38387203,0.013388634
1570715566,-2.680313,9.123108,1.735199,0.06762695,-0.5159912,0.032562256,-0.56396246,0.30281258,-0.6387434
1570715566,-0.8828583,11.666351,1.0576324,0.14857483,-0.6970825,-0.43721008,1.033294,2.6633425,-0.93268394
1570715566,-3.7642822,8.250412,2.372055,0.20610046,-0.77485657,-0.28701782,-1.9142625,-0.71764755,0.2095232
1570715566,-3.5146942,8.250412,2.372055,0.20610046,-0.77485657,-0.28701782,-1.9142625,-0.71764755,0.2095232
1570715566,-2.8078003,8.249222,1.7800903,-0.57048035,1.0808411,-0.10272217,-0.44706035,-0.48246574,-0.27874637
1570715566,-1.9231415,6.301544,5.5216217,0.14112854,1.3833771,0.07411194,0.98493767,-1.9127216,3.53556
1570715566,-1.9231415,6.301544,5.5216217,0.14112854,1.3833771,0.07411194,0.98493767,-1.9127216,3.53556
1570715566,-3.1340027,8.398254,1.5753784,0.2636261,0.35539246,0.38304138,-0.28299928,-0.5400562,0.13076186
1570715566,-3.0346527,8.18338,1.9536743,-0.32652283,-0.5894928,0.42138672,-0.44722867,-0.31281853,-0.5968778
1570715566,-3.4973297,8.40065,3.1010895,-0.29031372,-0.43395996,0.48104858,-0.9932077,-0.17686749,0.94921875
1570715566,-3.3943787,8.881897,2.8299408,-0.30628967,-0.2368927,0.5172577,-1.2122519,0.104599,0.6651304
1570715566,-2.9753876,9.248795,2.2343903,-0.35421753,-0.060058594,0.40647888,-0.84977055,0.5081072,0.06849599
1570715566,-4.1359863,7.9427643,3.7056274,-0.47566223,-1.4150696,0.35002136,-2.2230027,-0.62470627,1.5218818
1570715566,-3.8732147,8.6909485,2.106903,-0.29670715,-1.4331818,-0.18048096,-2.0911813,0.35155773,-1.1070118
1570715566,-3.8732147,8.6909485,2.106903,-0.29670715,-1.4331818,-0.18048096,-2.0911813,0.35155773,-1.1070118
1570715566,-4.217987,8.3815,2.7132263,-0.11454773,-0.84729004,-0.34666443,-2.284032,-0.050554276,-0.5397916
1570715566,-2.395401,11.966217,12.761093,0.705719,1.7998962,0.32125854,-1.1642365,-0.18555737,-1.697685
1570715566,-2.8281555,6.727707,-2.78685,1.582428,3.6481323,0.6887665,-4.415203,-4.0427856,1.7357104
1570715566,-1.5723877,8.571838,0.43814087,1.7933502,4.235092,1.3162079,-2.6402397,-4.227866,-9.053018
1570715566,0.10774231,10.277115,0.108932495,1.0732269,4.8816986,1.3843842,1.383784,-0.08826256,-0.062853575
1570715566,0.056259155,9.30925,-0.296875,-0.60136414,2.2526245,1.3758698,1.1229491,0.4586115,-1.569186
1570715566,1.9830017,8.893265,0.9133911,-0.98165894,-0.41159058,0.032562256,4.3004208,0.26680374,0.14482284
1570715567,0.7451935,8.5048065,-0.27233887,-2.1353455,-0.9367676,-0.37223816,2.8506756,-0.07652378,-2.6418736
1570715567,0.42616272,8.227676,0.1304779,-2.188614,-1.006012,-0.35624695,2.426271,-0.20785522,-2.5213816
1570715567,-1.9913788,9.702499,6.814499,-0.8453064,-0.67578125,0.09436035,0.42725742,1.3456507,4.6575637
1570715567,-3.0975037,9.327209,2.498352,0.5672302,0.9881592,0.45228577,-1.9464707,-0.25228405,0.10129142
1570715567,-1.9698334,11.0390625,-1.1396332,1.3640442,0.89868164,0.5002136,-0.91385114,2.1433382,-2.451651
1570715567,-1.074997,10.792465,1.5759888,1.6569977,-0.18789673,0.5598755,-0.15383708,2.5512314,-1.292319
1570715567,-0.7972717,10.662582,2.4893646,0.2316742,1.4025574,0.4714508,0.7857518,2.0608501,0.3762139
1570715567,-0.7972717,10.662582,2.4893646,0.2316742,1.4025574,0.4714508,0.7857518,2.0608501,0.3762139
1570715567,-1.5083466,8.889664,1.5209198,0.30836487,-1.2638092,1.127655,-0.50154376,-0.00876236,1.1036245
1570715567,-1.5083466,8.889664,1.5209198,0.30836487,-1.2638092,1.127655,-0.50154376,-0.00876236,1.1036245
1570715567,-1.9554596,8.737045,2.9191284,0.13366699,0.5194397,1.430191,-2.0378013,-0.057692528,0.29994273
1570715567,-2.8137817,7.74704,0.46566772,0.41490173,0.40226746,1.5750732,-2.9572535,-1.7218227,-0.8007848
1570715567,-2.4223328,8.243835,1.1492157,0.39465332,0.2925415,1.6262054,-2.9572535,-1.7218227,-0.8007848
1570715567,-0.57640076,9.472656,1.790863,-0.025054932,0.8592682,1.4919739,-1.2503337,0.37352848,0.34237134
1570715567,3.6302032,11.001358,1.1707611,-0.6365204,1.9415741,1.2054291,2.1777475,2.5018625,-0.36891973
1570715567,3.9977112,10.810425,0.3250122,-1.2085724,2.339981,1.1095581,2.7479203,2.16333,-1.7149346
1570715567,3.9977112,10.810425,0.3250122,-1.2085724,2.339981,1.1095581,2.7479203,2.16333,-1.7149346
1570715567,6.135147,10.866684,0.3824768,-1.0114899,2.0885773,0.825119,4.697414,2.4978714,-1.7116199
1570715567,6.4050903,9.864716,2.1703491,-0.6897888,0.51838684,-0.62789917,4.362366,0.7774763,-0.67414665
1570715567,6.4050903,9.864716,2.1703491,-0.6897888,0.51838684,-0.62789917,4.362366,0.7774763,-0.67414665
1570715567,2.8616638,5.925644,3.4805756,-1.0221405,-0.27098083,-2.3695984,2.2036974,-2.4337006,-0.63429713
1570715567,2.8616638,5.925644,3.4805756,-1.0221405,-0.27098083,-2.3695984,2.2036974,-2.4337006,-0.63429713
1570715567,0.7972717,4.3095703,3.830719,-1.3161621,-0.16339111,-1.8614655,0.5061042,-4.164015,-0.007533312
1570715567,-0.42077637,6.241089,1.814209,-1.9659729,1.413208,-2.7243347,-0.93110454,-2.3601608,-1.1242695
1570715567,-1.0576324,7.0569153,4.8356934,-1.4120331,1.4163971,-3.2484436,-0.14268804,-1.6651268,-0.93329334
1570715567,-0.71406555,8.349777,4.898529,0.75897217,-0.15913391,-3.8822784,2.3096023,1.6595416,-0.12568188
1570715567,-1.6543884,6.5870514,4.281433,1.3480682,0.0070495605,-3.3070374,0.99864817,-0.6656809,0.21001482
1570715567,-2.3110046,9.729431,4.2323456,0.307312,0.21903992,0.5939636,0.7182102,1.8288598,0.57872486
1570715567,-2.3110046,9.729431,4.2323456,0.307312,0.21903992,0.5939636,0.7182102,1.8288598,0.57872486
1570715567,-1.8644867,8.69873,6.8372345,-2.2674408,0.6866913,1.5718689,0.6568916,0.9328675,2.4246125
1570715567,-1.8567047,8.763382,6.948578,-2.2844849,0.60040283,1.5963745,0.6568916,0.9328675,2.4246125
1570715567,-1.6513977,8.107361,7.7781677,-2.3920746,0.0070495605,1.8680115,0.36559892,0.60197926,3.2001047
1570715567,-1.5550385,6.1656647,9.15303,-3.2996826,-0.32211304,2.510376,-0.35243165,-0.8898697,3.2535968
1570715567,-1.5550385,6.1656647,9.15303,-3.2996826,-0.32211304,2.510376,-0.35243165,-0.8898697,3.2535968
1570715568,-1.130661,5.467163,9.1536255,-3.8951569,-1.1178589,1.9905243,-0.3867879,-0.49484873,2.2453141
1570715568,-0.14065552,3.126236,8.08223,-4.182785,-1.2659302,1.0744019,-0.78468996,-0.7419467,-0.20241165
1570715568,-0.14065552,3.126236,8.08223,-4.182785,-1.2659302,1.0744019,-0.78468996,-0.7419467,-0.20241165
1570715568,0.037704468,2.3816376,7.2711945,-2.348404,-1.2137451,0.49595642,-1.2778606,-0.06315613,-1.4083557
1570715568,0.037704468,2.3816376,7.2711945,-2.348404,-1.2137451,0.49595642,-1.2778606,-0.06315613,-1.4083557
1570715568,0.2819214,1.4179688,7.4878693,-1.5558472,-0.6555481,0.32444763,-1.3730062,-0.4179163,-1.2882462
1570715568,-1.9357147,3.502716,7.0156097,-0.19230652,-0.95381165,-0.6417389,-1.7052197,1.1950325,-3.26515
1570715568,-1.9357147,3.502716,7.0156097,-0.19230652,-0.95381165,-0.6417389,-1.7052197,1.1950325,-3.26515
1570715568,1.2731171,1.6950989,7.4806824,-1.5888672,2.5200195,-1.1701202,0.09610736,0.81389606,3.6436548
1570715568,0.75297546,-0.6392517,7.0467377,-1.2064362,2.1588898,-0.024963379,-0.63247347,-2.3682704,-0.9025774
1570715568,1.3742676,-0.2460022,10.134064,-0.37765503,0.9380951,-0.5394745,0.33008742,-1.1033285,0.873662
1570715568,1.7890625,0.95947266,10.963654,0.16029358,0.55140686,-0.8111267,0.6227987,-0.31780314,1.6856356
1570715568,0.7739258,1.4802094,10.33757,0.6535187,0.14128113,-0.54693604,0.27164477,0.05548358,1.371871
1570715568,0.7739258,1.4802094,10.33757,0.6535187,0.14128113,-0.54693604,0.27164477,0.05548358,1.371871
1570715568,0.6613922,1.6921082,11.185104,0.20503235,0.22117615,-0.3637085,-0.10211861,0.60108685,1.2409401
1570715568,0.12509155,1.1049194,11.523895,0.019683838,0.6398163,-0.119766235,-0.252146,-0.32300436,2.4138393
1570715568,0.21847534,1.7914581,9.779709,0.41490173,-0.13142395,-0.21989441,0.005211279,0.35373104,0.82191753
1570715568,0.26815796,1.8249817,9.612122,0.4170227,-0.16339111,-0.22203064,0.005211279,0.35373104,0.82191753
1570715568,0.45968628,2.1260529,9.907211,0.29664612,-0.338089,-0.2657013,0.19971967,0.5281255,0.64285946
1570715568,0.746994,1.7304077,9.809647,-0.01121521,0.29360962,-0.23588562,0.569728,0.124590635,0.70790386
1570715568,0.746994,1.7304077,9.809647,-0.01121521,0.29360962,-0.23588562,0.569728,0.124590635,0.70790386
1570715568,0.27772522,1.7663269,10.370483,-0.049560547,0.32662964,-0.19966125,0.1457909,0.036476612,1.3797998
1570715568,0.27772522,1.7663269,10.370483,-0.049560547,0.32662964,-0.19966125,0.1457909,0.036476612,1.3797998
1570715568,0.7697296,1.2844849,11.751343,-0.56941223,0.7804413,-0.45851135,1.1822436,-0.14768744,2.25414
1570715568,0.7697296,1.2844849,11.751343,-0.56941223,0.7804413,-0.45851135,1.1822436,-0.14768744,2.25414
1570715568,0.7697296,1.2844849,11.751343,-0.56941223,0.7804413,-0.45851135,1.1822436,-0.14768744,2.25414
1570715568,0.7697296,1.2844849,11.751343,-0.56941223,0.7804413,-0.45851135,1.1822436,-0.14768744,2.25414
1570715568,0.7697296,1.2844849,11.751343,-0.56941223,0.7804413,-0.45851135,1.1822436,-0.14768744,2.25414
1570715568,0.7697296,1.2844849,11.751343,-0.56941223,0.7804413,-0.45851135,1.1822436,-0.14768744,2.25414
1570715568,0.6721649,1.6849213,11.558014,0.06762695,-0.39775085,0.03363037,1.0951498,-0.053055048,3.092887
1570715568,0.6721649,1.6849213,11.558014,0.06762695,-0.39775085,0.03363037,1.0951498,-0.053055048,3.092887
1570715568,0.47584534,0.893631,11.179123,-0.534256,0.59721375,0.14228821,0.28914988,-1.1848142,1.8141251
1570715568,0.47584534,0.893631,11.179123,-0.534256,0.59721375,0.14228821,0.28914988,-1.1848142,1.8141251
1570715569,0.47584534,0.893631,11.179123,-0.534256,0.59721375,0.14228821,0.28914988,-1.1848142,1.8141251
1570715569,0.47584534,0.893631,11.179123,-0.534256,0.59721375,0.14228821,0.28914988,-1.1848142,1.8141251
1570715569,0.6488342,1.0552368,12.263702,-0.6407776,-0.28588867,-1.3480072,1.5783113,0.9365524,2.6192932
1570715569,-3.0286713,-2.138626,12.66951,1.4908142,-0.6683197,-0.70565796,-2.7810128,-2.6515725,3.8923845
1570715569,-3.0286713,-2.138626,12.66951,1.4908142,-0.6683197,-0.70565796,-2.7810128,-2.6515725,3.8923845
1570715569,-2.3205872,-1.7729034,12.111664,1.5898895,-0.7066803,-0.5831604,-2.31203,-2.597787,3.324664
1570715569,-2.3205872,-1.7729034,12.111664,1.5898895,-0.7066803,-0.5831604,-2.31203,-2.597787,3.324664
1570715569,-2.3205872,-1.7729034,12.111664,1.5898895,-0.7066803,-0.5831604,-2.31203,-2.597787,3.324664
1570715569,-2.3205872,-1.7729034,12.111664,1.5898895,-0.7066803,-0.5831604,-2.31203,-2.597787,3.324664
1570715569,-0.4513092,1.1438293,9.817429,0.62794495,-0.74928284,-0.6055298,-0.016250491,-0.23062694,0.4315567
1570715569,-0.4513092,1.1438293,9.817429,0.62794495,-0.74928284,-0.6055298,-0.016250491,-0.23062694,0.4315567
1570715569,-0.57281494,1.5340881,9.759369,0.7121124,-1.0283813,-0.42442322,-0.06222208,0.06603849,0.15126991
1570715569,-0.57281494,1.5340881,9.759369,0.7121124,-1.0283813,-0.42442322,-0.06222208,0.06603849,0.15126991
1570715569,-0.57281494,1.5340881,9.759369,0.7121124,-1.0283813,-0.42442322,-0.06222208,0.06603849,0.15126991
1570715569,-0.57281494,1.5340881,9.759369,0.7121124,-1.0283813,-0.42442322,-0.06222208,0.06603849,0.15126991
1570715569,-1.296463,0.8601227,11.297638,-0.23918152,1.3290405,0.11140442,-0.53450304,-0.45006168,1.5670538
1570715569,-1.3784637,0.61291504,11.999741,0.15922546,1.1404877,0.20195007,-0.64887524,-0.632288,2.2628775
1570715569,-1.9315186,2.9831696,7.7105255,0.8846741,-0.05899048,-0.11550903,-0.56952775,1.3510184,-2.5504408
1570715569,-1.9518738,2.6060944,8.54071,0.74620056,-0.17723083,-0.16236877,-0.7437004,1.3032986,-1.8761473
1570715569,-1.9518738,2.6060944,8.54071,0.74620056,-0.17723083,-0.16236877,-0.7437004,1.3032986,-1.8761473
1570715569,-1.9518738,2.6060944,8.54071,0.74620056,-0.17723083,-0.16236877,-0.7437004,1.3032986,-1.8761473
1570715569,-1.6071014,1.4203644,11.231201,-0.24876404,-0.37538147,0.25094604,0.3514688,0.36235714,1.7431517
1570715569,-1.6071014,1.4203644,11.231201,-0.24876404,-0.37538147,0.25094604,0.3514688,0.36235714,1.7431517
1570715569,-1.6855164,1.3724823,10.285492,0.11022949,-0.28909302,0.114593506,-0.0644964,0.08360326,0.8355284
1570715569,-1.6855164,1.3724823,10.285492,0.11022949,-0.28909302,0.114593506,-0.0644964,0.08360326,0.8355284
1570715569,-1.5059509,1.4526825,10.231628,0.11236572,-0.29441833,0.0826416,0.058397412,0.1437819,0.8368597
1570715569,-1.5059509,1.4526825,10.231628,0.11236572,-0.29441833,0.0826416,0.058397412,0.1437819,0.8368597
1570715569,-1.5059509,1.4526825,10.231628,0.11236572,-0.29441833,0.0826416,0.058397412,0.1437819,0.8368597
1570715569,-1.2479706,1.4658508,10.13945,-0.01121521,-0.52345276,-0.17622375,-0.12990582,0.16401136,0.53544617
1570715569,-1.1947021,1.4915924,10.232819,-0.015472412,-0.5287781,-0.17196655,-0.12990582,0.16401136,0.53544617
1570715569,-0.46028137,1.4209595,10.858307,-0.013336182,-0.3657837,-0.016433716,0.26577783,0.11176181,1.3074188
1570715569,-0.46028137,1.4209595,10.858307,-0.013336182,-0.3657837,-0.016433716,0.26577783,0.11176181,1.3074188
1570715569,-0.46028137,1.4209595,10.858307,-0.013336182,-0.3657837,-0.016433716,0.26577783,0.11176181,1.3074188
1570715569,-0.46028137,1.4209595,10.858307,-0.013336182,-0.3657837,-0.016433716,0.26577783,0.11176181,1.3074188
1570715570,-0.46028137,1.4209595,10.858307,-0.013336182,-0.3657837,-0.016433716,0.26577783,0.11176181,1.3074188
1570715570,-0.46028137,1.4209595,10.858307,-0.013336182,-0.3657837,-0.016433716,0.26577783,0.11176181,1.3074188
1570715570,-0.7170563,1.1426392,10.810425,0.06442261,0.18708801,0.017654419,0.1775595,0.03045404,1.2394772
1570715570,-0.7445984,1.1905212,10.6158905,0.028198242,0.24354553,0.04109192,0.09728968,-0.020522952,1.0647421
1570715570,-0.7445984,1.1905212,10.6158905,0.028198242,0.24354553,0.04109192,0.09728968,-0.020522952,1.0647421
1570715570,-0.7445984,1.1905212,10.6158905,0.028198242,0.24354553,0.04109192,0.09728968,-0.020522952,1.0647421
1570715570,-0.7445984,1.1905212,10.6158905,0.028198242,0.24354553,0.04109192,0.09728968,-0.020522952,1.0647421
1570715570,-0.7445984,1.1905212,10.6158905,0.028198242,0.24354553,0.04109192,0.09728968,-0.020522952,1.0647421
1570715570,-0.5925598,1.6753387,10.647018,0.37867737,-0.30187988,-0.0856781,-0.0324322,0.114899516,0.89160156
1570715570,-0.5566559,1.6753387,10.647018,0.37867737,-0.30187988,-0.0856781,-0.0324322,0.114899516,0.89160156
1570715570,-0.41778564,1.656189,10.667969,0.49372864,-0.3625946,-0.07609558,0.056058764,0.006468892,1.0587387
1570715570,-0.36332703,1.8082275,9.173981,0.5011902,-0.37963867,-0.075027466,-0.0012609661,-0.012596488,0.45107746
1570715570,-0.36332703,1.8082275,9.173981,0.5011902,-0.37963867,-0.075027466,-0.0012609661,-0.012596488,0.45107746
1570715570,-0.36332703,1.8082275,9.173981,0.5011902,-0.37963867,-0.075027466,-0.0012609661,-0.012596488,0.45107746
1570715570,-0.36332703,1.8082275,9.173981,0.5011902,-0.37963867,-0.075027466,-0.0012609661,-0.012596488,0.45107746
1570715570,-0.6296692,2.0422516,10.678146,-0.23065186,0.11038208,0.0592041,-0.08195233,0.06160879,1.0474949
1570715570,-0.6296692,2.0422516,10.678146,-0.23065186,0.11038208,0.0592041,-0.08195233,0.06160879,1.0474949
1570715570,-1.26474,0.9283447,9.718658,-0.1869812,-0.03768921,-0.0579834,-0.7785961,-0.019351006,0.21097183
1570715570,-1.26474,0.9283447,9.718658,-0.1869812,-0.03768921,-0.0579834,-0.7785961,-0.019351006,0.21097183
1570715570,-1.26474,0.9283447,9.718658,-0.1869812,-0.03768921,-0.0579834,-0.7785961,-0.019351006,0.21097183
1570715570,-1.26474,0.9283447,9.718658,-0.1869812,-0.03768921,-0.0579834,-0.7785961,-0.019351006,0.21097183
1570715570,0.41000366,1.6681671,11.285065,0.12194824,-0.09307861,0.0315094,-0.21006313,0.081594825,1.863863
1570715570,0.41000366,1.6681671,11.285065,0.12194824,-0.09307861,0.0315094,-0.21006313,0.081594825,1.863863
1570715570,-0.34655762,1.7932587,9.868301,0.19758606,-0.007858276,0.030441284,-0.012003183,0.07121527,0.20060349
1570715570,-0.34655762,1.7932587,9.868301,0.19758606,-0.007858276,0.030441284,-0.012003183,0.07121527,0.20060349
1570715570,-0.34655762,1.7932587,9.868301,0.19758606,-0.007858276,0.030441284,-0.012003183,0.07121527,0.20060349
1570715570,-0.34655762,1.7932587,9.868301,0.19758606,-0.007858276,0.030441284,-0.012003183,0.07121527,0.20060349
1570715570,-0.33099365,1.8237762,10.098145,0.17521667,0.16897583,-0.043060303,0.19220003,0.08671248,0.52938175
1570715570,-0.33099365,1.8237762,10.098145,0.17521667,0.16897583,-0.043060303,0.19220003,0.08671248,0.52938175
1570715570,-0.4692688,1.7262268,10.467453,0.05696106,0.20732117,0.07836914,-0.008148134,-0.0298599,0.20240879
1570715570,-0.4692688,1.7262268,10.467453,0.05696106,0.20732117,0.07836914,-0.008148134,-0.0298599,0.20240879
1570715570,-0.43693542,1.8333588,10.544662,-0.0058898926,0.32344055,0.100738525,0.120239675,-0.1074785,0.81340027
1570715570,-0.43693542,1.8333588,10.544662,-0.0058898926,0.32344055,0.100738525,0.120239675,-0.1074785,0.81340027
1570715571,-0.43693542,1.8333588,10.544662,-0.0058898926,0.32344055,0.100738525,0.120239675,-0.1074785,0.81340027
1570715571,-0.43693542,1.8333588,10.544662,-0.0058898926,0.32344055,0.100738525,0.120239675,-0.1074785,0.81340027
1570715571,-1.1516113,1.8567047,10.700287,0.64712524,0.47470093,0.27012634,0.19930077,-0.07155824,0.9720154
1570715571,-1.1713562,1.8668823,10.641632,0.6726837,0.47151184,0.28823853,0.19930077,-0.07155824,0.9720154
1570715571,-0.952301,2.222412,10.563812,0.80584717,0.5673828,0.40859985,0.43673337,-0.044573545,0.90698624
1570715571,-0.952301,2.222412,10.563812,0.80584717,0.5673828,0.40859985,0.43673337,-0.044573545,0.90698624
1570715571,-0.952301,2.222412,10.563812,0.80584717,0.5673828,0.40859985,0.43673337,-0.044573545,0.90698624
1570715571,-0.952301,2.222412,10.563812,0.80584717,0.5673828,0.40859985,0.43673337,-0.044573545,0.90698624
1570715571,-2.0530243,2.4534607,11.908157,-0.2381134,-0.34661865,-0.19007874,-0.12618327,-0.18564439,2.3691282
1570715571,-2.023697,2.502533,11.992554,-0.23065186,-0.25926208,-0.20179749,-0.12618327,-0.18564439,2.3691282
1570715571,-2.09552,2.8874054,9.7270355,-0.4149475,0.36497498,-0.16769409,0.1905489,-0.026108265,0.15874767
1570715571,-2.09552,2.8874054,9.7270355,-0.4149475,0.36497498,-0.16769409,0.1905489,-0.026108265,0.15874767
1570715571,-2.09552,2.8874054,9.7270355,-0.4149475,0.36497498,-0.16769409,0.1905489,-0.026108265,0.15874767
1570715571,-2.09552,2.8874054,9.7270355,-0.4149475,0.36497498,-0.16769409,0.1905489,-0.026108265,0.15874767
1570715571,-2.09552,2.8874054,9.7270355,-0.4149475,0.36497498,-0.16769409,0.1905489,-0.026108265,0.15874767
1570715571,-2.09552,2.8874054,9.7270355,-0.4149475,0.36497498,-0.16769409,0.1905489,-0.026108265,0.15874767
