time,ax,ay,az,gx,gy,gz,la_x,la_y,la_z,fox,foy,foz
1570715538,3.6542206,11.559509,7.1528625,-1.9594727,-1.0301666,-1.7378693,2.3728063,3.7011147,2.2436519
1570715538,-0.01966858,11.977295,9.199905,1.776413,-1.2027435,-3.7299194,0.098501325,1.7854261,4.0576234
1570715538,-2.005661,14.300873,3.2419434,4.513077,0.19700623,-3.3730621,-1.7053268,4.361887,-0.42206144
1570715538,-2.855606,13.388687,1.8963928,2.5892181,-1.222992,-0.16873169,-3.5448318,5.2371454,-1.7374194
1570715539,-2.069107,8.988144,3.8452759,1.4824066,-0.4197693,0.9178314,-1.8056035,0.1844387,2.815182
1570715539,-3.1022034,21.301514,2.9342804,2.3740234,-0.15771484,0.4384613,-4.7841845,15.196547,4.009835
1570715539,5.336151,10.209183,-3.27388,1.124466,-1.2293701,-0.44250488,3.9464762,0.4876318,-6.0222692
1570715539,1.4707184,12.427414,-4.0496063,-0.18260193,-0.12895203,-1.0614319,2.4540627,2.473795,-6.697202
1570715539,-3.3607788,16.119278,0.8118286,-1.3607941,-1.0759735,-2.210846,0.9279047,2.149191,-2.5422254
1570715539,-23.753403,28.832489,14.422867,-0.44039917,-1.3071442,-3.2494812,-7.4298096,3.793995,9.387372
1570715539,4.8824463,3.5987854,0.9099884,2.5199738,0.9629364,1.8542023,5.1723533,-8.208626,5.2350645
1570715539,5.933502,6.403595,-2.1282501,0.7793274,0.27903748,0.43099976,7.220167,-4.4783506,-2.035071
1570715539,4.251587,5.304657,-2.5795593,-1.0934143,-0.44960022,-0.8217468,5.3579545,-4.9498386,-1.5697566
1570715539,-1.6668854,4.1841736,2.6362,-1.1775665,-0.19500732,-0.6129608,0.9782609,-5.1381416,0.951123
1570715539,0.6064148,4.5157776,3.5029144,0.3340454,0.37171936,-1.2776794,0.9298334,-6.8209057,2.0033188
1570715539,-2.665268,16.296448,-4.8013763,-1.2734375,-2.8379211,-0.9921875,-2.1402817,0.6131954,0.27036786
1570715539,-6.042282,19.50827,6.6464996,-0.9677124,0.3589325,-1.1519775,-1.523248,6.5202656,5.864161
1570715539,-5.306076,16.286865,6.600998,-0.23480225,1.7480316,1.1330109,-5.408614,9.859638,1.4435782
1570715539,-0.9426422,7.962219,2.6745148,0.723938,-0.85121155,0.6845398,0.6182126,-3.5749598,1.3936856
1570715539,-3.2745972,9.975754,4.941818,1.3130188,-0.9449463,0.592926,-1.1064582,-0.54068756,3.2278242
1570715539,-0.99890137,8.406357,1.492981,1.760437,-0.1108551,0.7367401,0.2573471,-1.6014786,0.12008321
1570715539,-0.35006714,8.930679,-0.1877594,1.4632263,0.46972656,0.6749573,0.6815461,-1.5826197,-0.76960707
1570715539,-0.90911865,11.469727,-4.1968384,0.25201416,-0.15771484,-0.16447449,2.879634,1.3293886,-4.5531964
1570715539,-1.5914612,10.61261,2.8002167,-0.63534546,0.26306152,0.47894287,-1.3165106,0.47426987,1.0471721
1570715539,-0.006500244,4.2320557,6.4561615,1.7391357,-0.14494324,-0.34024048,2.3554826,-7.4767475,9.265932
1570715539,-2.45578,12.274185,-3.7192078,-0.18687439,2.010086,0.19451904,-1.6858034,2.4251595,-6.4249644
1570715539,-1.2119904,12.440582,1.540863,-0.6321411,-0.6147156,0.5183563,-0.2702303,2.3012705,1.6411757
1570715539,1.1187744,3.8968658,1.8652802,-0.74186707,-0.84161377,0.64086914,1.4339058,-3.7283974,0.3046866
1570715539,-3.7905426,5.382477,2.1729279,-0.13146973,0.15119934,1.5037231,-2.032438,-6.1896505,1.632106
1570715539,-0.0579834,6.7328033,-1.3226013,-0.55119324,0.56666565,3.635315,-0.943593,-3.491519,-2.182942
1570715539,0.1084137,7.7730865,3.4418488,-1.4982147,0.11817932,3.1389008,-1.5375739,-2.2631035,0.27076292
1570715539,-11.96434,40.02298,1.070404,-0.422287,0.8361664,3.6779327,-9.878769,27.733143,0.49119508
1570715539,11.395874,0.27085876,4.427063,0.56947327,3.8167877,0.36175537,12.986782,-4.6925163,2.6449285
1570715539,-0.67448425,14.219467,0.9291382,-0.17727661,0.101135254,-0.60443115,-2.3717208,1.8618927,-1.0647837
1570715539,3.0484924,10.145737,3.0216675,0.2871704,-0.5188446,0.093322754,0.5791602,0.25631332,1.2941579
1570715539,2.5816193,10.169678,1.7695007,0.11993408,0.3131256,0.060287476,-0.097946644,0.4747734,0.20819724
1570715539,2.947937,9.480148,2.710434,0.04322815,-0.13002014,-0.115478516,0.1439488,-1.2112913,0.98646915
1570715540,3.212494,9.331711,2.1741333,0.19450378,-0.46452332,-0.07606506,0.50095534,-0.4040184,0.48587942
1570715540,2.3206635,10.231934,1.9047852,0.0048828125,0.0382843,-0.08351135,-0.29205012,0.07340145,0.14221656
1570715540,2.5361328,9.9865265,1.4271393,-0.010040283,-0.27383423,0.003829956,-0.34714317,0.38804913,-0.23670018
1570715540,2.900055,10.39473,1.9311218,-0.033462524,-0.1662445,-0.040908813,0.09818649,0.47566414,0.20884836
1570715540,2.6965485,10.128983,1.9071655,-0.007904053,-0.0639801,-0.02279663,0.0374403,0.30649567,0.30507374
1570715540,2.607956,10.130173,1.8880157,-0.030273438,-0.08421326,-0.018539429,-0.09872675,0.28821373,0.25842857
1570715540,2.3805084,10.085876,2.2279968,-0.05050659,-0.046936035,-0.0057525635,-0.24518037,0.16034889,0.6329446
1570715540,2.4128418,10.306152,1.8963928,-0.02708435,-0.007522583,-0.031326294,-0.31698084,0.42183208,0.29337275
1570715540,2.6091614,10.230728,2.047226,-0.007904053,-0.008590698,-0.04197693,-0.13673615,0.37238503,0.35087633
1570715540,2.60318,10.073914,2.2184143,-0.028137207,0.009521484,-0.029190063,-0.09817052,0.19261742,0.53824294
1570715540,2.4762878,10.1098175,2.1418,-0.021759033,-0.0021972656,-0.018539429,-0.19940996,0.24613094,0.46769023
1570715540,2.1937714,10.461777,2.2986298,-0.0057678223,-0.02456665,-0.033447266,-0.49167562,0.47735596,0.5460156
1570715540,2.595993,10.221161,2.196869,-0.02281189,-0.07356262,-0.03665161,-0.13400578,0.37576008,0.47182608
1570715540,2.406845,10.099045,2.2399597,0.016601562,-0.040542603,-0.028121948,-0.1520276,0.19717503,0.50041187
1570715540,2.0453186,10.291779,2.370453,0.040039062,-0.006454468,-0.038772583,-0.5535281,0.34810925,0.6128838
1570715540,2.2212982,10.245102,2.449463,-0.0015106201,0.014846802,-0.043045044,-0.38659644,0.32813835,0.6840919
1570715540,2.3086853,10.172073,2.3692474,0.0059509277,-0.0021972656,-0.028121948,-0.2887013,0.1837883,0.67280304
1570715540,2.2691803,10.35762,2.3524933,0.0059509277,0.023376465,-0.02279663,-0.29840946,0.335742,0.5679754
1570715540,2.3613586,10.298965,2.3333435,-0.012161255,-0.04800415,-0.0046844482,-0.18197584,0.31345844,0.5748843
1570715540,2.0022278,10.368393,2.426712,0.036834717,-0.06930542,0.019805908,-0.4728737,0.34971333,0.6182344
1570715540,1.8047028,10.229538,2.4626312,0.079452515,-0.052261353,0.009155273,-0.75674796,0.21795654,0.69315255
1570715540,2.2069397,10.151718,2.6050873,0.07518005,-0.030960083,0.016616821,-0.2991016,0.18390083,0.7412858
1570715540,2.2500305,10.164886,2.4518585,0.07199097,-0.029891968,0.028335571,-0.2519281,0.15086842,0.6785004
1570715540,2.1243286,10.077499,2.177719,0.08584595,0.0063323975,0.02407837,-0.39223742,0.035224915,0.40492594
1570715540,2.6534576,10.143341,1.7335968,0.036834717,-0.038406372,0.0027618408,0.09994054,-0.0059137344,-0.009068847
1570715540,2.5612793,10.540787,1.5396576,0.014465332,-0.04373169,0.04963684,0.08241558,0.4970379,-0.23927104
1570715540,2.3852997,10.33728,1.3074188,0.032577515,-0.028823853,0.05709839,-0.16635084,0.26841354,-0.4750005
1570715540,2.2380524,10.604233,1.6677551,0.062408447,-0.038406372,0.013427734,-0.28874302,0.54821205,-0.22883701
1570715540,2.3912811,10.404312,1.7910614,0.12098694,-0.070373535,-0.0057525635,-0.21160936,0.3565874,0.09673989
1570715540,2.6761932,10.249878,2.1394043,0.14442444,-0.10020447,-0.0025634766,0.11922979,0.25745678,0.37428713
1570715540,2.5995789,10.000885,2.5188904,0.14337158,-0.12576294,-0.007888794,0.009901285,-0.0805006,0.79458904
1570715540,2.6965485,9.994904,2.0400543,0.12738037,-0.14920044,0.008102417,0.09245801,-0.14784336,0.60309064
1570715540,2.6378937,10.140945,1.9107666,0.07199097,-0.15878296,0.020874023,0.08224869,0.07618046,0.3896556
1570715540,2.2919312,10.142151,1.7659149,0.05281067,-0.17689514,0.025146484,-0.2621572,0.056145668,0.3106295
1570715541,2.2212982,10.51445,1.5336761,0.0592041,-0.10232544,0.015548706,-0.40929198,0.44680405,0.011120081
1570715541,2.3062897,10.339661,1.4833984,0.058135986,-0.06716919,0.009155273,-0.36208344,0.3033495,-0.0155899525
1570715541,2.4654999,10.319321,1.2930603,0.08370972,-0.023498535,0.02407837,-0.21485043,0.18190002,-0.05834472
1570715541,2.453537,10.363617,1.5648041,0.0975647,0.018051147,0.036849976,-0.18501806,0.26780796,0.12665415
1570715541,2.4116364,10.297775,1.5600128,0.0826416,0.02444458,0.029403687,-0.17502975,0.18689346,0.14263523
1570715541,2.4990234,10.272629,1.6270447,0.10714722,0.065979004,0.021942139,-0.18577075,0.18555546,0.25703406
1570715541,2.671402,10.2235565,1.7096558,0.0975647,0.054260254,0.0059661865,-0.038254976,0.1825819,0.33077884
1570715541,2.8521729,10.154114,1.7371826,0.0826416,0.02444458,0.011291504,0.14833903,0.053590775,0.33927786
1570715541,2.8557587,10.218765,1.6450043,0.06666565,0.032958984,0.019805908,0.18821526,0.11825466,0.33025336
1570715541,2.809082,10.1888275,1.5528259,0.0549469,-0.01071167,0.021942139,0.11744356,0.07360268,0.2834388
1570715541,2.6737976,10.2043915,1.4510803,0.036834717,-0.050125122,0.04005432,0.038452864,0.0774641,0.16051114
1570715541,2.631897,10.354034,1.5001526,0.025115967,-0.07463074,0.016616821,-0.13747501,0.2403984,0.25380838
1570715541,2.7911224,10.245102,1.413971,0.009140015,-0.04800415,0.008102417,0.037169218,0.1006012,0.12311077
1570715541,2.6091614,10.312134,1.3708649,0.016601562,-0.038406372,0.018753052,-0.04576111,0.15505123,0.082867146
1570715541,2.422409,10.364807,1.4786072,0.029388428,-0.030960083,0.008102417,-0.26358938,0.22024441,0.20363033
1570715541,2.5708466,10.287003,1.3205872,0.04109192,-0.026687622,0.008102417,-0.12686396,0.110569954,0.07403815
1570715541,2.592392,10.340866,1.2978516,0.056015015,-0.006454468,0.010223389,-0.09821653,0.1920309,0.014374018
1570715541,2.5971832,10.399521,1.3612976,0.050689697,0.018051147,-0.0014953613,-0.118863344,0.17885399,0.08126497
1570715541,2.7767487,10.282211,1.3636932,0.058135986,0.032958984,-0.0014953613,0.07860112,0.13588619,0.030396461
1570715541,2.798294,10.225937,1.4810028,0.07199097,0.004196167,0.017684937,0.09877539,0.0049333572,0.27112103
1570715541,2.500229,10.201996,1.4857941,0.04536438,0.02230835,0.019805908,-0.081125975,0.031555176,0.23438132
1570715541,2.62352,10.200806,1.4881897,0.0315094,0.0010070801,0.0017089844,-0.06636119,0.017261505,0.28414083
1570715541,2.754013,10.174469,1.3529205,0.01020813,0.016983032,0.016616821,0.09647703,0.006890297,0.1590929
1570715541,2.7097168,10.290588,1.3720703,0.0038146973,-0.023498535,0.014480591,0.0036799908,0.08275509,0.20882356
1570715541,2.769577,10.2834015,1.3050385,0.0016784668,-0.016036987,0.015548706,0.048536777,0.11024189,0.09277856
1570715541,2.5900116,10.249878,1.3696747,0.013397217,-0.04373169,0.013427734,-0.04081416,0.07518768,0.108763814
1570715541,2.6103516,10.267838,1.3565063,0.022994995,-0.046936035,0.010223389,-0.08781767,0.10394001,0.12762666
1570715541,2.5349426,10.328888,1.3457336,0.020858765,-0.026687622,0.010223389,-0.14614558,0.10256004,0.079925776
1570715541,2.4319916,10.349243,1.3624878,0.018722534,-0.021362305,0.0070343018,-0.27187157,0.12994671,0.1516335
1570715541,2.5469055,10.358826,1.3205872,0.020858765,-0.014968872,0.0027618408,-0.21706581,0.107058525,0.06773758
1570715541,2.7528076,10.326492,1.2511597,0.016601562,-0.06291199,-0.0025634766,0.04181862,0.08988953,0.018363357
1570715541,2.7791443,10.285797,1.2212372,0.01234436,-0.05545044,0.008102417,0.10971713,0.041708946,-0.01571846
1570715541,2.6139526,10.221161,1.1936951,0.029388428,-0.033081055,0.012359619,-0.026676893,0.03970146,0.054760695
1570715542,2.671402,10.351639,1.3265839,0.040039062,-0.019241333,0.0048980713,-0.030306816,0.08683014,0.071764946
1570715542,2.7133026,10.219955,1.3912201,0.034713745,-0.02243042,0.009155273,-0.0021512508,0.04738617,0.12069416
1570715542,2.6307068,10.1996,1.3265839,0.034713745,-0.011779785,0.015548706,-0.07782078,-0.032863617,0.09594083
1570715542,2.6654205,10.19841,1.3110199,0.017669678,-0.03201294,0.0048980713,-0.06080866,-0.028595924,0.13521814
1570715542,2.7755585,10.17926,1.2176361,-4.4250488E-4,-0.039474487,-4.272461E-4,0.06817031,-0.052827835,0.016165853
1570715542,2.7324677,10.269043,1.2727051,-0.015365601,-0.054397583,-0.0025634766,0.08102846,0.039305687,0.050296187
1570715542,2.777954,10.267838,1.1709595,-0.01109314,-0.03414917,0.0070343018,0.00969696,0.02015686,0.064620376
1570715542,2.7156982,10.321716,1.2607422,-0.019622803,-0.027755737,0.012359619,0.0020062923,0.09119606,0.049599648
1570715542,2.7133026,10.304947,1.1841278,-0.020690918,-0.053329468,-4.272461E-4,-0.0063433647,0.05915737,0.02483511
1570715542,2.671402,10.285797,1.2032776,-0.014297485,-0.042678833,-0.0025634766,-0.03613162,0.04255104,0.024447322
1570715542,2.666626,10.266647,1.2188416,-0.008972168,-0.042678833,-0.0025634766,-0.12799597,0.011207581,0.055311322
1570715542,2.7803497,10.369598,1.1625824,-0.0025787354,-0.030960083,0.0027618408,0.040371895,0.07641983,-0.0024951696
1570715542,2.7049255,10.319321,1.2104645,0.0016784668,-0.035217285,0.0017089844,-0.045271397,0.017536163,-0.035678387
1570715542,2.7252808,10.207993,1.303833,0.002746582,-0.038406372,-0.0046844482,-0.030333996,-0.019528389,0.09625304
1570715542,2.6965485,10.344452,1.2595367,-0.0025787354,-0.019241333,0.0017089844,0.0074822903,0.042102814,0.040204883
1570715542,2.6558533,10.313324,1.264328,6.2561035E-4,-0.023498535,-4.272461E-4,-0.06734109,0.077617645,0.06647909
1570715542,2.698944,10.247498,1.2128601,0.0016784668,-0.030960083,6.4086914E-4,-0.0121331215,-0.032913208,0.12184429
1570715542,2.6881714,10.235519,1.3481293,0.011276245,-0.046936035,-0.0014953613,-0.02916789,-0.038546562,0.17302418
1570715542,2.647461,10.310944,1.1661682,-0.0068359375,-0.0053863525,0.009155273,-0.06487632,0.041521072,0.019853354
1570715542,2.584015,10.185242,1.2475739,-0.008972168,-0.019241333,0.0017089844,-0.17581058,-9.5272064E-4,0.034861207
1570715542,2.6737976,10.2235565,1.240387,-0.023880005,-0.0011291504,-0.0046844482,-0.04917407,-0.004565239,0.043804646
1570715542,2.6522522,10.351639,1.1565857,-0.026016235,-0.008590698,0.0017089844,-0.069707155,0.08503151,-0.032480955
1570715542,2.7013397,10.248688,1.2020874,-0.021759033,-0.009643555,6.4086914E-4,-0.01501441,0.057868004,0.0015472174
1570715542,2.6797943,10.297775,1.2667236,-0.030273438,0.005264282,0.0048980713,-0.018296242,0.012119293,-0.0047519207
1570715542,2.7480164,10.33728,1.1936951,-0.033462524,-0.011779785,-4.272461E-4,0.030069828,0.054190636,-0.065193534
1570715542,2.6438751,10.209183,1.2966461,-0.052642822,-0.0128479,-0.0014953613,-0.07555199,-0.021683693,0.006669998
1570715542,2.7468262,10.25827,1.1565857,-0.056900024,-0.023498535,0.0048980713,0.04526806,-0.002579689,-0.10876906
1570715542,2.6486664,10.336075,1.2332001,-0.05796814,-0.009643555,0.008102417,-0.059373856,0.079787254,-0.040685177
1570715542,2.7252808,10.303757,1.2511597,-0.04838562,-0.020309448,0.0048980713,0.029652119,0.055757523,-0.06727314
1570715542,2.7085114,10.342056,1.2990417,-0.037734985,-6.1035156E-5,0.0070343018,-6.77824E-4,0.06713104,-0.030835986
1570715542,2.7192993,10.418671,1.3804474,-0.014297485,-0.020309448,0.0027618408,-0.017581463,0.16332531,0.077647924
1570715542,2.6857758,10.215164,1.3421478,-0.004714966,-0.013916016,0.003829956,-0.012834072,-0.14243126,0.026462674
1570715542,2.690567,10.302551,1.3385468,-0.0068359375,-0.0043182373,0.0070343018,-0.022934198,0.035988808,-0.06494343
1570715543,2.6366882,10.222351,1.6521912,-0.007904053,-0.03201294,0.0048980713,-0.050172806,-0.034521103,0.24013758
1570715543,2.663025,10.169678,1.5229034,-0.030273438,0.0063323975,0.008102417,-0.053359747,-0.12100792,0.17848647
1570715543,2.7468262,10.215164,1.4462891,-0.020690918,0.0063323975,0.0027618408,0.053516388,-0.08896923,0.10616386
1570715543,2.8114624,10.348053,1.3708649,-0.02494812,-0.019241333,-0.0025634766,0.083824635,0.1124382,0.066064
1570715543,2.7049255,10.270233,1.3720703,-0.021759033,-0.01071167,0.0059661865,0.01246357,0.011522293,-0.0015642643
1570715543,2.7360535,10.294174,1.4091797,-0.0036468506,-0.008590698,0.0027618408,0.0063974857,0.005800247,0.044136405
1570715543,2.7623901,10.33847,1.3816528,-0.0036468506,-6.1035156E-5,0.003829956,0.015420198,0.09163189,0.019816518
1570715543,2.6007843,10.17926,1.4187622,-0.01322937,-0.006454468,0.0017089844,-0.12687564,-0.048848152,0.031975985
1570715543,2.7947083,10.247498,1.3780518,-0.012161255,-0.009643555,0.0027618408,0.038714647,-0.06854439,0.0073952675
1570715543,2.6809845,10.302551,1.3696747,-0.01109314,0.027633667,0.015548706,-0.03128314,0.029105186,-0.04684329
1570715543,2.6821747,10.25827,1.3816528,-0.01322937,-6.1035156E-5,-0.0014953613,-0.05612898,0.0012464523,-0.0035995245
1570715543,2.8078766,10.292984,1.3110199,-0.01109314,0.016983032,0.008102417,0.06864405,0.033898354,-0.08713949
1570715543,2.7169037,10.240311,1.3349609,-0.015365601,0.0074005127,0.008102417,-0.020759344,0.011780739,-0.09777057
1570715543,2.7097168,10.324112,1.3684845,-0.012161255,-0.007522583,6.4086914E-4,-0.044867516,0.045776367,-0.00441885
1570715543,2.758789,10.241501,1.319397,-0.0057678223,0.013793945,0.0017089844,0.044919968,-0.0013751984,-0.05297041
1570715543,2.690567,10.319321,1.4283295,-0.019622803,0.023376465,0.0048980713,0.02435708,0.10958576,-0.058007002
1570715543,2.7803497,10.227142,1.4857941,-0.0025787354,-0.018173218,0.0048980713,0.0019938946,-0.040323257,0.1240325
1570715543,2.7276764,10.196014,1.3876343,-0.016418457,0.005264282,0.0070343018,-0.008610725,-0.037438393,-0.045829535
1570715543,2.754013,10.2235565,1.4091797,-0.02494812,-0.0021972656,-4.272461E-4,0.011021376,-0.056303978,-0.009757996
1570715543,2.7671814,10.294174,1.4055939,-0.019622803,0.0031280518,0.0017089844,0.017860174,0.03449726,0.0066770315
1570715543,2.7288666,10.29538,1.327774,-0.01109314,0.01272583,0.003829956,-0.02392888,0.0587101,-0.097510815
1570715543,2.7432404,10.261856,1.461853,-0.01109314,0.0063323975,0.0027618408,-0.0068223476,0.028567314,0.0602566
1570715543,2.7839355,10.212769,1.4786072,-0.0068359375,0.018051147,0.0027618408,-0.002860546,-0.0118608475,0.043773174
1570715543,2.7575989,10.273834,1.4690399,0.0059509277,-0.0011291504,-0.003616333,0.030571222,0.007826805,0.061822176
1570715543,2.7911224,10.269043,1.5576172,0.01020813,0.0105896,-4.272461E-4,0.06855869,0.026496887,0.06571984
1570715543,2.714508,10.207993,1.5600128,0.0048828125,0.02017212,-4.272461E-4,-0.023127079,-0.035178185,0.10362649
1570715543,2.7611847,10.121796,1.4522705,0.002746582,0.004196167,-4.272461E-4,0.008261442,-0.10574722,0.065715075
1570715543,2.698944,10.3229065,1.4079742,-0.004714966,0.011657715,0.0017089844,-0.021374702,0.11414337,-0.023820877
1570715543,2.6187286,10.287003,1.4091797,-0.008972168,0.015914917,-0.003616333,-0.109072685,-0.0054044724,-0.022100806
1570715543,2.7623901,10.260666,1.4331207,0.0016784668,0.0105896,-4.272461E-4,0.038924694,0.050551414,-0.032513976
1570715543,2.7312622,10.273834,1.4319305,0.009140015,0.015914917,0.0017089844,0.03211689,0.05670166,-0.03305328
1570715543,2.765976,10.219955,1.5300903,-0.012161255,-0.0021972656,6.4086914E-4,0.021645308,0.029231071,0.012814999
1570715543,2.7121124,10.287003,1.3313599,-0.008972168,-0.0021972656,0.012359619,0.02117896,-0.0057086945,-0.068588495
1570715543,2.6259155,10.210388,1.3600922,-0.014297485,-0.0053863525,-4.272461E-4,-0.11179495,-0.009088516,-0.10063553
1570715544,2.7121124,10.227142,1.4450989,-0.01109314,-0.006454468,-0.0046844482,-0.025152206,-0.03187561,0.044728518
1570715544,2.7169037,10.31572,1.382843,-0.007904053,0.0074005127,-4.272461E-4,0.029449701,0.034638405,-0.047148824
1570715544,2.7408447,10.330093,1.5312805,-0.004714966,-0.0021972656,0.0017089844,0.008747578,0.042428017,0.028629541
1570715544,2.7013397,10.215164,1.5037537,-0.01109314,0.021240234,0.0017089844,-0.020578623,-0.009757042,0.014936447
1570715544,2.797104,10.2235565,1.5133209,-0.012161255,-0.0011291504,-0.0046844482,0.018431902,-0.01467514,0.07386017
1570715544,2.8078766,10.261856,1.5181122,-0.0068359375,0.005264282,0.0048980713,0.068056345,0.024313927,0.054245472
1570715544,2.690567,10.203201,1.5396576,-0.0036468506,-0.0032653809,-4.272461E-4,-0.07526302,-0.0459795,0.06797385
1570715544,2.8018951,10.272629,1.4917755,-0.0025787354,0.0031280518,0.0017089844,0.050345898,0.0030794144,0.029711604
1570715544,2.7169037,10.247498,1.4833984,-0.008972168,0.0105896,0.0048980713,-0.0016047955,0.003033638,0.053508162
1570715544,2.7767487,10.246292,1.532486,-0.012161255,-0.020309448,-0.0057525635,-0.02816248,-0.035787582,0.053596854
1570715544,2.8126678,10.310944,1.437912,-0.0025787354,-0.0053863525,0.0017089844,0.08604169,0.053216934,-0.026218653
1570715544,2.6378937,10.248688,1.5061493,0.009140015,-0.009643555,-4.272461E-4,-0.08517194,0.041503906,-0.003150344
1570715544,2.805481,10.246292,1.4845886,0.01234436,-0.017105103,-0.003616333,-0.021883965,-0.021369934,0.08255386
1570715544,2.7001343,10.174469,1.5037537,0.009140015,0.008453369,0.0027618408,-0.015869617,-0.051608086,0.019884348
1570715544,2.5983887,10.253479,1.5073395,0.0016784668,-0.006454468,-4.272461E-4,-0.09975815,0.021094322,0.006489396
1570715544,2.805481,10.270233,1.3924255,-4.4250488E-4,-0.0021972656,-4.272461E-4,0.044960022,-0.037937164,-0.067640185
1570715544,2.5995789,10.246292,1.461853,-0.004714966,0.0074005127,0.003829956,-0.048864603,-0.027692795,-0.03862226
1570715544,2.7324677,10.261856,1.3972015,-0.0057678223,-0.0043182373,-0.0014953613,-0.018242598,0.040852547,-0.0396446
1570715544,2.7707672,10.297775,1.4498749,0.007003784,0.008453369,0.0027618408,0.030584335,0.07881546,-0.07736516
1570715544,2.7611847,10.25827,1.5061493,0.011276245,-0.009643555,-0.0057525635,0.014646769,0.0088329315,0.0041600466
1570715544,2.8186493,10.300171,1.4786072,0.02192688,-0.016036987,-0.0068206787,0.04785204,0.021611214,0.026116967
1570715544,2.726471,10.128983,1.5504303,0.020858765,0.0010070801,0.0017089844,0.0069606304,-0.07946777,0.07069957
1570715544,2.730072,10.182846,1.5432587,0.002746582,-0.019241333,-0.0046844482,-0.04329753,-0.1071167,0.092476845
1570715544,2.7875214,10.339661,1.4810028,0.002746582,0.0010070801,-4.272461E-4,0.06738496,0.043914795,0.04842186
1570715544,2.726471,10.327698,1.4486847,0.013397217,0.0010070801,-0.0025634766,0.020664215,0.05379677,-0.05614996
1570715544,2.8126678,10.25827,1.4750214,0.024047852,-0.014968872,-0.0068206787,0.04126048,3.1471252E-4,0.02832365
1570715544,2.7169037,10.312134,1.4391022,0.028320312,0.016983032,6.4086914E-4,-0.0013782978,0.032526016,-0.05380881
1570715544,2.627121,10.167282,1.4869843,0.016601562,0.004196167,-0.0068206787,-0.11432481,-0.045632362,0.002171874
1570715544,2.7719574,10.265442,1.3936157,0.009140015,0.013793945,-0.0025634766,0.031802177,-0.06597996,0.04141569
1570715544,2.695343,10.213974,1.4642487,0.0059509277,-0.0021972656,-0.0057525635,-0.034450293,-0.066511154,0.074935555
1570715544,2.7803497,10.279816,1.3170013,0.0016784668,-0.0053863525,-4.272461E-4,0.032215595,0.028816223,-0.03951907
1570715544,2.7013397,10.215164,1.3852386,0.0059509277,-0.01071167,-0.0057525635,0.0064160824,-0.033821106,-0.088617325
1570715544,2.758789,10.224747,1.3852386,-0.0025787354,-0.011779785,-0.003616333,0.07398772,-0.024475098,-0.031618237
1570715545,2.6678162,10.291779,1.3469238,-0.0068359375,-0.019241333,-0.0057525635,-0.0385859,0.01342392,-0.08369923
1570715545,2.8006897,10.267838,1.3972015,-0.01322937,-0.0032653809,-0.003616333,0.04633522,0.0044555664,-0.01955986
1570715545,2.6618347,10.240311,1.4008026,-0.01109314,-6.1035156E-5,0.003829956,-0.029088974,-0.017430305,-0.0016922951
1570715545,2.6618347,10.240311,1.4008026,-0.01109314,-6.1035156E-5,0.003829956,-0.029088974,-0.017430305,-0.0016922951
1570715545,2.6618347,10.240311,1.4008026,-0.01109314,-6.1035156E-5,0.003829956,-0.029088974,-0.017430305,-0.0016922951
1570715545,2.6618347,10.240311,1.4008026,-0.01109314,-6.1035156E-5,0.003829956,-0.029088974,-0.017430305,-0.0016922951
1570715545,2.6618347,10.240311,1.4008026,-0.01109314,-6.1035156E-5,0.003829956,-0.029088974,-0.017430305,-0.0016922951
1570715545,2.6618347,10.240311,1.4008026,-0.01109314,-6.1035156E-5,0.003829956,-0.029088974,-0.017430305,-0.0016922951
1570715545,2.6618347,10.240311,1.4008026,-0.01109314,-6.1035156E-5,0.003829956,-0.029088974,-0.017430305,-0.0016922951
1570715545,2.6618347,10.240311,1.4008026,-0.01109314,-6.1035156E-5,0.003829956,-0.029088974,-0.017430305,-0.0016922951
1570715545,2.6618347,10.240311,1.4008026,-0.01109314,-6.1035156E-5,0.003829956,-0.029088974,-0.017430305,-0.0016922951
1570715545,2.6618347,10.240311,1.4008026,-0.01109314,-6.1035156E-5,0.003829956,-0.029088974,-0.017430305,-0.0016922951
1570715545,2.6582336,10.213974,1.6342316,0.013397217,-0.014968872,-0.0014953613,-0.080616474,-0.0476408,0.15238929
1570715545,2.6881714,10.292984,1.4941711,0.002746582,-0.0053863525,0.009155273,-0.048991203,0.03182125,0.053047538
1570715549,2.6881714,10.292984,1.4941711,0.002746582,-0.0053863525,0.009155273,-0.048991203,0.03182125,0.053047538
1570715549,2.6881714,10.292984,1.4941711,0.002746582,-0.0053863525,0.009155273,-0.048991203,0.03182125,0.053047538
1570715549,2.6881714,10.292984,1.4941711,0.002746582,-0.0053863525,0.009155273,-0.048991203,0.03182125,0.053047538
1570715549,2.6881714,10.292984,1.4941711,0.002746582,-0.0053863525,0.009155273,-0.048991203,0.03182125,0.053047538
1570715549,2.6881714,10.292984,1.4941711,0.002746582,-0.0053863525,0.009155273,-0.048991203,0.03182125,0.053047538
1570715549,2.6881714,10.292984,1.4941711,0.002746582,-0.0053863525,0.009155273,-0.048991203,0.03182125,0.053047538
1570715549,2.6881714,10.292984,1.4941711,0.002746582,-0.0053863525,0.009155273,-0.048991203,0.03182125,0.053047538
1570715549,2.6881714,10.292984,1.4941711,0.002746582,-0.0053863525,0.009155273,-0.048991203,0.03182125,0.053047538
1570715549,2.6881714,10.292984,1.4941711,0.002746582,-0.0053863525,0.009155273,-0.048991203,0.03182125,0.053047538
1570715549,2.6881714,10.292984,1.4941711,0.002746582,-0.0053863525,0.009155273,-0.048991203,0.03182125,0.053047538
1570715549,2.6881714,10.292984,1.4941711,0.002746582,-0.0053863525,0.009155273,-0.048991203,0.03182125,0.053047538
1570715549,2.6881714,10.292984,1.4941711,0.002746582,-0.0053863525,0.009155273,-0.048991203,0.03182125,0.053047538
1570715549,2.6881714,10.292984,1.4941711,0.002746582,-0.0053863525,0.009155273,-0.048991203,0.03182125,0.053047538
1570715549,2.6881714,10.292984,1.4941711,0.002746582,-0.0053863525,0.009155273,-0.048991203,0.03182125,0.053047538
1570715549,2.6881714,10.292984,1.4941711,0.002746582,-0.0053863525,0.009155273,-0.048991203,0.03182125,0.053047538
1570715549,2.6881714,10.292984,1.4941711,0.002746582,-0.0053863525,0.009155273,-0.048991203,0.03182125,0.053047538
1570715549,2.6881714,10.292984,1.4941711,0.002746582,-0.0053863525,0.009155273,-0.048991203,0.03182125,0.053047538
1570715549,2.6881714,10.292984,1.4941711,0.002746582,-0.0053863525,0.009155273,-0.048991203,0.03182125,0.053047538
1570715549,2.6881714,10.292984,1.4941711,0.002746582,-0.0053863525,0.009155273,-0.048991203,0.03182125,0.053047538
1570715549,2.6881714,10.292984,1.4941711,0.002746582,-0.0053863525,0.009155273,-0.048991203,0.03182125,0.053047538
1570715549,2.6881714,10.292984,1.4941711,0.002746582,-0.0053863525,0.009155273,-0.048991203,0.03182125,0.053047538
1570715549,2.6881714,10.292984,1.4941711,0.002746582,-0.0053863525,0.009155273,-0.048991203,0.03182125,0.053047538
1570715549,2.6881714,10.292984,1.4941711,0.002746582,-0.0053863525,0.009155273,-0.048991203,0.03182125,0.053047538
1570715549,2.6881714,10.292984,1.4941711,0.002746582,-0.0053863525,0.009155273,-0.048991203,0.03182125,0.053047538
1570715549,2.6881714,10.292984,1.4941711,0.002746582,-0.0053863525,0.009155273,-0.048991203,0.03182125,0.053047538
1570715549,2.6881714,10.292984,1.4941711,0.002746582,-0.0053863525,0.009155273,-0.048991203,0.03182125,0.053047538
1570715549,2.6881714,10.292984,1.4941711,0.002746582,-0.0053863525,0.009155273,-0.048991203,0.03182125,0.053047538
1570715549,2.6881714,10.292984,1.4941711,0.002746582,-0.0053863525,0.009155273,-0.048991203,0.03182125,0.053047538
1570715549,2.6881714,10.292984,1.4941711,0.002746582,-0.0053863525,0.009155273,-0.048991203,0.03182125,0.053047538
1570715549,2.6881714,10.292984,1.4941711,0.002746582,-0.0053863525,0.009155273,-0.048991203,0.03182125,0.053047538
1570715549,2.6881714,10.292984,1.4941711,0.002746582,-0.0053863525,0.009155273,-0.048991203,0.03182125,0.053047538
1570715549,2.6881714,10.292984,1.4941711,0.002746582,-0.0053863525,0.009155273,-0.048991203,0.03182125,0.053047538
1570715549,2.6881714,10.292984,1.4941711,0.002746582,-0.0053863525,0.009155273,-0.048991203,0.03182125,0.053047538
1570715549,2.6881714,10.292984,1.4941711,0.002746582,-0.0053863525,0.009155273,-0.048991203,0.03182125,0.053047538
1570715549,2.6881714,10.292984,1.4941711,0.002746582,-0.0053863525,0.009155273,-0.048991203,0.03182125,0.053047538
1570715549,2.6881714,10.292984,1.4941711,0.002746582,-0.0053863525,0.009155273,-0.048991203,0.03182125,0.053047538
1570715549,2.6881714,10.292984,1.4941711,0.002746582,-0.0053863525,0.009155273,-0.048991203,0.03182125,0.053047538
1570715549,2.6881714,10.292984,1.4941711,0.002746582,-0.0053863525,0.009155273,-0.048991203,0.03182125,0.053047538
1570715549,2.6881714,10.292984,1.4941711,0.002746582,-0.0053863525,0.009155273,-0.048991203,0.03182125,0.053047538
1570715549,2.6881714,10.292984,1.4941711,0.002746582,-0.0053863525,0.009155273,-0.048991203,0.03182125,0.053047538
1570715549,2.6881714,10.292984,1.4941711,0.002746582,-0.0053863525,0.009155273,-0.048991203,0.03182125,0.053047538
1570715549,2.6881714,10.292984,1.4941711,0.002746582,-0.0053863525,0.009155273,-0.048991203,0.03182125,0.053047538
1570715549,2.6881714,10.292984,1.4941711,0.002746582,-0.0053863525,0.009155273,-0.048991203,0.03182125,0.053047538
1570715549,2.6881714,10.292984,1.4941711,0.002746582,-0.0053863525,0.009155273,-0.048991203,0.03182125,0.053047538
1570715549,2.6881714,10.292984,1.4941711,0.002746582,-0.0053863525,0.009155273,-0.048991203,0.03182125,0.053047538
1570715549,2.6881714,10.292984,1.4941711,0.002746582,-0.0053863525,0.009155273,-0.048991203,0.03182125,0.053047538
1570715549,2.6881714,10.292984,1.4941711,0.002746582,-0.0053863525,0.009155273,-0.048991203,0.03182125,0.053047538
1570715549,2.6881714,10.292984,1.4941711,0.002746582,-0.0053863525,0.009155273,-0.048991203,0.03182125,0.053047538
1570715549,2.6881714,10.292984,1.4941711,0.002746582,-0.0053863525,0.009155273,-0.048991203,0.03182125,0.053047538
1570715549,2.6881714,10.292984,1.4941711,0.002746582,-0.0053863525,0.009155273,-0.048991203,0.03182125,0.053047538
1570715549,2.6881714,10.292984,1.4941711,0.002746582,-0.0053863525,0.009155273,-0.048991203,0.03182125,0.053047538
1570715549,2.6881714,10.292984,1.4941711,0.002746582,-0.0053863525,0.009155273,-0.048991203,0.03182125,0.053047538
1570715549,2.6881714,10.292984,1.4941711,0.002746582,-0.0053863525,0.009155273,-0.048991203,0.03182125,0.053047538
1570715549,2.6881714,10.292984,1.4941711,0.002746582,-0.0053863525,0.009155273,-0.048991203,0.03182125,0.053047538
1570715549,2.6881714,10.292984,1.4941711,0.002746582,-0.0053863525,0.009155273,-0.048991203,0.03182125,0.053047538
1570715549,2.6881714,10.292984,1.4941711,0.002746582,-0.0053863525,0.009155273,-0.048991203,0.03182125,0.053047538
1570715549,2.6881714,10.292984,1.4941711,0.002746582,-0.0053863525,0.009155273,-0.048991203,0.03182125,0.053047538
1570715549,2.6881714,10.292984,1.4941711,0.002746582,-0.0053863525,0.009155273,-0.048991203,0.03182125,0.053047538
1570715549,2.6881714,10.292984,1.4941711,0.002746582,-0.0053863525,0.009155273,-0.048991203,0.03182125,0.053047538
1570715549,2.6881714,10.292984,1.4941711,0.002746582,-0.0053863525,0.009155273,-0.048991203,0.03182125,0.053047538
1570715549,2.6881714,10.292984,1.4941711,0.002746582,-0.0053863525,0.009155273,-0.048991203,0.03182125,0.053047538
1570715549,2.6881714,10.292984,1.4941711,0.002746582,-0.0053863525,0.009155273,-0.048991203,0.03182125,0.053047538
1570715549,2.6881714,10.292984,1.4941711,0.002746582,-0.0053863525,0.009155273,-0.048991203,0.03182125,0.053047538
1570715549,2.6881714,10.292984,1.4941711,0.002746582,-0.0053863525,0.009155273,-0.048991203,0.03182125,0.053047538
1570715549,2.6881714,10.292984,1.4941711,0.002746582,-0.0053863525,0.009155273,-0.048991203,0.03182125,0.053047538
1570715549,2.6881714,10.292984,1.4941711,0.002746582,-0.0053863525,0.009155273,-0.048991203,0.03182125,0.053047538
1570715549,2.6881714,10.292984,1.4941711,0.002746582,-0.0053863525,0.009155273,-0.048991203,0.03182125,0.053047538
1570715549,2.6881714,10.292984,1.4941711,0.002746582,-0.0053863525,0.009155273,-0.048991203,0.03182125,0.053047538
1570715549,2.6881714,10.292984,1.4941711,0.002746582,-0.0053863525,0.009155273,-0.048991203,0.03182125,0.053047538
1570715549,2.6881714,10.292984,1.4941711,0.002746582,-0.0053863525,0.009155273,-0.048991203,0.03182125,0.053047538
1570715549,2.6881714,10.292984,1.4941711,0.002746582,-0.0053863525,0.009155273,-0.048991203,0.03182125,0.053047538
1570715549,2.6881714,10.292984,1.4941711,0.002746582,-0.0053863525,0.009155273,-0.048991203,0.03182125,0.053047538
1570715549,2.6881714,10.292984,1.4941711,0.002746582,-0.0053863525,0.009155273,-0.048991203,0.03182125,0.053047538
1570715549,2.6881714,10.292984,1.4941711,0.002746582,-0.0053863525,0.009155273,-0.048991203,0.03182125,0.053047538
1570715549,2.6881714,10.292984,1.4941711,0.002746582,-0.0053863525,0.009155273,-0.048991203,0.03182125,0.053047538
1570715549,2.6881714,10.292984,1.4941711,0.002746582,-0.0053863525,0.009155273,-0.048991203,0.03182125,0.053047538
1570715549,2.6881714,10.292984,1.4941711,0.002746582,-0.0053863525,0.009155273,-0.048991203,0.03182125,0.053047538
1570715549,2.6881714,10.292984,1.4941711,0.002746582,-0.0053863525,0.009155273,-0.048991203,0.03182125,0.053047538
1570715549,2.6881714,10.292984,1.4941711,0.002746582,-0.0053863525,0.009155273,-0.048991203,0.03182125,0.053047538
1570715549,2.6881714,10.292984,1.4941711,0.002746582,-0.0053863525,0.009155273,-0.048991203,0.03182125,0.053047538
1570715549,2.6881714,10.292984,1.4941711,0.002746582,-0.0053863525,0.009155273,-0.048991203,0.03182125,0.053047538
1570715549,2.6881714,10.292984,1.4941711,0.002746582,-0.0053863525,0.009155273,-0.048991203,0.03182125,0.053047538
1570715549,2.6881714,10.292984,1.4941711,0.002746582,-0.0053863525,0.009155273,-0.048991203,0.03182125,0.053047538
1570715549,2.6881714,10.292984,1.4941711,0.002746582,-0.0053863525,0.009155273,-0.048991203,0.03182125,0.053047538
1570715549,2.6881714,10.292984,1.4941711,0.002746582,-0.0053863525,0.009155273,-0.048991203,0.03182125,0.053047538
1570715549,2.6881714,10.292984,1.4941711,0.002746582,-0.0053863525,0.009155273,-0.048991203,0.03182125,0.053047538
1570715549,2.6881714,10.292984,1.4941711,0.002746582,-0.0053863525,0.009155273,-0.048991203,0.03182125,0.053047538
1570715549,2.6881714,10.292984,1.4941711,0.002746582,-0.0053863525,0.009155273,-0.048991203,0.03182125,0.053047538
1570715549,2.6881714,10.292984,1.4941711,0.002746582,-0.0053863525,0.009155273,-0.048991203,0.03182125,0.053047538
1570715549,2.6881714,10.292984,1.4941711,0.002746582,-0.0053863525,0.009155273,-0.048991203,0.03182125,0.053047538
1570715549,2.6881714,10.292984,1.4941711,0.002746582,-0.0053863525,0.009155273,-0.048991203,0.03182125,0.053047538
1570715549,2.6881714,10.292984,1.4941711,0.002746582,-0.0053863525,0.009155273,-0.048991203,0.03182125,0.053047538
1570715549,2.6881714,10.292984,1.4941711,0.002746582,-0.0053863525,0.009155273,-0.048991203,0.03182125,0.053047538
1570715549,2.6881714,10.292984,1.4941711,0.002746582,-0.0053863525,0.009155273,-0.048991203,0.03182125,0.053047538
1570715549,2.6881714,10.292984,1.4941711,0.002746582,-0.0053863525,0.009155273,-0.048991203,0.03182125,0.053047538
1570715549,2.6881714,10.292984,1.4941711,0.002746582,-0.0053863525,0.009155273,-0.048991203,0.03182125,0.053047538
1570715549,2.6881714,10.292984,1.4941711,0.002746582,-0.0053863525,0.009155273,-0.048991203,0.03182125,0.053047538
1570715549,2.6881714,10.292984,1.4941711,0.002746582,-0.0053863525,0.009155273,-0.048991203,0.03182125,0.053047538
1570715549,2.6881714,10.292984,1.4941711,0.002746582,-0.0053863525,0.009155273,-0.048991203,0.03182125,0.053047538
1570715549,2.6881714,10.292984,1.4941711,0.002746582,-0.0053863525,0.009155273,-0.048991203,0.03182125,0.053047538
1570715549,2.6881714,10.292984,1.4941711,0.002746582,-0.0053863525,0.009155273,-0.048991203,0.03182125,0.053047538
1570715549,2.6881714,10.292984,1.4941711,0.002746582,-0.0053863525,0.009155273,-0.048991203,0.03182125,0.053047538
1570715549,2.6881714,10.292984,1.4941711,0.002746582,-0.0053863525,0.009155273,-0.048991203,0.03182125,0.053047538
1570715549,2.6881714,10.292984,1.4941711,0.002746582,-0.0053863525,0.009155273,-0.048991203,0.03182125,0.053047538
1570715549,2.6881714,10.292984,1.4941711,0.002746582,-0.0053863525,0.009155273,-0.048991203,0.03182125,0.053047538
1570715549,2.6881714,10.292984,1.4941711,0.002746582,-0.0053863525,0.009155273,-0.048991203,0.03182125,0.053047538
1570715549,2.6881714,10.292984,1.4941711,0.002746582,-0.0053863525,0.009155273,-0.048991203,0.03182125,0.053047538
1570715549,2.6881714,10.292984,1.4941711,0.002746582,-0.0053863525,0.009155273,-0.048991203,0.03182125,0.053047538
1570715549,2.6881714,10.292984,1.4941711,0.002746582,-0.0053863525,0.009155273,-0.048991203,0.03182125,0.053047538
1570715549,2.6881714,10.292984,1.4941711,0.002746582,-0.0053863525,0.009155273,-0.048991203,0.03182125,0.053047538
1570715549,2.6881714,10.292984,1.4941711,0.002746582,-0.0053863525,0.009155273,-0.048991203,0.03182125,0.053047538
1570715549,2.6881714,10.292984,1.4941711,0.002746582,-0.0053863525,0.009155273,-0.048991203,0.03182125,0.053047538
1570715549,2.6881714,10.292984,1.4941711,0.002746582,-0.0053863525,0.009155273,-0.048991203,0.03182125,0.053047538
1570715549,2.6881714,10.292984,1.4941711,0.002746582,-0.0053863525,0.009155273,-0.048991203,0.03182125,0.053047538
1570715549,2.6881714,10.292984,1.4941711,0.002746582,-0.0053863525,0.009155273,-0.048991203,0.03182125,0.053047538
1570715549,2.6881714,10.292984,1.4941711,0.002746582,-0.0053863525,0.009155273,-0.048991203,0.03182125,0.053047538
1570715549,2.6881714,10.292984,1.4941711,0.002746582,-0.0053863525,0.009155273,-0.048991203,0.03182125,0.053047538
1570715549,2.6881714,10.292984,1.4941711,0.002746582,-0.0053863525,0.009155273,-0.048991203,0.03182125,0.053047538
1570715549,2.6881714,10.292984,1.4941711,0.002746582,-0.0053863525,0.009155273,-0.048991203,0.03182125,0.053047538
1570715549,2.6881714,10.292984,1.4941711,0.002746582,-0.0053863525,0.009155273,-0.048991203,0.03182125,0.053047538
1570715549,2.6881714,10.292984,1.4941711,0.002746582,-0.0053863525,0.009155273,-0.048991203,0.03182125,0.053047538
1570715549,2.6881714,10.292984,1.4941711,0.002746582,-0.0053863525,0.009155273,-0.048991203,0.03182125,0.053047538
1570715549,2.6881714,10.292984,1.4941711,0.002746582,-0.0053863525,0.009155273,-0.048991203,0.03182125,0.053047538
1570715549,2.6881714,10.292984,1.4941711,0.002746582,-0.0053863525,0.009155273,-0.048991203,0.03182125,0.053047538
1570715549,2.6881714,10.292984,1.4941711,0.002746582,-0.0053863525,0.009155273,-0.048991203,0.03182125,0.053047538
1570715549,2.6881714,10.292984,1.4941711,0.002746582,-0.0053863525,0.009155273,-0.048991203,0.03182125,0.053047538
1570715549,2.6881714,10.292984,1.4941711,0.002746582,-0.0053863525,0.009155273,-0.048991203,0.03182125,0.053047538
1570715549,2.6881714,10.292984,1.4941711,0.002746582,-0.0053863525,0.009155273,-0.048991203,0.03182125,0.053047538
1570715549,2.6881714,10.292984,1.4941711,0.002746582,-0.0053863525,0.009155273,-0.048991203,0.03182125,0.053047538
1570715549,2.6881714,10.292984,1.4941711,0.002746582,-0.0053863525,0.009155273,-0.048991203,0.03182125,0.053047538
1570715549,2.6881714,10.292984,1.4941711,0.002746582,-0.0053863525,0.009155273,-0.048991203,0.03182125,0.053047538
1570715549,2.6881714,10.292984,1.4941711,0.002746582,-0.0053863525,0.009155273,-0.048991203,0.03182125,0.053047538
1570715549,2.6881714,10.292984,1.4941711,0.002746582,-0.0053863525,0.009155273,-0.048991203,0.03182125,0.053047538
1570715549,2.6881714,10.292984,1.4941711,0.002746582,-0.0053863525,0.009155273,-0.048991203,0.03182125,0.053047538
1570715549,2.6881714,10.292984,1.4941711,0.002746582,-0.0053863525,0.009155273,-0.048991203,0.03182125,0.053047538
1570715549,2.6881714,10.292984,1.4941711,0.002746582,-0.0053863525,0.009155273,-0.048991203,0.03182125,0.053047538
1570715549,2.6881714,10.292984,1.4941711,0.002746582,-0.0053863525,0.009155273,-0.048991203,0.03182125,0.053047538
1570715549,2.6881714,10.292984,1.4941711,0.002746582,-0.0053863525,0.009155273,-0.048991203,0.03182125,0.053047538
1570715549,2.6881714,10.292984,1.4941711,0.002746582,-0.0053863525,0.009155273,-0.048991203,0.03182125,0.053047538
1570715549,2.6881714,10.292984,1.4941711,0.002746582,-0.0053863525,0.009155273,-0.048991203,0.03182125,0.053047538
1570715549,2.6881714,10.292984,1.4941711,0.002746582,-0.0053863525,0.009155273,-0.048991203,0.03182125,0.053047538
1570715549,2.6881714,10.292984,1.4941711,0.002746582,-0.0053863525,0.009155273,-0.048991203,0.03182125,0.053047538
1570715549,2.6881714,10.292984,1.4941711,0.002746582,-0.0053863525,0.009155273,-0.048991203,0.03182125,0.053047538
1570715549,2.6881714,10.292984,1.4941711,0.002746582,-0.0053863525,0.009155273,-0.048991203,0.03182125,0.053047538
1570715549,2.6881714,10.292984,1.4941711,0.002746582,-0.0053863525,0.009155273,-0.048991203,0.03182125,0.053047538
1570715549,2.6881714,10.292984,1.4941711,0.002746582,-0.0053863525,0.009155273,-0.048991203,0.03182125,0.053047538
1570715549,2.6881714,10.292984,1.4941711,0.002746582,-0.0053863525,0.009155273,-0.048991203,0.03182125,0.053047538
1570715549,2.6881714,10.292984,1.4941711,0.002746582,-0.0053863525,0.009155273,-0.048991203,0.03182125,0.053047538
1570715549,2.6881714,10.292984,1.4941711,0.002746582,-0.0053863525,0.009155273,-0.048991203,0.03182125,0.053047538
1570715549,2.6881714,10.292984,1.4941711,0.002746582,-0.0053863525,0.009155273,-0.048991203,0.03182125,0.053047538
1570715549,2.6881714,10.292984,1.4941711,0.002746582,-0.0053863525,0.009155273,-0.048991203,0.03182125,0.053047538
1570715549,2.6881714,10.292984,1.4941711,0.002746582,-0.0053863525,0.009155273,-0.048991203,0.03182125,0.053047538
1570715549,2.6881714,10.292984,1.4941711,0.002746582,-0.0053863525,0.009155273,-0.048991203,0.03182125,0.053047538
1570715550,2.659439,10.2283325,1.4367065,0.002746582,-0.0053863525,0.009155273,-0.048991203,0.03182125,0.053047538
1570715550,2.730072,10.308548,1.3181915,0.002746582,-0.0053863525,0.009155273,0.059065104,-0.03173542,0.038227558
1570715550,2.730072,10.308548,1.3181915,0.002746582,-0.0053863525,0.009155273,0.059065104,-0.03173542,0.038227558
1570715550,2.730072,10.308548,1.3181915,0.002746582,-0.0053863525,0.009155273,0.059065104,-0.03173542,0.038227558
1570715550,2.730072,10.308548,1.3181915,0.002746582,-0.0053863525,0.009155273,0.059065104,-0.03173542,0.038227558
1570715550,2.6582336,10.267838,1.3708649,0.008071899,0.014846802,0.0017089844,-0.0456841,-0.016597748,0.023490429
1570715550,2.6582336,10.267838,1.3708649,0.008071899,0.014846802,0.0017089844,-0.0456841,-0.016597748,0.023490429
1570715550,2.6582336,10.267838,1.3708649,0.008071899,0.014846802,0.0017089844,-0.0456841,-0.016597748,0.023490429
1570715550,2.6582336,10.267838,1.3708649,0.008071899,0.014846802,0.0017089844,-0.0456841,-0.016597748,0.023490429
1570715550,2.6582336,10.267838,1.3708649,0.008071899,0.014846802,0.0017089844,-0.0456841,-0.016597748,0.023490429
1570715550,2.6582336,10.267838,1.3708649,0.008071899,0.014846802,0.0017089844,-0.0456841,-0.016597748,0.023490429
1570715550,2.745636,10.325302,1.185318,0.017669678,0.0031280518,-4.272461E-4,0.10659385,0.050930977,-0.10046935
1570715550,2.745636,10.325302,1.185318,0.017669678,0.0031280518,-4.272461E-4,0.10659385,0.050930977,-0.10046935
1570715550,2.745636,10.325302,1.185318,0.017669678,0.0031280518,-4.272461E-4,0.10659385,0.050930977,-0.10046935
1570715550,2.745636,10.325302,1.185318,0.017669678,0.0031280518,-4.272461E-4,0.10659385,0.050930977,-0.10046935
1570715550,2.745636,10.325302,1.185318,0.017669678,0.0031280518,-4.272461E-4,0.10659385,0.050930977,-0.10046935
1570715550,2.745636,10.325302,1.185318,0.017669678,0.0031280518,-4.272461E-4,0.10659385,0.050930977,-0.10046935
1570715550,2.745636,10.325302,1.185318,0.017669678,0.0031280518,-4.272461E-4,0.10659385,0.050930977,-0.10046935
1570715550,2.745636,10.325302,1.185318,0.017669678,0.0031280518,-4.272461E-4,0.10659385,0.050930977,-0.10046935
1570715550,2.745636,10.325302,1.185318,0.017669678,0.0031280518,-4.272461E-4,0.10659385,0.050930977,-0.10046935
1570715550,2.745636,10.325302,1.185318,0.017669678,0.0031280518,-4.272461E-4,0.10659385,0.050930977,-0.10046935
1570715550,2.745636,10.325302,1.185318,0.017669678,0.0031280518,-4.272461E-4,0.10659385,0.050930977,-0.10046935
1570715550,2.587616,10.160095,1.3720703,-0.007904053,-0.014968872,0.0059661865,0.030925035,0.08724499,-0.0052564144
1570715550,2.6929626,10.235519,1.4115753,0.014465332,-0.01071167,0.0048980713,-0.039968252,-0.055511475,0.07740891
1570715550,2.6654205,10.310944,1.2918701,-0.0057678223,0.02017212,0.003829956,0.01934433,0.049715996,0.0054137707
1570715550,2.60437,10.201996,1.1721497,0.002746582,-0.0032653809,-0.0025634766,-0.04638195,-0.016878128,-0.07986069
1570715550,2.7276764,10.3229065,1.2942505,0.017669678,0.004196167,-0.0046844482,0.04066968,0.049592018,0.050296426
1570715550,2.7073212,10.279816,1.1901093,0.013397217,0.0105896,-0.003616333,0.046813488,0.017882347,-0.051689863
1570715550,2.6857758,10.297775,1.2739105,0.029388428,-0.006454468,6.4086914E-4,0.02350974,-0.03640747,0.021953106
1570715550,2.7324677,10.266647,1.1972961,0.016601562,0.016983032,0.0017089844,-0.008862972,-0.0214777,-0.04425943
1570715550,2.6893616,10.294174,1.2020874,0.013397217,0.0010070801,0.0048980713,0.0018165112,0.016788483,-0.032199502
1570715550,2.730072,10.306152,1.2787018,0.0016784668,0.008453369,-0.0025634766,-0.0034384727,0.016245842,0.0573678
1570715550,2.6821747,10.267838,1.1661682,0.0048828125,0.014846802,0.0059661865,-0.0028796196,-0.07904339,-0.08890891
1570715551,2.6917572,10.318115,1.2427826,0.014465332,-0.008590698,-0.0025634766,0.0022976398,0.041977882,0.05854833
1570715551,2.6761932,10.308548,1.209259,0.014465332,-0.0032653809,-0.0068206787,0.0015273094,0.018158913,-0.007873654
1570715551,2.6331024,10.249878,1.2260284,0.017669678,0.0063323975,-0.0046844482,-0.06177354,-0.019217491,-0.0060534477
1570715551,2.8246307,10.382767,1.3469238,0.029388428,-0.026687622,-0.019607544,0.057590246,0.021846771,0.08672643
1570715551,2.8952637,10.342056,1.0811768,0.01234436,0.039352417,0.0048980713,0.29357457,0.025714874,-0.15806508
1570715551,2.5780334,10.19841,1.3816528,0.01979065,-0.04373169,-0.0057525635,-0.16878295,-0.09062958,0.17512476
1570715551,2.7396393,10.342056,1.2320099,0.01020813,0.021240234,-0.0057525635,0.020068407,-0.016304016,0.11893141
1570715551,2.7372437,10.309738,1.3541107,0.016601562,0.021240234,-0.0046844482,0.009232283,-0.015474319,0.092777014
1570715551,2.6402893,10.342056,1.264328,0.0059509277,0.030838013,-0.0014953613,-0.020902395,0.011321068,0.07368243
1570715551,2.6570435,10.2438965,1.2308044,0.030441284,0.014846802,-0.0025634766,-0.024027348,-0.030911446,0.072731495
1570715551,2.6558533,10.255875,1.2451782,0.011276245,0.02444458,-0.011077881,-0.0011589527,-0.041439056,0.058101058
1570715551,2.6163483,10.254669,1.3062286,0.013397217,-0.0011291504,-0.0057525635,-0.02943039,-0.0065574646,0.09039831
1570715551,2.6570435,10.300171,1.1733551,0.01234436,0.009521484,-0.008956909,-0.04916835,0.011455536,0.07131064
1570715551,2.6642303,10.31572,1.1553955,0.017669678,0.0010070801,-0.0068206787,-0.0028953552,0.012682915,-0.058687925
1570715551,2.698944,10.301361,1.1733551,0.020858765,-0.027755737,-0.013214111,-0.01590681,0.045077324,-0.00355649
1570715551,2.6522522,10.33847,1.0931396,0.02192688,0.0105896,0.003829956,-0.016537905,0.011011124,-0.07144475
1570715551,2.6295166,10.316925,1.1362457,0.018722534,-0.008590698,-0.0025634766,-0.05465722,-0.022545815,-0.051371932
1570715551,2.6737976,10.313324,1.0943451,0.020858765,-0.0128479,-0.0025634766,-0.0058984756,0.01764965,-0.058807135
1570715551,2.564865,10.246292,1.1757507,0.008071899,-0.013916016,-0.0068206787,-0.09237862,-0.05053234,0.009172797
1570715551,2.7169037,10.304947,1.082367,-0.0015106201,0.0020751953,-0.0025634766,0.04616189,-0.0047369003,-0.08466828
1570715551,2.6331024,10.377975,1.066803,-0.0036468506,0.0020751953,-0.0014953613,-0.0030355453,0.0627718,-0.017497182
1570715551,2.7528076,10.336075,1.1290588,0.0059509277,-0.03201294,-0.014282227,0.048663855,0.030432701,-0.05476296
1570715551,2.6486664,10.229538,1.1027222,0.01979065,0.023376465,6.4086914E-4,-0.013402462,-0.06290054,-0.047525525
1570715551,2.5672607,10.364807,1.1314545,0.018722534,-0.014968872,-0.0046844482,-0.075265884,0.05003071,0.0030868053
1570715551,2.619934,10.254669,1.2631378,0.0048828125,0.02444458,-0.0025634766,-0.030285358,-0.0142297745,0.104769826
1570715551,2.5852203,10.302551,1.1781311,0.0038146973,0.0031280518,0.0070343018,-0.08544874,-0.035686493,0.014223933
1570715551,2.734848,10.304947,1.0955353,0.002746582,-0.0043182373,-0.0046844482,0.062170267,-0.0040302277,-0.0348866
1570715551,2.6546478,10.294174,1.1984863,-0.004714966,0.004196167,-0.0014953613,0.022763252,0.016695976,0.038539052
1570715551,2.5947876,10.276215,1.2200317,0.007003784,-0.0011291504,-4.272461E-4,-0.016164541,-0.009165764,0.050313592
1570715551,2.5768433,10.33728,1.2116547,0.002746582,0.011657715,0.0017089844,-0.030638218,0.04043579,0.10417473
1570715551,2.6857758,10.336075,1.0560303,-0.0015106201,0.0031280518,6.4086914E-4,0.04123974,4.5776367E-5,-0.03700924
1570715551,2.5983887,10.2834015,1.2056732,0.0016784668,-0.0053863525,0.0027618408,-0.06178546,-0.03860283,0.046648145
1570715551,2.6390839,10.312134,1.106308,0.008071899,0.011657715,6.4086914E-4,0.0036523342,-1.2397766E-5,-0.015452862
1570715552,2.5864105,10.291779,1.0691986,6.2561035E-4,0.027633667,0.011291504,-0.058470726,0.0048770905,-0.081790805
1570715552,2.580429,10.312134,1.1266632,0.002746582,-0.0032653809,0.0017089844,-0.10310125,-0.01788807,0.05486226
1570715552,2.7013397,10.345657,0.9901886,-0.0036468506,0.01272583,0.003829956,0.05439782,0.03257847,-0.06903958
1570715552,2.6761932,10.31572,1.1482086,-0.0036468506,-0.0032653809,0.0059661865,0.038909435,0.0066871643,0.020841718
1570715552,2.647461,10.255875,1.1314545,-4.4250488E-4,-0.0043182373,6.4086914E-4,0.018465996,-0.008284569,-0.014256239
1570715552,2.619934,10.387558,1.1206818,0.008071899,0.0020751953,-0.003616333,-0.008467674,0.04327488,0.026355982
1570715552,2.6965485,10.29538,1.0967407,0.009140015,-0.0032653809,0.0017089844,0.06417036,-0.028736115,0.014978409
1570715552,2.580429,10.267838,1.2332001,0.011276245,-0.011779785,-0.0014953613,0.003252983,-0.021282196,0.08560896
1570715552,2.7169037,10.221161,1.2787018,-0.0015106201,0.01272583,-0.0025634766,0.0566895,-0.043103218,0.17690706
1570715552,2.6402893,10.287003,1.1661682,-0.0036468506,0.040420532,0.012359619,0.053791523,-0.029219627,-0.08341074
1570715552,2.730072,10.300171,1.1290588,-0.0036468506,-0.011779785,-0.008956909,0.039633036,-0.06103897,0.016433597
1570715552,2.7731628,10.316925,1.1793365,0.008071899,0.02230835,-0.003616333,0.14256978,0.02758789,0.014405727
1570715552,2.742035,10.351639,1.1649628,0.016601562,-0.0128479,-0.011077881,0.06643009,0.056064606,0.025587201
1570715552,2.7492218,10.319321,1.1410217,0.0315094,0.008453369,-0.008956909,0.08666968,0.015364647,0.04306245
1570715552,2.742035,10.310944,1.2427826,0.042160034,-0.007522583,-0.008956909,0.005286932,-0.033823967,0.086568475
1570715552,2.774353,10.300171,1.1242676,0.040039062,-0.0043182373,-0.011077881,0.12697315,-0.04387474,-0.051647067
1570715552,2.70253,10.264252,1.1314545,0.026184082,-0.0043182373,-0.016403198,0.086493015,-0.08230305,-0.004500866
1570715552,2.6247253,10.224747,1.1482086,0.016601562,-0.0032653809,-0.017471313,-0.04295063,-0.09598732,0.04948008
1570715552,2.6414795,10.252274,1.0799713,0.017669678,-0.01071167,-0.016403198,-0.018001318,-0.061680794,0.053687453
1570715555,2.6414795,10.252274,1.0799713,0.017669678,-0.01071167,-0.016403198,-0.018001318,-0.061680794,0.053687453
1570715555,2.6414795,10.252274,1.0799713,0.017669678,-0.01071167,-0.016403198,-0.018001318,-0.061680794,0.053687453
1570715555,2.6414795,10.252274,1.0799713,0.017669678,-0.01071167,-0.016403198,-0.018001318,-0.061680794,0.053687453
1570715555,2.6414795,10.252274,1.0799713,0.017669678,-0.01071167,-0.016403198,-0.018001318,-0.061680794,0.053687453
1570715555,2.6414795,10.252274,1.0799713,0.017669678,-0.01071167,-0.016403198,-0.018001318,-0.061680794,0.053687453
1570715555,2.6414795,10.252274,1.0799713,0.017669678,-0.01071167,-0.016403198,-0.018001318,-0.061680794,0.053687453
1570715555,2.6414795,10.252274,1.0799713,0.017669678,-0.01071167,-0.016403198,-0.018001318,-0.061680794,0.053687453
1570715555,2.6414795,10.252274,1.0799713,0.017669678,-0.01071167,-0.016403198,-0.018001318,-0.061680794,0.053687453
1570715555,2.6414795,10.252274,1.0799713,0.017669678,-0.01071167,-0.016403198,-0.018001318,-0.061680794,0.053687453
1570715555,2.6414795,10.252274,1.0799713,0.017669678,-0.01071167,-0.016403198,-0.018001318,-0.061680794,0.053687453
1570715555,2.6414795,10.252274,1.0799713,0.017669678,-0.01071167,-0.016403198,-0.018001318,-0.061680794,0.053687453
1570715555,2.6414795,10.252274,1.0799713,0.017669678,-0.01071167,-0.016403198,-0.018001318,-0.061680794,0.053687453
1570715555,2.6414795,10.252274,1.0799713,0.017669678,-0.01071167,-0.016403198,-0.018001318,-0.061680794,0.053687453
1570715555,2.6414795,10.252274,1.0799713,0.017669678,-0.01071167,-0.016403198,-0.018001318,-0.061680794,0.053687453
1570715555,2.6414795,10.252274,1.0799713,0.017669678,-0.01071167,-0.016403198,-0.018001318,-0.061680794,0.053687453
1570715555,2.6414795,10.252274,1.0799713,0.017669678,-0.01071167,-0.016403198,-0.018001318,-0.061680794,0.053687453
1570715555,2.6414795,10.252274,1.0799713,0.017669678,-0.01071167,-0.016403198,-0.018001318,-0.061680794,0.053687453
1570715555,2.6414795,10.252274,1.0799713,0.017669678,-0.01071167,-0.016403198,-0.018001318,-0.061680794,0.053687453
1570715555,2.6414795,10.252274,1.0799713,0.017669678,-0.01071167,-0.016403198,-0.018001318,-0.061680794,0.053687453
1570715555,2.6414795,10.252274,1.0799713,0.017669678,-0.01071167,-0.016403198,-0.018001318,-0.061680794,0.053687453
1570715555,2.6414795,10.252274,1.0799713,0.017669678,-0.01071167,-0.016403198,-0.018001318,-0.061680794,0.053687453
1570715555,2.6414795,10.252274,1.0799713,0.017669678,-0.01071167,-0.016403198,-0.018001318,-0.061680794,0.053687453
1570715555,2.6414795,10.252274,1.0799713,0.017669678,-0.01071167,-0.016403198,-0.018001318,-0.061680794,0.053687453
1570715555,2.6414795,10.252274,1.0799713,0.017669678,-0.01071167,-0.016403198,-0.018001318,-0.061680794,0.053687453
1570715555,2.6414795,10.252274,1.0799713,0.017669678,-0.01071167,-0.016403198,-0.018001318,-0.061680794,0.053687453
1570715555,2.6414795,10.252274,1.0799713,0.017669678,-0.01071167,-0.016403198,-0.018001318,-0.061680794,0.053687453
1570715555,2.6414795,10.252274,1.0799713,0.017669678,-0.01071167,-0.016403198,-0.018001318,-0.061680794,0.053687453
1570715555,2.6414795,10.252274,1.0799713,0.017669678,-0.01071167,-0.016403198,-0.018001318,-0.061680794,0.053687453
1570715555,2.6414795,10.252274,1.0799713,0.017669678,-0.01071167,-0.016403198,-0.018001318,-0.061680794,0.053687453
1570715555,2.6414795,10.252274,1.0799713,0.017669678,-0.01071167,-0.016403198,-0.018001318,-0.061680794,0.053687453
1570715555,2.6414795,10.252274,1.0799713,0.017669678,-0.01071167,-0.016403198,-0.018001318,-0.061680794,0.053687453
1570715555,2.6414795,10.252274,1.0799713,0.017669678,-0.01071167,-0.016403198,-0.018001318,-0.061680794,0.053687453
1570715555,2.6414795,10.252274,1.0799713,0.017669678,-0.01071167,-0.016403198,-0.018001318,-0.061680794,0.053687453
1570715555,2.6414795,10.252274,1.0799713,0.017669678,-0.01071167,-0.016403198,-0.018001318,-0.061680794,0.053687453
1570715555,2.6414795,10.252274,1.0799713,0.017669678,-0.01071167,-0.016403198,-0.018001318,-0.061680794,0.053687453
1570715555,2.6414795,10.252274,1.0799713,0.017669678,-0.01071167,-0.016403198,-0.018001318,-0.061680794,0.053687453
1570715555,2.6414795,10.252274,1.0799713,0.017669678,-0.01071167,-0.016403198,-0.018001318,-0.061680794,0.053687453
1570715555,2.6414795,10.252274,1.0799713,0.017669678,-0.01071167,-0.016403198,-0.018001318,-0.061680794,0.053687453
1570715555,2.6414795,10.252274,1.0799713,0.017669678,-0.01071167,-0.016403198,-0.018001318,-0.061680794,0.053687453
1570715555,2.6414795,10.252274,1.0799713,0.017669678,-0.01071167,-0.016403198,-0.018001318,-0.061680794,0.053687453
1570715555,2.6414795,10.252274,1.0799713,0.017669678,-0.01071167,-0.016403198,-0.018001318,-0.061680794,0.053687453
1570715555,2.6414795,10.252274,1.0799713,0.017669678,-0.01071167,-0.016403198,-0.018001318,-0.061680794,0.053687453
1570715555,2.6414795,10.252274,1.0799713,0.017669678,-0.01071167,-0.016403198,-0.018001318,-0.061680794,0.053687453
1570715555,2.6414795,10.252274,1.0799713,0.017669678,-0.01071167,-0.016403198,-0.018001318,-0.061680794,0.053687453
1570715555,2.6414795,10.252274,1.0799713,0.017669678,-0.01071167,-0.016403198,-0.018001318,-0.061680794,0.053687453
1570715555,2.635498,10.351639,1.0991364,0.017669678,-0.01071167,-0.016403198,-0.018001318,-0.061680794,0.053687453
1570715555,2.60437,10.33847,1.0548401,0.017669678,-0.01071167,-0.016403198,-0.018001318,-0.061680794,0.053687453
1570715555,2.6690216,10.303757,0.9363251,0.017669678,-0.01071167,-0.016403198,-0.018001318,-0.061680794,0.053687453
1570715555,2.563675,10.339661,0.9291382,0.017669678,-0.01071167,-0.016403198,-0.018001318,-0.061680794,0.053687453
1570715555,2.6091614,10.350449,0.9399109,0.017669678,-0.01071167,-0.016403198,-0.018001318,-0.061680794,0.053687453
1570715555,2.6091614,10.350449,0.9399109,0.017669678,-0.01071167,-0.016403198,-0.018001318,-0.061680794,0.053687453
1570715555,2.6091614,10.350449,0.9399109,0.017669678,-0.01071167,-0.016403198,-0.018001318,-0.061680794,0.053687453
1570715555,2.6091614,10.350449,0.9399109,0.017669678,-0.01071167,-0.016403198,-0.018001318,-0.061680794,0.053687453
1570715555,2.6091614,10.350449,0.9399109,0.017669678,-0.01071167,-0.016403198,-0.018001318,-0.061680794,0.053687453
1570715555,2.6091614,10.350449,0.9399109,0.017669678,-0.01071167,-0.016403198,-0.018001318,-0.061680794,0.053687453
1570715555,2.6091614,10.350449,0.9399109,0.017669678,-0.01071167,-0.016403198,-0.018001318,-0.061680794,0.053687453
1570715555,2.6091614,10.350449,0.9399109,0.017669678,-0.01071167,-0.016403198,-0.018001318,-0.061680794,0.053687453
1570715555,2.6091614,10.350449,0.9399109,0.017669678,-0.01071167,-0.016403198,-0.018001318,-0.061680794,0.053687453
1570715555,2.6091614,10.350449,0.9399109,0.017669678,-0.01071167,-0.016403198,-0.018001318,-0.061680794,0.053687453
1570715555,2.6091614,10.350449,0.9399109,0.017669678,-0.01071167,-0.016403198,-0.018001318,-0.061680794,0.053687453
1570715555,2.6091614,10.350449,0.9399109,0.017669678,-0.01071167,-0.016403198,-0.018001318,-0.061680794,0.053687453
1570715555,2.6091614,10.350449,0.9399109,0.017669678,-0.01071167,-0.016403198,-0.018001318,-0.061680794,0.053687453
1570715555,2.6091614,10.350449,0.9399109,0.017669678,-0.01071167,-0.016403198,-0.018001318,-0.061680794,0.053687453
1570715555,2.6091614,10.350449,0.9399109,0.017669678,-0.01071167,-0.016403198,-0.018001318,-0.061680794,0.053687453
1570715555,2.6091614,10.350449,0.9399109,0.017669678,-0.01071167,-0.016403198,-0.018001318,-0.061680794,0.053687453
1570715555,2.6091614,10.350449,0.9399109,0.017669678,-0.01071167,-0.016403198,-0.018001318,-0.061680794,0.053687453
1570715555,2.6091614,10.350449,0.9399109,0.017669678,-0.01071167,-0.016403198,-0.018001318,-0.061680794,0.053687453
1570715555,2.6091614,10.350449,0.9399109,0.017669678,-0.01071167,-0.016403198,-0.018001318,-0.061680794,0.053687453
1570715555,2.6091614,10.350449,0.9399109,0.017669678,-0.01071167,-0.016403198,-0.018001318,-0.061680794,0.053687453
1570715555,2.6091614,10.350449,0.9399109,0.017669678,-0.01071167,-0.016403198,-0.018001318,-0.061680794,0.053687453
1570715555,2.6091614,10.350449,0.9399109,0.017669678,-0.01071167,-0.016403198,-0.018001318,-0.061680794,0.053687453
1570715555,2.6091614,10.350449,0.9399109,0.017669678,-0.01071167,-0.016403198,-0.018001318,-0.061680794,0.053687453
1570715555,2.6091614,10.350449,0.9399109,0.017669678,-0.01071167,-0.016403198,-0.018001318,-0.061680794,0.053687453
1570715555,2.6091614,10.350449,0.9399109,0.017669678,-0.01071167,-0.016403198,-0.018001318,-0.061680794,0.053687453
1570715555,2.6091614,10.350449,0.9399109,0.017669678,-0.01071167,-0.016403198,-0.018001318,-0.061680794,0.053687453
1570715555,2.6091614,10.350449,0.9399109,0.017669678,-0.01071167,-0.016403198,-0.018001318,-0.061680794,0.053687453
1570715555,2.6091614,10.350449,0.9399109,0.017669678,-0.01071167,-0.016403198,-0.018001318,-0.061680794,0.053687453
1570715555,2.6091614,10.350449,0.9399109,0.017669678,-0.01071167,-0.016403198,-0.018001318,-0.061680794,0.053687453
1570715555,2.6091614,10.350449,0.9399109,0.017669678,-0.01071167,-0.016403198,-0.018001318,-0.061680794,0.053687453
1570715555,2.6091614,10.350449,0.9399109,0.017669678,-0.01071167,-0.016403198,-0.018001318,-0.061680794,0.053687453
1570715555,2.6091614,10.350449,0.9399109,0.017669678,-0.01071167,-0.016403198,-0.018001318,-0.061680794,0.053687453
1570715555,2.6091614,10.350449,0.9399109,0.017669678,-0.01071167,-0.016403198,-0.018001318,-0.061680794,0.053687453
1570715555,2.6091614,10.350449,0.9399109,0.017669678,-0.01071167,-0.016403198,-0.018001318,-0.061680794,0.053687453
1570715555,2.6091614,10.350449,0.9399109,0.017669678,-0.01071167,-0.016403198,-0.018001318,-0.061680794,0.053687453
1570715555,2.6091614,10.350449,0.9399109,0.017669678,-0.01071167,-0.016403198,-0.018001318,-0.061680794,0.053687453
1570715555,2.6091614,10.350449,0.9399109,0.017669678,-0.01071167,-0.016403198,-0.018001318,-0.061680794,0.053687453
1570715555,2.6091614,10.350449,0.9399109,0.017669678,-0.01071167,-0.016403198,-0.018001318,-0.061680794,0.053687453
1570715555,2.6091614,10.350449,0.9399109,0.017669678,-0.01071167,-0.016403198,-0.018001318,-0.061680794,0.053687453
1570715555,2.6091614,10.350449,0.9399109,0.017669678,-0.01071167,-0.016403198,-0.018001318,-0.061680794,0.053687453
1570715555,2.6091614,10.350449,0.9399109,0.017669678,-0.01071167,-0.016403198,-0.018001318,-0.061680794,0.053687453
1570715555,2.6091614,10.350449,0.9399109,0.017669678,-0.01071167,-0.016403198,-0.018001318,-0.061680794,0.053687453
1570715555,2.6091614,10.350449,0.9399109,0.017669678,-0.01071167,-0.016403198,-0.018001318,-0.061680794,0.053687453
1570715555,2.6091614,10.350449,0.9399109,0.017669678,-0.01071167,-0.016403198,-0.018001318,-0.061680794,0.053687453
1570715555,2.6091614,10.350449,0.9399109,0.017669678,-0.01071167,-0.016403198,-0.018001318,-0.061680794,0.053687453
1570715555,2.6091614,10.350449,0.9399109,0.017669678,-0.01071167,-0.016403198,-0.018001318,-0.061680794,0.053687453
1570715555,2.6091614,10.350449,0.9399109,0.017669678,-0.01071167,-0.016403198,-0.018001318,-0.061680794,0.053687453
1570715555,2.6091614,10.350449,0.9399109,0.017669678,-0.01071167,-0.016403198,-0.018001318,-0.061680794,0.053687453
1570715555,2.6091614,10.350449,0.9399109,0.017669678,-0.01071167,-0.016403198,-0.018001318,-0.061680794,0.053687453
1570715555,2.6091614,10.350449,0.9399109,0.017669678,-0.01071167,-0.016403198,-0.018001318,-0.061680794,0.053687453
1570715555,2.6091614,10.350449,0.9399109,0.017669678,-0.01071167,-0.016403198,-0.018001318,-0.061680794,0.053687453
1570715555,2.6091614,10.350449,0.9399109,0.017669678,-0.01071167,-0.016403198,-0.018001318,-0.061680794,0.053687453
1570715555,2.6091614,10.350449,0.9399109,0.017669678,-0.01071167,-0.016403198,-0.018001318,-0.061680794,0.053687453
1570715555,2.6091614,10.350449,0.9399109,0.017669678,-0.01071167,-0.016403198,-0.018001318,-0.061680794,0.053687453
1570715555,2.6091614,10.350449,0.9399109,0.017669678,-0.01071167,-0.016403198,-0.018001318,-0.061680794,0.053687453
1570715555,2.6091614,10.350449,0.9399109,0.017669678,-0.01071167,-0.016403198,-0.018001318,-0.061680794,0.053687453
1570715555,2.6091614,10.350449,0.9399109,0.017669678,-0.01071167,-0.016403198,-0.018001318,-0.061680794,0.053687453
1570715555,2.6091614,10.350449,0.9399109,0.017669678,-0.01071167,-0.016403198,-0.018001318,-0.061680794,0.053687453
1570715555,2.6091614,10.350449,0.9399109,0.017669678,-0.01071167,-0.016403198,-0.018001318,-0.061680794,0.053687453
1570715555,2.6091614,10.350449,0.9399109,0.017669678,-0.01071167,-0.016403198,-0.018001318,-0.061680794,0.053687453
1570715555,2.6091614,10.350449,0.9399109,0.017669678,-0.01071167,-0.016403198,-0.018001318,-0.061680794,0.053687453
1570715555,2.6091614,10.350449,0.9399109,0.017669678,-0.01071167,-0.016403198,-0.018001318,-0.061680794,0.053687453
1570715555,2.3709412,10.307343,1.1925049,-0.007904053,0.004196167,-0.02279663,-0.018001318,-0.061680794,0.053687453
1570715555,2.3709412,10.307343,1.1925049,-0.007904053,0.004196167,-0.02279663,-0.018001318,-0.061680794,0.053687453
1570715555,2.3218536,10.333679,1.0596313,-0.03453064,0.037216187,-0.024932861,-0.018001318,-0.061680794,0.053687453
1570715555,2.437973,10.358826,1.169754,-0.043060303,0.030838013,-0.030258179,-0.016365767,0.07294941,0.25261736
1570715556,2.4343872,10.430649,0.9566803,-0.026016235,0.058532715,-0.026000977,0.037364006,0.013020515,-0.23016906
1570715563,2.4343872,10.430649,0.9566803,-0.026016235,0.058532715,-0.026000977,0.037364006,0.013020515,-0.23016906
1570715563,2.4343872,10.430649,0.9566803,-0.026016235,0.058532715,-0.026000977,0.037364006,0.013020515,-0.23016906
1570715563,2.4343872,10.430649,0.9566803,-0.026016235,0.058532715,-0.026000977,0.037364006,0.013020515,-0.23016906
1570715563,2.4343872,10.430649,0.9566803,-0.026016235,0.058532715,-0.026000977,0.037364006,0.013020515,-0.23016906
1570715563,2.4343872,10.430649,0.9566803,-0.026016235,0.058532715,-0.026000977,0.037364006,0.013020515,-0.23016906
1570715563,2.4343872,10.430649,0.9566803,-0.026016235,0.058532715,-0.026000977,0.037364006,0.013020515,-0.23016906
1570715563,2.4343872,10.430649,0.9566803,-0.026016235,0.058532715,-0.026000977,0.037364006,0.013020515,-0.23016906
1570715563,2.4343872,10.430649,0.9566803,-0.026016235,0.058532715,-0.026000977,0.037364006,0.013020515,-0.23016906
1570715563,2.4343872,10.430649,0.9566803,-0.026016235,0.058532715,-0.026000977,0.037364006,0.013020515,-0.23016906
1570715563,2.4343872,10.430649,0.9566803,-0.026016235,0.058532715,-0.026000977,0.037364006,0.013020515,-0.23016906
1570715563,2.4343872,10.430649,0.9566803,-0.026016235,0.058532715,-0.026000977,0.037364006,0.013020515,-0.23016906
1570715563,2.4343872,10.430649,0.9566803,-0.026016235,0.058532715,-0.026000977,0.037364006,0.013020515,-0.23016906
1570715563,2.4343872,10.430649,0.9566803,-0.026016235,0.058532715,-0.026000977,0.037364006,0.013020515,-0.23016906
1570715563,2.4343872,10.430649,0.9566803,-0.026016235,0.058532715,-0.026000977,0.037364006,0.013020515,-0.23016906
1570715563,2.4343872,10.430649,0.9566803,-0.026016235,0.058532715,-0.026000977,0.037364006,0.013020515,-0.23016906
1570715563,2.4343872,10.430649,0.9566803,-0.026016235,0.058532715,-0.026000977,0.037364006,0.013020515,-0.23016906
1570715563,2.4343872,10.430649,0.9566803,-0.026016235,0.058532715,-0.026000977,0.037364006,0.013020515,-0.23016906
1570715563,2.4343872,10.430649,0.9566803,-0.026016235,0.058532715,-0.026000977,0.037364006,0.013020515,-0.23016906
1570715563,2.4343872,10.430649,0.9566803,-0.026016235,0.058532715,-0.026000977,0.037364006,0.013020515,-0.23016906
1570715563,2.4343872,10.430649,0.9566803,-0.026016235,0.058532715,-0.026000977,0.037364006,0.013020515,-0.23016906
1570715563,2.4343872,10.430649,0.9566803,-0.026016235,0.058532715,-0.026000977,0.037364006,0.013020515,-0.23016906
1570715563,2.4343872,10.430649,0.9566803,-0.026016235,0.058532715,-0.026000977,0.037364006,0.013020515,-0.23016906
1570715563,2.4343872,10.430649,0.9566803,-0.026016235,0.058532715,-0.026000977,0.037364006,0.013020515,-0.23016906
1570715563,2.4343872,10.430649,0.9566803,-0.026016235,0.058532715,-0.026000977,0.037364006,0.013020515,-0.23016906
1570715563,2.4343872,10.430649,0.9566803,-0.026016235,0.058532715,-0.026000977,0.037364006,0.013020515,-0.23016906
1570715563,2.4343872,10.430649,0.9566803,-0.026016235,0.058532715,-0.026000977,0.037364006,0.013020515,-0.23016906
1570715563,2.4343872,10.430649,0.9566803,-0.026016235,0.058532715,-0.026000977,0.037364006,0.013020515,-0.23016906
1570715563,2.4343872,10.430649,0.9566803,-0.026016235,0.058532715,-0.026000977,0.037364006,0.013020515,-0.23016906
1570715563,2.4343872,10.430649,0.9566803,-0.026016235,0.058532715,-0.026000977,0.037364006,0.013020515,-0.23016906
1570715563,2.4343872,10.430649,0.9566803,-0.026016235,0.058532715,-0.026000977,0.037364006,0.013020515,-0.23016906
1570715563,2.4343872,10.430649,0.9566803,-0.026016235,0.058532715,-0.026000977,0.037364006,0.013020515,-0.23016906
1570715563,2.4343872,10.430649,0.9566803,-0.026016235,0.058532715,-0.026000977,0.037364006,0.013020515,-0.23016906
1570715563,2.4343872,10.430649,0.9566803,-0.026016235,0.058532715,-0.026000977,0.037364006,0.013020515,-0.23016906
1570715563,2.4343872,10.430649,0.9566803,-0.026016235,0.058532715,-0.026000977,0.037364006,0.013020515,-0.23016906
1570715563,2.4343872,10.430649,0.9566803,-0.026016235,0.058532715,-0.026000977,0.037364006,0.013020515,-0.23016906
1570715563,2.4343872,10.430649,0.9566803,-0.026016235,0.058532715,-0.026000977,0.037364006,0.013020515,-0.23016906
1570715563,2.4343872,10.430649,0.9566803,-0.026016235,0.058532715,-0.026000977,0.037364006,0.013020515,-0.23016906
1570715563,2.4343872,10.430649,0.9566803,-0.026016235,0.058532715,-0.026000977,0.037364006,0.013020515,-0.23016906
1570715563,2.4343872,10.430649,0.9566803,-0.026016235,0.058532715,-0.026000977,0.037364006,0.013020515,-0.23016906
1570715563,2.4343872,10.430649,0.9566803,-0.026016235,0.058532715,-0.026000977,0.037364006,0.013020515,-0.23016906
1570715563,2.4343872,10.430649,0.9566803,-0.026016235,0.058532715,-0.026000977,0.037364006,0.013020515,-0.23016906
1570715563,2.4343872,10.430649,0.9566803,-0.026016235,0.058532715,-0.026000977,0.037364006,0.013020515,-0.23016906
1570715563,2.4343872,10.430649,0.9566803,-0.026016235,0.058532715,-0.026000977,0.037364006,0.013020515,-0.23016906
1570715563,2.4343872,10.430649,0.9566803,-0.026016235,0.058532715,-0.026000977,0.037364006,0.013020515,-0.23016906
1570715563,2.4343872,10.430649,0.9566803,-0.026016235,0.058532715,-0.026000977,0.037364006,0.013020515,-0.23016906
1570715563,2.4343872,10.430649,0.9566803,-0.026016235,0.058532715,-0.026000977,0.037364006,0.013020515,-0.23016906
1570715563,2.4343872,10.430649,0.9566803,-0.026016235,0.058532715,-0.026000977,0.037364006,0.013020515,-0.23016906
1570715563,2.4343872,10.430649,0.9566803,-0.026016235,0.058532715,-0.026000977,0.037364006,0.013020515,-0.23016906
1570715563,2.4343872,10.430649,0.9566803,-0.026016235,0.058532715,-0.026000977,0.037364006,0.013020515,-0.23016906
1570715563,2.4343872,10.430649,0.9566803,-0.026016235,0.058532715,-0.026000977,0.037364006,0.013020515,-0.23016906
1570715563,2.4343872,10.430649,0.9566803,-0.026016235,0.058532715,-0.026000977,0.037364006,0.013020515,-0.23016906
1570715563,2.4343872,10.430649,0.9566803,-0.026016235,0.058532715,-0.026000977,0.037364006,0.013020515,-0.23016906
1570715563,2.4343872,10.430649,0.9566803,-0.026016235,0.058532715,-0.026000977,0.037364006,0.013020515,-0.23016906
1570715563,2.4343872,10.430649,0.9566803,-0.026016235,0.058532715,-0.026000977,0.037364006,0.013020515,-0.23016906
1570715563,2.4343872,10.430649,0.9566803,-0.026016235,0.058532715,-0.026000977,0.037364006,0.013020515,-0.23016906
1570715563,2.4343872,10.430649,0.9566803,-0.026016235,0.058532715,-0.026000977,0.037364006,0.013020515,-0.23016906
1570715563,2.4343872,10.430649,0.9566803,-0.026016235,0.058532715,-0.026000977,0.037364006,0.013020515,-0.23016906
1570715563,2.4343872,10.430649,0.9566803,-0.026016235,0.058532715,-0.026000977,0.037364006,0.013020515,-0.23016906
1570715563,2.4343872,10.430649,0.9566803,-0.026016235,0.058532715,-0.026000977,0.037364006,0.013020515,-0.23016906
1570715563,2.4343872,10.430649,0.9566803,-0.026016235,0.058532715,-0.026000977,0.037364006,0.013020515,-0.23016906
1570715563,2.4343872,10.430649,0.9566803,-0.026016235,0.058532715,-0.026000977,0.037364006,0.013020515,-0.23016906
1570715563,2.4343872,10.430649,0.9566803,-0.026016235,0.058532715,-0.026000977,0.037364006,0.013020515,-0.23016906
1570715563,2.4343872,10.430649,0.9566803,-0.026016235,0.058532715,-0.026000977,0.037364006,0.013020515,-0.23016906
1570715563,2.4343872,10.430649,0.9566803,-0.026016235,0.058532715,-0.026000977,0.037364006,0.013020515,-0.23016906
1570715563,2.4343872,10.430649,0.9566803,-0.026016235,0.058532715,-0.026000977,0.037364006,0.013020515,-0.23016906
1570715563,2.4343872,10.430649,0.9566803,-0.026016235,0.058532715,-0.026000977,0.037364006,0.013020515,-0.23016906
1570715563,2.4343872,10.430649,0.9566803,-0.026016235,0.058532715,-0.026000977,0.037364006,0.013020515,-0.23016906
1570715563,2.4343872,10.430649,0.9566803,-0.026016235,0.058532715,-0.026000977,0.037364006,0.013020515,-0.23016906
1570715563,2.4343872,10.430649,0.9566803,-0.026016235,0.058532715,-0.026000977,0.037364006,0.013020515,-0.23016906
1570715563,2.4343872,10.430649,0.9566803,-0.026016235,0.058532715,-0.026000977,0.037364006,0.013020515,-0.23016906
1570715563,2.4343872,10.430649,0.9566803,-0.026016235,0.058532715,-0.026000977,0.037364006,0.013020515,-0.23016906
1570715563,2.4343872,10.430649,0.9566803,-0.026016235,0.058532715,-0.026000977,0.037364006,0.013020515,-0.23016906
1570715563,2.4343872,10.430649,0.9566803,-0.026016235,0.058532715,-0.026000977,0.037364006,0.013020515,-0.23016906
1570715563,2.4343872,10.430649,0.9566803,-0.026016235,0.058532715,-0.026000977,0.037364006,0.013020515,-0.23016906
1570715563,2.4343872,10.430649,0.9566803,-0.026016235,0.058532715,-0.026000977,0.037364006,0.013020515,-0.23016906
1570715563,2.4343872,10.430649,0.9566803,-0.026016235,0.058532715,-0.026000977,0.037364006,0.013020515,-0.23016906
1570715563,2.4343872,10.430649,0.9566803,-0.026016235,0.058532715,-0.026000977,0.037364006,0.013020515,-0.23016906
1570715563,2.4343872,10.430649,0.9566803,-0.026016235,0.058532715,-0.026000977,0.037364006,0.013020515,-0.23016906
1570715563,2.4343872,10.430649,0.9566803,-0.026016235,0.058532715,-0.026000977,0.037364006,0.013020515,-0.23016906
1570715563,2.4343872,10.430649,0.9566803,-0.026016235,0.058532715,-0.026000977,0.037364006,0.013020515,-0.23016906
1570715563,2.4343872,10.430649,0.9566803,-0.026016235,0.058532715,-0.026000977,0.037364006,0.013020515,-0.23016906
1570715563,2.4343872,10.430649,0.9566803,-0.026016235,0.058532715,-0.026000977,0.037364006,0.013020515,-0.23016906
1570715563,2.4343872,10.430649,0.9566803,-0.026016235,0.058532715,-0.026000977,0.037364006,0.013020515,-0.23016906
1570715563,2.4343872,10.430649,0.9566803,-0.026016235,0.058532715,-0.026000977,0.037364006,0.013020515,-0.23016906
1570715563,2.4343872,10.430649,0.9566803,-0.026016235,0.058532715,-0.026000977,0.037364006,0.013020515,-0.23016906
1570715563,2.4343872,10.430649,0.9566803,-0.026016235,0.058532715,-0.026000977,0.037364006,0.013020515,-0.23016906
1570715563,2.4343872,10.430649,0.9566803,-0.026016235,0.058532715,-0.026000977,0.037364006,0.013020515,-0.23016906
1570715563,2.4343872,10.430649,0.9566803,-0.026016235,0.058532715,-0.026000977,0.037364006,0.013020515,-0.23016906
1570715563,2.4343872,10.430649,0.9566803,-0.026016235,0.058532715,-0.026000977,0.037364006,0.013020515,-0.23016906
1570715563,2.4343872,10.430649,0.9566803,-0.026016235,0.058532715,-0.026000977,0.037364006,0.013020515,-0.23016906
1570715563,2.4343872,10.430649,0.9566803,-0.026016235,0.058532715,-0.026000977,0.037364006,0.013020515,-0.23016906
1570715563,2.4343872,10.430649,0.9566803,-0.026016235,0.058532715,-0.026000977,0.037364006,0.013020515,-0.23016906
1570715563,2.4343872,10.430649,0.9566803,-0.026016235,0.058532715,-0.026000977,0.037364006,0.013020515,-0.23016906
1570715563,2.4343872,10.430649,0.9566803,-0.026016235,0.058532715,-0.026000977,0.037364006,0.013020515,-0.23016906
1570715563,2.4343872,10.430649,0.9566803,-0.026016235,0.058532715,-0.026000977,0.037364006,0.013020515,-0.23016906
1570715563,2.4343872,10.430649,0.9566803,-0.026016235,0.058532715,-0.026000977,0.037364006,0.013020515,-0.23016906
1570715563,2.4343872,10.430649,0.9566803,-0.026016235,0.058532715,-0.026000977,0.037364006,0.013020515,-0.23016906
1570715563,2.4343872,10.430649,0.9566803,-0.026016235,0.058532715,-0.026000977,0.037364006,0.013020515,-0.23016906
1570715563,2.4343872,10.430649,0.9566803,-0.026016235,0.058532715,-0.026000977,0.037364006,0.013020515,-0.23016906
1570715563,2.4343872,10.430649,0.9566803,-0.026016235,0.058532715,-0.026000977,0.037364006,0.013020515,-0.23016906
1570715563,2.4343872,10.430649,0.9566803,-0.026016235,0.058532715,-0.026000977,0.037364006,0.013020515,-0.23016906
1570715563,2.4343872,10.430649,0.9566803,-0.026016235,0.058532715,-0.026000977,0.037364006,0.013020515,-0.23016906
1570715563,2.4343872,10.430649,0.9566803,-0.026016235,0.058532715,-0.026000977,0.037364006,0.013020515,-0.23016906
1570715563,2.4343872,10.430649,0.9566803,-0.026016235,0.058532715,-0.026000977,0.037364006,0.013020515,-0.23016906
1570715563,2.4343872,10.430649,0.9566803,-0.026016235,0.058532715,-0.026000977,0.037364006,0.013020515,-0.23016906
1570715563,2.4343872,10.430649,0.9566803,-0.026016235,0.058532715,-0.026000977,0.037364006,0.013020515,-0.23016906
1570715563,2.4343872,10.430649,0.9566803,-0.026016235,0.058532715,-0.026000977,0.037364006,0.013020515,-0.23016906
1570715563,2.4343872,10.430649,0.9566803,-0.026016235,0.058532715,-0.026000977,0.037364006,0.013020515,-0.23016906
1570715563,2.4343872,10.430649,0.9566803,-0.026016235,0.058532715,-0.026000977,0.037364006,0.013020515,-0.23016906
1570715563,2.4343872,10.430649,0.9566803,-0.026016235,0.058532715,-0.026000977,0.037364006,0.013020515,-0.23016906
1570715563,2.4343872,10.430649,0.9566803,-0.026016235,0.058532715,-0.026000977,0.037364006,0.013020515,-0.23016906
1570715563,2.4343872,10.430649,0.9566803,-0.026016235,0.058532715,-0.026000977,0.037364006,0.013020515,-0.23016906
1570715563,2.4343872,10.430649,0.9566803,-0.026016235,0.058532715,-0.026000977,0.037364006,0.013020515,-0.23016906
1570715563,2.4343872,10.430649,0.9566803,-0.026016235,0.058532715,-0.026000977,0.037364006,0.013020515,-0.23016906
1570715563,2.4343872,10.430649,0.9566803,-0.026016235,0.058532715,-0.026000977,0.037364006,0.013020515,-0.23016906
1570715563,2.4343872,10.430649,0.9566803,-0.026016235,0.058532715,-0.026000977,0.037364006,0.013020515,-0.23016906
1570715563,2.4343872,10.430649,0.9566803,-0.026016235,0.058532715,-0.026000977,0.037364006,0.013020515,-0.23016906
1570715563,2.4343872,10.430649,0.9566803,-0.026016235,0.058532715,-0.026000977,0.037364006,0.013020515,-0.23016906
1570715563,2.4343872,10.430649,0.9566803,-0.026016235,0.058532715,-0.026000977,0.037364006,0.013020515,-0.23016906
1570715563,2.4343872,10.430649,0.9566803,-0.026016235,0.058532715,-0.026000977,0.037364006,0.013020515,-0.23016906
1570715563,2.4343872,10.430649,0.9566803,-0.026016235,0.058532715,-0.026000977,0.037364006,0.013020515,-0.23016906
1570715563,2.4343872,10.430649,0.9566803,-0.026016235,0.058532715,-0.026000977,0.037364006,0.013020515,-0.23016906
1570715563,2.4343872,10.430649,0.9566803,-0.026016235,0.058532715,-0.026000977,0.037364006,0.013020515,-0.23016906
1570715563,2.4343872,10.430649,0.9566803,-0.026016235,0.058532715,-0.026000977,0.037364006,0.013020515,-0.23016906
1570715563,2.4343872,10.430649,0.9566803,-0.026016235,0.058532715,-0.026000977,0.037364006,0.013020515,-0.23016906
1570715563,2.4343872,10.430649,0.9566803,-0.026016235,0.058532715,-0.026000977,0.037364006,0.013020515,-0.23016906
1570715563,2.4343872,10.430649,0.9566803,-0.026016235,0.058532715,-0.026000977,0.037364006,0.013020515,-0.23016906
1570715563,2.4343872,10.430649,0.9566803,-0.026016235,0.058532715,-0.026000977,0.037364006,0.013020515,-0.23016906
1570715563,2.4343872,10.430649,0.9566803,-0.026016235,0.058532715,-0.026000977,0.037364006,0.013020515,-0.23016906
1570715563,2.4343872,10.430649,0.9566803,-0.026016235,0.058532715,-0.026000977,0.037364006,0.013020515,-0.23016906
1570715563,2.4343872,10.430649,0.9566803,-0.026016235,0.058532715,-0.026000977,0.037364006,0.013020515,-0.23016906
1570715563,2.4343872,10.430649,0.9566803,-0.026016235,0.058532715,-0.026000977,0.037364006,0.013020515,-0.23016906
1570715563,2.4343872,10.430649,0.9566803,-0.026016235,0.058532715,-0.026000977,0.037364006,0.013020515,-0.23016906
1570715563,2.4343872,10.430649,0.9566803,-0.026016235,0.058532715,-0.026000977,0.037364006,0.013020515,-0.23016906
1570715563,2.4343872,10.430649,0.9566803,-0.026016235,0.058532715,-0.026000977,0.037364006,0.013020515,-0.23016906
1570715563,2.4343872,10.430649,0.9566803,-0.026016235,0.058532715,-0.026000977,0.037364006,0.013020515,-0.23016906
1570715563,2.4343872,10.430649,0.9566803,-0.026016235,0.058532715,-0.026000977,0.037364006,0.013020515,-0.23016906
1570715563,2.4343872,10.430649,0.9566803,-0.026016235,0.058532715,-0.026000977,0.037364006,0.013020515,-0.23016906
1570715563,2.4343872,10.430649,0.9566803,-0.026016235,0.058532715,-0.026000977,0.037364006,0.013020515,-0.23016906
1570715563,2.4343872,10.430649,0.9566803,-0.026016235,0.058532715,-0.026000977,0.037364006,0.013020515,-0.23016906
1570715563,2.4343872,10.430649,0.9566803,-0.026016235,0.058532715,-0.026000977,0.037364006,0.013020515,-0.23016906
1570715563,2.4343872,10.430649,0.9566803,-0.026016235,0.058532715,-0.026000977,0.037364006,0.013020515,-0.23016906
1570715563,2.4343872,10.430649,0.9566803,-0.026016235,0.058532715,-0.026000977,0.037364006,0.013020515,-0.23016906
1570715563,2.4343872,10.430649,0.9566803,-0.026016235,0.058532715,-0.026000977,0.037364006,0.013020515,-0.23016906
1570715563,2.4343872,10.430649,0.9566803,-0.026016235,0.058532715,-0.026000977,0.037364006,0.013020515,-0.23016906
1570715563,2.4343872,10.430649,0.9566803,-0.026016235,0.058532715,-0.026000977,0.037364006,0.013020515,-0.23016906
1570715563,2.4343872,10.430649,0.9566803,-0.026016235,0.058532715,-0.026000977,0.037364006,0.013020515,-0.23016906
1570715563,2.4343872,10.430649,0.9566803,-0.026016235,0.058532715,-0.026000977,0.037364006,0.013020515,-0.23016906
1570715563,2.4343872,10.430649,0.9566803,-0.026016235,0.058532715,-0.026000977,0.037364006,0.013020515,-0.23016906
1570715563,2.4343872,10.430649,0.9566803,-0.026016235,0.058532715,-0.026000977,0.037364006,0.013020515,-0.23016906
1570715563,2.4343872,10.430649,0.9566803,-0.026016235,0.058532715,-0.026000977,0.037364006,0.013020515,-0.23016906
1570715563,2.4343872,10.430649,0.9566803,-0.026016235,0.058532715,-0.026000977,0.037364006,0.013020515,-0.23016906
1570715563,2.4343872,10.430649,0.9566803,-0.026016235,0.058532715,-0.026000977,0.037364006,0.013020515,-0.23016906
1570715563,2.4343872,10.430649,0.9566803,-0.026016235,0.058532715,-0.026000977,0.037364006,0.013020515,-0.23016906
1570715563,2.4343872,10.430649,0.9566803,-0.026016235,0.058532715,-0.026000977,0.037364006,0.013020515,-0.23016906
1570715563,2.4343872,10.430649,0.9566803,-0.026016235,0.058532715,-0.026000977,0.037364006,0.013020515,-0.23016906
1570715563,2.4343872,10.430649,0.9566803,-0.026016235,0.058532715,-0.026000977,0.037364006,0.013020515,-0.23016906
1570715563,2.4343872,10.430649,0.9566803,-0.026016235,0.058532715,-0.026000977,0.037364006,0.013020515,-0.23016906
1570715563,2.4343872,10.430649,0.9566803,-0.026016235,0.058532715,-0.026000977,0.037364006,0.013020515,-0.23016906
1570715563,2.4343872,10.430649,0.9566803,-0.026016235,0.058532715,-0.026000977,0.037364006,0.013020515,-0.23016906
1570715563,2.4343872,10.430649,0.9566803,-0.026016235,0.058532715,-0.026000977,0.037364006,0.013020515,-0.23016906
1570715563,2.4343872,10.430649,0.9566803,-0.026016235,0.058532715,-0.026000977,0.037364006,0.013020515,-0.23016906
1570715563,2.4343872,10.430649,0.9566803,-0.026016235,0.058532715,-0.026000977,0.037364006,0.013020515,-0.23016906
1570715563,2.4343872,10.430649,0.9566803,-0.026016235,0.058532715,-0.026000977,0.037364006,0.013020515,-0.23016906
1570715563,2.4343872,10.430649,0.9566803,-0.026016235,0.058532715,-0.026000977,0.037364006,0.013020515,-0.23016906
1570715563,2.4343872,10.430649,0.9566803,-0.026016235,0.058532715,-0.026000977,0.037364006,0.013020515,-0.23016906
1570715563,2.4343872,10.430649,0.9566803,-0.026016235,0.058532715,-0.026000977,0.037364006,0.013020515,-0.23016906
1570715563,2.4343872,10.430649,0.9566803,-0.026016235,0.058532715,-0.026000977,0.037364006,0.013020515,-0.23016906
1570715563,2.4343872,10.430649,0.9566803,-0.026016235,0.058532715,-0.026000977,0.037364006,0.013020515,-0.23016906
1570715563,2.4343872,10.430649,0.9566803,-0.026016235,0.058532715,-0.026000977,0.037364006,0.013020515,-0.23016906
1570715563,2.4343872,10.430649,0.9566803,-0.026016235,0.058532715,-0.026000977,0.037364006,0.013020515,-0.23016906
1570715563,2.4343872,10.430649,0.9566803,-0.026016235,0.058532715,-0.026000977,0.037364006,0.013020515,-0.23016906
1570715563,2.4343872,10.430649,0.9566803,-0.026016235,0.058532715,-0.026000977,0.037364006,0.013020515,-0.23016906
1570715563,2.4343872,10.430649,0.9566803,-0.026016235,0.058532715,-0.026000977,0.037364006,0.013020515,-0.23016906
1570715563,2.4343872,10.430649,0.9566803,-0.026016235,0.058532715,-0.026000977,0.037364006,0.013020515,-0.23016906
1570715563,2.4343872,10.430649,0.9566803,-0.026016235,0.058532715,-0.026000977,0.037364006,0.013020515,-0.23016906
1570715563,2.4343872,10.430649,0.9566803,-0.026016235,0.058532715,-0.026000977,0.037364006,0.013020515,-0.23016906
1570715563,2.4343872,10.430649,0.9566803,-0.026016235,0.058532715,-0.026000977,0.037364006,0.013020515,-0.23016906
1570715563,2.4343872,10.430649,0.9566803,-0.026016235,0.058532715,-0.026000977,0.037364006,0.013020515,-0.23016906
1570715563,2.4343872,10.430649,0.9566803,-0.026016235,0.058532715,-0.026000977,0.037364006,0.013020515,-0.23016906
1570715563,2.4343872,10.430649,0.9566803,-0.026016235,0.058532715,-0.026000977,0.037364006,0.013020515,-0.23016906
1570715563,2.4343872,10.430649,0.9566803,-0.026016235,0.058532715,-0.026000977,0.037364006,0.013020515,-0.23016906
1570715563,2.4343872,10.430649,0.9566803,-0.026016235,0.058532715,-0.026000977,0.037364006,0.013020515,-0.23016906
1570715563,2.4343872,10.430649,0.9566803,-0.026016235,0.058532715,-0.026000977,0.037364006,0.013020515,-0.23016906
1570715563,2.4343872,10.430649,0.9566803,-0.026016235,0.058532715,-0.026000977,0.037364006,0.013020515,-0.23016906
1570715563,2.4343872,10.430649,0.9566803,-0.026016235,0.058532715,-0.026000977,0.037364006,0.013020515,-0.23016906
1570715563,2.4343872,10.430649,0.9566803,-0.026016235,0.058532715,-0.026000977,0.037364006,0.013020515,-0.23016906
1570715563,2.4343872,10.430649,0.9566803,-0.026016235,0.058532715,-0.026000977,0.037364006,0.013020515,-0.23016906
1570715563,2.4343872,10.430649,0.9566803,-0.026016235,0.058532715,-0.026000977,0.037364006,0.013020515,-0.23016906
1570715563,2.4343872,10.430649,0.9566803,-0.026016235,0.058532715,-0.026000977,0.037364006,0.013020515,-0.23016906
1570715563,2.4343872,10.430649,0.9566803,-0.026016235,0.058532715,-0.026000977,0.037364006,0.013020515,-0.23016906
1570715563,2.4343872,10.430649,0.9566803,-0.026016235,0.058532715,-0.026000977,0.037364006,0.013020515,-0.23016906
1570715563,2.4343872,10.430649,0.9566803,-0.026016235,0.058532715,-0.026000977,0.037364006,0.013020515,-0.23016906
1570715563,2.4343872,10.430649,0.9566803,-0.026016235,0.058532715,-0.026000977,0.037364006,0.013020515,-0.23016906
1570715563,2.4343872,10.430649,0.9566803,-0.026016235,0.058532715,-0.026000977,0.037364006,0.013020515,-0.23016906
1570715563,2.4343872,10.430649,0.9566803,-0.026016235,0.058532715,-0.026000977,0.037364006,0.013020515,-0.23016906
1570715563,2.4343872,10.430649,0.9566803,-0.026016235,0.058532715,-0.026000977,0.037364006,0.013020515,-0.23016906
1570715563,2.4343872,10.430649,0.9566803,-0.026016235,0.058532715,-0.026000977,0.037364006,0.013020515,-0.23016906
1570715563,2.4343872,10.430649,0.9566803,-0.026016235,0.058532715,-0.026000977,0.037364006,0.013020515,-0.23016906
1570715563,2.4343872,10.430649,0.9566803,-0.026016235,0.058532715,-0.026000977,0.037364006,0.013020515,-0.23016906
1570715563,2.4343872,10.430649,0.9566803,-0.026016235,0.058532715,-0.026000977,0.037364006,0.013020515,-0.23016906
1570715563,2.4343872,10.430649,0.9566803,-0.026016235,0.058532715,-0.026000977,0.037364006,0.013020515,-0.23016906
1570715563,2.4343872,10.430649,0.9566803,-0.026016235,0.058532715,-0.026000977,0.037364006,0.013020515,-0.23016906
1570715563,2.4343872,10.430649,0.9566803,-0.026016235,0.058532715,-0.026000977,0.037364006,0.013020515,-0.23016906
1570715563,2.4343872,10.430649,0.9566803,-0.026016235,0.058532715,-0.026000977,0.037364006,0.013020515,-0.23016906
1570715563,2.4343872,10.430649,0.9566803,-0.026016235,0.058532715,-0.026000977,0.037364006,0.013020515,-0.23016906
1570715563,2.4343872,10.430649,0.9566803,-0.026016235,0.058532715,-0.026000977,0.037364006,0.013020515,-0.23016906
1570715563,2.4343872,10.430649,0.9566803,-0.026016235,0.058532715,-0.026000977,0.037364006,0.013020515,-0.23016906
1570715563,2.4343872,10.430649,0.9566803,-0.026016235,0.058532715,-0.026000977,0.037364006,0.013020515,-0.23016906
1570715563,2.4343872,10.430649,0.9566803,-0.026016235,0.058532715,-0.026000977,0.037364006,0.013020515,-0.23016906
1570715563,2.4343872,10.430649,0.9566803,-0.026016235,0.058532715,-0.026000977,0.037364006,0.013020515,-0.23016906
1570715563,2.4343872,10.430649,0.9566803,-0.026016235,0.058532715,-0.026000977,0.037364006,0.013020515,-0.23016906
1570715563,2.4343872,10.430649,0.9566803,-0.026016235,0.058532715,-0.026000977,0.037364006,0.013020515,-0.23016906
1570715563,2.4343872,10.430649,0.9566803,-0.026016235,0.058532715,-0.026000977,0.037364006,0.013020515,-0.23016906
1570715563,2.4343872,10.430649,0.9566803,-0.026016235,0.058532715,-0.026000977,0.037364006,0.013020515,-0.23016906
1570715563,2.4343872,10.430649,0.9566803,-0.026016235,0.058532715,-0.026000977,0.037364006,0.013020515,-0.23016906
1570715563,2.4343872,10.430649,0.9566803,-0.026016235,0.058532715,-0.026000977,0.037364006,0.013020515,-0.23016906
1570715563,2.4343872,10.430649,0.9566803,-0.026016235,0.058532715,-0.026000977,0.037364006,0.013020515,-0.23016906
1570715563,2.4343872,10.430649,0.9566803,-0.026016235,0.058532715,-0.026000977,0.037364006,0.013020515,-0.23016906
1570715563,2.4343872,10.430649,0.9566803,-0.026016235,0.058532715,-0.026000977,0.037364006,0.013020515,-0.23016906
1570715563,2.4343872,10.430649,0.9566803,-0.026016235,0.058532715,-0.026000977,0.037364006,0.013020515,-0.23016906
1570715563,2.4343872,10.430649,0.9566803,-0.026016235,0.058532715,-0.026000977,0.037364006,0.013020515,-0.23016906
1570715563,2.4343872,10.430649,0.9566803,-0.026016235,0.058532715,-0.026000977,0.037364006,0.013020515,-0.23016906
1570715563,2.4343872,10.430649,0.9566803,-0.026016235,0.058532715,-0.026000977,0.037364006,0.013020515,-0.23016906
1570715563,2.4343872,10.430649,0.9566803,-0.026016235,0.058532715,-0.026000977,0.037364006,0.013020515,-0.23016906
1570715563,2.4343872,10.430649,0.9566803,-0.026016235,0.058532715,-0.026000977,0.037364006,0.013020515,-0.23016906
1570715563,2.4343872,10.430649,0.9566803,-0.026016235,0.058532715,-0.026000977,0.037364006,0.013020515,-0.23016906
1570715563,2.4343872,10.430649,0.9566803,-0.026016235,0.058532715,-0.026000977,0.037364006,0.013020515,-0.23016906
1570715563,2.4343872,10.430649,0.9566803,-0.026016235,0.058532715,-0.026000977,0.037364006,0.013020515,-0.23016906
1570715563,2.4343872,10.430649,0.9566803,-0.026016235,0.058532715,-0.026000977,0.037364006,0.013020515,-0.23016906
1570715563,2.4343872,10.430649,0.9566803,-0.026016235,0.058532715,-0.026000977,0.037364006,0.013020515,-0.23016906
1570715563,2.4343872,10.430649,0.9566803,-0.026016235,0.058532715,-0.026000977,0.037364006,0.013020515,-0.23016906
1570715563,2.4343872,10.430649,0.9566803,-0.026016235,0.058532715,-0.026000977,0.037364006,0.013020515,-0.23016906
1570715563,2.4343872,10.430649,0.9566803,-0.026016235,0.058532715,-0.026000977,0.037364006,0.013020515,-0.23016906
1570715563,2.4343872,10.430649,0.9566803,-0.026016235,0.058532715,-0.026000977,0.037364006,0.013020515,-0.23016906
1570715563,2.4343872,10.430649,0.9566803,-0.026016235,0.058532715,-0.026000977,0.037364006,0.013020515,-0.23016906
1570715563,2.4343872,10.430649,0.9566803,-0.026016235,0.058532715,-0.026000977,0.037364006,0.013020515,-0.23016906
1570715563,2.4343872,10.430649,0.9566803,-0.026016235,0.058532715,-0.026000977,0.037364006,0.013020515,-0.23016906
1570715563,2.4343872,10.430649,0.9566803,-0.026016235,0.058532715,-0.026000977,0.037364006,0.013020515,-0.23016906
1570715563,2.4343872,10.430649,0.9566803,-0.026016235,0.058532715,-0.026000977,0.037364006,0.013020515,-0.23016906
1570715563,2.4343872,10.430649,0.9566803,-0.026016235,0.058532715,-0.026000977,0.037364006,0.013020515,-0.23016906
1570715563,2.4343872,10.430649,0.9566803,-0.026016235,0.058532715,-0.026000977,0.037364006,0.013020515,-0.23016906
1570715563,2.4343872,10.430649,0.9566803,-0.026016235,0.058532715,-0.026000977,0.037364006,0.013020515,-0.23016906
1570715563,2.4343872,10.430649,0.9566803,-0.026016235,0.058532715,-0.026000977,0.037364006,0.013020515,-0.23016906
1570715563,2.4343872,10.430649,0.9566803,-0.026016235,0.058532715,-0.026000977,0.037364006,0.013020515,-0.23016906
1570715563,2.4343872,10.430649,0.9566803,-0.026016235,0.058532715,-0.026000977,0.037364006,0.013020515,-0.23016906
1570715563,2.4343872,10.430649,0.9566803,-0.026016235,0.058532715,-0.026000977,0.037364006,0.013020515,-0.23016906
1570715563,2.4343872,10.430649,0.9566803,-0.026016235,0.058532715,-0.026000977,0.037364006,0.013020515,-0.23016906
1570715563,2.4343872,10.430649,0.9566803,-0.026016235,0.058532715,-0.026000977,0.037364006,0.013020515,-0.23016906
1570715563,2.4343872,10.430649,0.9566803,-0.026016235,0.058532715,-0.026000977,0.037364006,0.013020515,-0.23016906
1570715563,2.4343872,10.430649,0.9566803,-0.026016235,0.058532715,-0.026000977,0.037364006,0.013020515,-0.23016906
1570715563,2.4343872,10.430649,0.9566803,-0.026016235,0.058532715,-0.026000977,0.037364006,0.013020515,-0.23016906
1570715563,2.4343872,10.430649,0.9566803,-0.026016235,0.058532715,-0.026000977,0.037364006,0.013020515,-0.23016906
1570715563,2.4343872,10.430649,0.9566803,-0.026016235,0.058532715,-0.026000977,0.037364006,0.013020515,-0.23016906
1570715563,2.4343872,10.430649,0.9566803,-0.026016235,0.058532715,-0.026000977,0.037364006,0.013020515,-0.23016906
1570715563,2.4343872,10.430649,0.9566803,-0.026016235,0.058532715,-0.026000977,0.037364006,0.013020515,-0.23016906
1570715563,2.4343872,10.430649,0.9566803,-0.026016235,0.058532715,-0.026000977,0.037364006,0.013020515,-0.23016906
1570715563,2.4343872,10.430649,0.9566803,-0.026016235,0.058532715,-0.026000977,0.037364006,0.013020515,-0.23016906
1570715563,2.4343872,10.430649,0.9566803,-0.026016235,0.058532715,-0.026000977,0.037364006,0.013020515,-0.23016906
1570715563,2.4343872,10.430649,0.9566803,-0.026016235,0.058532715,-0.026000977,0.037364006,0.013020515,-0.23016906
1570715563,2.4343872,10.430649,0.9566803,-0.026016235,0.058532715,-0.026000977,0.037364006,0.013020515,-0.23016906
1570715563,2.4343872,10.430649,0.9566803,-0.026016235,0.058532715,-0.026000977,0.037364006,0.013020515,-0.23016906
1570715563,2.4343872,10.430649,0.9566803,-0.026016235,0.058532715,-0.026000977,0.037364006,0.013020515,-0.23016906
1570715563,2.4343872,10.430649,0.9566803,-0.026016235,0.058532715,-0.026000977,0.037364006,0.013020515,-0.23016906
1570715563,2.4343872,10.430649,0.9566803,-0.026016235,0.058532715,-0.026000977,0.037364006,0.013020515,-0.23016906
1570715564,2.4343872,10.430649,0.9566803,-0.026016235,0.058532715,-0.026000977,0.037364006,0.013020515,-0.23016906
1570715564,2.4343872,10.430649,0.9566803,-0.026016235,0.058532715,-0.026000977,0.037364006,0.013020515,-0.23016906
1570715564,1.9160309,10.4414215,1.5851593,-0.026016235,0.058532715,-0.026000977,-0.04144168,-0.0720377,0.03416121
1570715567,1.9160309,10.4414215,1.5851593,-0.026016235,0.058532715,-0.026000977,-0.04144168,-0.0720377,0.03416121
1570715567,1.9160309,10.4414215,1.5851593,-0.026016235,0.058532715,-0.026000977,-0.04144168,-0.0720377,0.03416121
1570715567,1.9160309,10.4414215,1.5851593,-0.026016235,0.058532715,-0.026000977,-0.04144168,-0.0720377,0.03416121
1570715567,1.9160309,10.4414215,1.5851593,-0.026016235,0.058532715,-0.026000977,-0.04144168,-0.0720377,0.03416121
1570715567,1.9160309,10.4414215,1.5851593,-0.026016235,0.058532715,-0.026000977,-0.04144168,-0.0720377,0.03416121
1570715567,1.9160309,10.4414215,1.5851593,-0.026016235,0.058532715,-0.026000977,-0.04144168,-0.0720377,0.03416121
1570715567,1.9160309,10.4414215,1.5851593,-0.026016235,0.058532715,-0.026000977,-0.04144168,-0.0720377,0.03416121
1570715567,1.9160309,10.4414215,1.5851593,-0.026016235,0.058532715,-0.026000977,-0.04144168,-0.0720377,0.03416121
1570715567,1.9160309,10.4414215,1.5851593,-0.026016235,0.058532715,-0.026000977,-0.04144168,-0.0720377,0.03416121
1570715567,1.9160309,10.4414215,1.5851593,-0.026016235,0.058532715,-0.026000977,-0.04144168,-0.0720377,0.03416121
1570715567,1.9160309,10.4414215,1.5851593,-0.026016235,0.058532715,-0.026000977,-0.04144168,-0.0720377,0.03416121
1570715567,1.9160309,10.4414215,1.5851593,-0.026016235,0.058532715,-0.026000977,-0.04144168,-0.0720377,0.03416121
1570715567,1.9160309,10.4414215,1.5851593,-0.026016235,0.058532715,-0.026000977,-0.04144168,-0.0720377,0.03416121
1570715567,1.9160309,10.4414215,1.5851593,-0.026016235,0.058532715,-0.026000977,-0.04144168,-0.0720377,0.03416121
1570715567,1.9160309,10.4414215,1.5851593,-0.026016235,0.058532715,-0.026000977,-0.04144168,-0.0720377,0.03416121
1570715567,1.9160309,10.4414215,1.5851593,-0.026016235,0.058532715,-0.026000977,-0.04144168,-0.0720377,0.03416121
1570715567,1.9160309,10.4414215,1.5851593,-0.026016235,0.058532715,-0.026000977,-0.04144168,-0.0720377,0.03416121
1570715567,1.9160309,10.4414215,1.5851593,-0.026016235,0.058532715,-0.026000977,-0.04144168,-0.0720377,0.03416121
1570715567,1.9160309,10.4414215,1.5851593,-0.026016235,0.058532715,-0.026000977,-0.04144168,-0.0720377,0.03416121
1570715567,1.9160309,10.4414215,1.5851593,-0.026016235,0.058532715,-0.026000977,-0.04144168,-0.0720377,0.03416121
1570715567,1.9160309,10.4414215,1.5851593,-0.026016235,0.058532715,-0.026000977,-0.04144168,-0.0720377,0.03416121
1570715567,1.9160309,10.4414215,1.5851593,-0.026016235,0.058532715,-0.026000977,-0.04144168,-0.0720377,0.03416121
1570715567,1.9160309,10.4414215,1.5851593,-0.026016235,0.058532715,-0.026000977,-0.04144168,-0.0720377,0.03416121
1570715567,1.9160309,10.4414215,1.5851593,-0.026016235,0.058532715,-0.026000977,-0.04144168,-0.0720377,0.03416121
1570715567,1.9160309,10.4414215,1.5851593,-0.026016235,0.058532715,-0.026000977,-0.04144168,-0.0720377,0.03416121
1570715567,1.9160309,10.4414215,1.5851593,-0.026016235,0.058532715,-0.026000977,-0.04144168,-0.0720377,0.03416121
1570715567,1.9160309,10.4414215,1.5851593,-0.026016235,0.058532715,-0.026000977,-0.04144168,-0.0720377,0.03416121
1570715567,1.9160309,10.4414215,1.5851593,-0.026016235,0.058532715,-0.026000977,-0.04144168,-0.0720377,0.03416121
1570715567,1.9160309,10.4414215,1.5851593,-0.026016235,0.058532715,-0.026000977,-0.04144168,-0.0720377,0.03416121
1570715567,1.9160309,10.4414215,1.5851593,-0.026016235,0.058532715,-0.026000977,-0.04144168,-0.0720377,0.03416121
1570715567,1.9160309,10.4414215,1.5851593,-0.026016235,0.058532715,-0.026000977,-0.04144168,-0.0720377,0.03416121
1570715567,1.9160309,10.4414215,1.5851593,-0.026016235,0.058532715,-0.026000977,-0.04144168,-0.0720377,0.03416121
1570715567,1.9160309,10.4414215,1.5851593,-0.026016235,0.058532715,-0.026000977,-0.04144168,-0.0720377,0.03416121
1570715567,1.9160309,10.4414215,1.5851593,-0.026016235,0.058532715,-0.026000977,-0.04144168,-0.0720377,0.03416121
1570715567,1.9160309,10.4414215,1.5851593,-0.026016235,0.058532715,-0.026000977,-0.04144168,-0.0720377,0.03416121
1570715567,1.9160309,10.4414215,1.5851593,-0.026016235,0.058532715,-0.026000977,-0.04144168,-0.0720377,0.03416121
1570715567,1.9160309,10.4414215,1.5851593,-0.026016235,0.058532715,-0.026000977,-0.04144168,-0.0720377,0.03416121
1570715567,1.9160309,10.4414215,1.5851593,-0.026016235,0.058532715,-0.026000977,-0.04144168,-0.0720377,0.03416121
1570715567,1.9160309,10.4414215,1.5851593,-0.026016235,0.058532715,-0.026000977,-0.04144168,-0.0720377,0.03416121
1570715567,1.9160309,10.4414215,1.5851593,-0.026016235,0.058532715,-0.026000977,-0.04144168,-0.0720377,0.03416121
1570715567,1.9160309,10.4414215,1.5851593,-0.026016235,0.058532715,-0.026000977,-0.04144168,-0.0720377,0.03416121
1570715567,1.9160309,10.4414215,1.5851593,-0.026016235,0.058532715,-0.026000977,-0.04144168,-0.0720377,0.03416121
1570715567,1.9160309,10.4414215,1.5851593,-0.026016235,0.058532715,-0.026000977,-0.04144168,-0.0720377,0.03416121
1570715567,1.9160309,10.4414215,1.5851593,-0.026016235,0.058532715,-0.026000977,-0.04144168,-0.0720377,0.03416121
1570715567,1.9160309,10.4414215,1.5851593,-0.026016235,0.058532715,-0.026000977,-0.04144168,-0.0720377,0.03416121
1570715567,1.9160309,10.4414215,1.5851593,-0.026016235,0.058532715,-0.026000977,-0.04144168,-0.0720377,0.03416121
1570715567,1.9160309,10.4414215,1.5851593,-0.026016235,0.058532715,-0.026000977,-0.04144168,-0.0720377,0.03416121
1570715567,1.9160309,10.4414215,1.5851593,-0.026016235,0.058532715,-0.026000977,-0.04144168,-0.0720377,0.03416121
1570715567,1.9160309,10.4414215,1.5851593,-0.026016235,0.058532715,-0.026000977,-0.04144168,-0.0720377,0.03416121
1570715567,1.9160309,10.4414215,1.5851593,-0.026016235,0.058532715,-0.026000977,-0.04144168,-0.0720377,0.03416121
1570715567,1.9160309,10.4414215,1.5851593,-0.026016235,0.058532715,-0.026000977,-0.04144168,-0.0720377,0.03416121
1570715567,1.9160309,10.4414215,1.5851593,-0.026016235,0.058532715,-0.026000977,-0.04144168,-0.0720377,0.03416121
1570715567,1.9160309,10.4414215,1.5851593,-0.026016235,0.058532715,-0.026000977,-0.04144168,-0.0720377,0.03416121
1570715567,1.9160309,10.4414215,1.5851593,-0.026016235,0.058532715,-0.026000977,-0.04144168,-0.0720377,0.03416121
1570715567,1.9160309,10.4414215,1.5851593,-0.026016235,0.058532715,-0.026000977,-0.04144168,-0.0720377,0.03416121
1570715567,1.9160309,10.4414215,1.5851593,-0.026016235,0.058532715,-0.026000977,-0.04144168,-0.0720377,0.03416121
1570715567,1.9160309,10.4414215,1.5851593,-0.026016235,0.058532715,-0.026000977,-0.04144168,-0.0720377,0.03416121
1570715567,1.9160309,10.4414215,1.5851593,-0.026016235,0.058532715,-0.026000977,-0.04144168,-0.0720377,0.03416121
1570715567,1.9160309,10.4414215,1.5851593,-0.026016235,0.058532715,-0.026000977,-0.04144168,-0.0720377,0.03416121
1570715567,1.9160309,10.4414215,1.5851593,-0.026016235,0.058532715,-0.026000977,-0.04144168,-0.0720377,0.03416121
1570715567,1.9160309,10.4414215,1.5851593,-0.026016235,0.058532715,-0.026000977,-0.04144168,-0.0720377,0.03416121
1570715567,1.9160309,10.4414215,1.5851593,-0.026016235,0.058532715,-0.026000977,-0.04144168,-0.0720377,0.03416121
1570715567,1.9160309,10.4414215,1.5851593,-0.026016235,0.058532715,-0.026000977,-0.04144168,-0.0720377,0.03416121
1570715567,1.9160309,10.4414215,1.5851593,-0.026016235,0.058532715,-0.026000977,-0.04144168,-0.0720377,0.03416121
1570715567,1.9160309,10.4414215,1.5851593,-0.026016235,0.058532715,-0.026000977,-0.04144168,-0.0720377,0.03416121
1570715567,1.9160309,10.4414215,1.5851593,-0.026016235,0.058532715,-0.026000977,-0.04144168,-0.0720377,0.03416121
1570715567,1.9160309,10.4414215,1.5851593,-0.026016235,0.058532715,-0.026000977,-0.04144168,-0.0720377,0.03416121
1570715567,1.9160309,10.4414215,1.5851593,-0.026016235,0.058532715,-0.026000977,-0.04144168,-0.0720377,0.03416121
1570715567,1.9160309,10.4414215,1.5851593,-0.026016235,0.058532715,-0.026000977,-0.04144168,-0.0720377,0.03416121
1570715567,1.9160309,10.4414215,1.5851593,-0.026016235,0.058532715,-0.026000977,-0.04144168,-0.0720377,0.03416121
1570715567,1.9160309,10.4414215,1.5851593,-0.026016235,0.058532715,-0.026000977,-0.04144168,-0.0720377,0.03416121
1570715567,1.9160309,10.4414215,1.5851593,-0.026016235,0.058532715,-0.026000977,-0.04144168,-0.0720377,0.03416121
1570715567,1.9160309,10.4414215,1.5851593,-0.026016235,0.058532715,-0.026000977,-0.04144168,-0.0720377,0.03416121
1570715567,1.9160309,10.4414215,1.5851593,-0.026016235,0.058532715,-0.026000977,-0.04144168,-0.0720377,0.03416121
1570715567,1.9160309,10.4414215,1.5851593,-0.026016235,0.058532715,-0.026000977,-0.04144168,-0.0720377,0.03416121
1570715567,1.9160309,10.4414215,1.5851593,-0.026016235,0.058532715,-0.026000977,-0.04144168,-0.0720377,0.03416121
1570715567,1.9160309,10.4414215,1.5851593,-0.026016235,0.058532715,-0.026000977,-0.04144168,-0.0720377,0.03416121
1570715567,1.9160309,10.4414215,1.5851593,-0.026016235,0.058532715,-0.026000977,-0.04144168,-0.0720377,0.03416121
1570715567,1.9160309,10.4414215,1.5851593,-0.026016235,0.058532715,-0.026000977,-0.04144168,-0.0720377,0.03416121
1570715567,1.9160309,10.4414215,1.5851593,-0.026016235,0.058532715,-0.026000977,-0.04144168,-0.0720377,0.03416121
1570715567,1.9160309,10.4414215,1.5851593,-0.026016235,0.058532715,-0.026000977,-0.04144168,-0.0720377,0.03416121
1570715567,1.9160309,10.4414215,1.5851593,-0.026016235,0.058532715,-0.026000977,-0.04144168,-0.0720377,0.03416121
1570715567,1.9160309,10.4414215,1.5851593,-0.026016235,0.058532715,-0.026000977,-0.04144168,-0.0720377,0.03416121
1570715567,1.9160309,10.4414215,1.5851593,-0.026016235,0.058532715,-0.026000977,-0.04144168,-0.0720377,0.03416121
1570715567,1.9160309,10.4414215,1.5851593,-0.026016235,0.058532715,-0.026000977,-0.04144168,-0.0720377,0.03416121
1570715567,1.9160309,10.4414215,1.5851593,-0.026016235,0.058532715,-0.026000977,-0.04144168,-0.0720377,0.03416121
1570715567,1.9160309,10.4414215,1.5851593,-0.026016235,0.058532715,-0.026000977,-0.04144168,-0.0720377,0.03416121
1570715567,1.9160309,10.4414215,1.5851593,-0.026016235,0.058532715,-0.026000977,-0.04144168,-0.0720377,0.03416121
1570715567,1.9160309,10.4414215,1.5851593,-0.026016235,0.058532715,-0.026000977,-0.04144168,-0.0720377,0.03416121
1570715567,1.9160309,10.4414215,1.5851593,-0.026016235,0.058532715,-0.026000977,-0.04144168,-0.0720377,0.03416121
1570715567,1.9160309,10.4414215,1.5851593,-0.026016235,0.058532715,-0.026000977,-0.04144168,-0.0720377,0.03416121
1570715567,1.9160309,10.4414215,1.5851593,-0.026016235,0.058532715,-0.026000977,-0.04144168,-0.0720377,0.03416121
1570715567,1.9160309,10.4414215,1.5851593,-0.026016235,0.058532715,-0.026000977,-0.04144168,-0.0720377,0.03416121
1570715567,1.9160309,10.4414215,1.5851593,-0.026016235,0.058532715,-0.026000977,-0.04144168,-0.0720377,0.03416121
1570715567,1.9160309,10.4414215,1.5851593,-0.026016235,0.058532715,-0.026000977,-0.04144168,-0.0720377,0.03416121
1570715567,1.9160309,10.4414215,1.5851593,-0.026016235,0.058532715,-0.026000977,-0.04144168,-0.0720377,0.03416121
1570715567,1.9160309,10.4414215,1.5851593,-0.026016235,0.058532715,-0.026000977,-0.04144168,-0.0720377,0.03416121
1570715567,1.9160309,10.4414215,1.5851593,-0.026016235,0.058532715,-0.026000977,-0.04144168,-0.0720377,0.03416121
1570715567,1.9160309,10.4414215,1.5851593,-0.026016235,0.058532715,-0.026000977,-0.04144168,-0.0720377,0.03416121
1570715567,1.9160309,10.4414215,1.5851593,-0.026016235,0.058532715,-0.026000977,-0.04144168,-0.0720377,0.03416121
1570715567,1.9160309,10.4414215,1.5851593,-0.026016235,0.058532715,-0.026000977,-0.04144168,-0.0720377,0.03416121
1570715567,1.9160309,10.4414215,1.5851593,-0.026016235,0.058532715,-0.026000977,-0.04144168,-0.0720377,0.03416121
1570715567,1.9160309,10.4414215,1.5851593,-0.026016235,0.058532715,-0.026000977,-0.04144168,-0.0720377,0.03416121
1570715567,1.9160309,10.4414215,1.5851593,-0.026016235,0.058532715,-0.026000977,-0.04144168,-0.0720377,0.03416121
1570715567,1.9160309,10.4414215,1.5851593,-0.026016235,0.058532715,-0.026000977,-0.04144168,-0.0720377,0.03416121
1570715567,1.9160309,10.4414215,1.5851593,-0.026016235,0.058532715,-0.026000977,-0.04144168,-0.0720377,0.03416121
1570715567,1.9160309,10.4414215,1.5851593,-0.026016235,0.058532715,-0.026000977,-0.04144168,-0.0720377,0.03416121
1570715567,1.9160309,10.4414215,1.5851593,-0.026016235,0.058532715,-0.026000977,-0.04144168,-0.0720377,0.03416121
1570715567,1.9160309,10.4414215,1.5851593,-0.026016235,0.058532715,-0.026000977,-0.04144168,-0.0720377,0.03416121
1570715567,1.9160309,10.4414215,1.5851593,-0.026016235,0.058532715,-0.026000977,-0.04144168,-0.0720377,0.03416121
1570715567,1.9160309,10.4414215,1.5851593,-0.026016235,0.058532715,-0.026000977,-0.04144168,-0.0720377,0.03416121
1570715567,1.9160309,10.4414215,1.5851593,-0.026016235,0.058532715,-0.026000977,-0.04144168,-0.0720377,0.03416121
1570715567,3.1047516,10.206787,1.2068634,0.1060791,-0.10232544,0.013427734,0.1688776,-0.094142914,0.044065118
1570715567,3.1047516,10.206787,1.2068634,0.1060791,-0.10232544,0.013427734,0.1688776,-0.094142914,0.044065118
1570715567,3.1047516,10.206787,1.2068634,0.1060791,-0.10232544,0.013427734,0.1688776,-0.094142914,0.044065118
1570715567,3.1047516,10.206787,1.2068634,0.1060791,-0.10232544,0.013427734,-0.038754225,0.11387062,-0.19735682
1570715567,2.7013397,10.247498,1.2535553,0.1060791,-0.10232544,0.013427734,-0.72030973,-1.1232805,0.91501725
1570715567,-0.32374573,12.407059,2.2423553,-0.041992188,0.16291809,-0.031326294,-0.074893,-0.022938728,1.7583659
1570715567,-1.574707,9.343674,7.4928436,-2.3355103,-0.794754,-1.1200256,-1.778639,0.97072506,1.0556116
1570715567,-0.3835907,4.7240753,6.007248,-1.2404175,1.2377777,-1.7751617,-0.16136912,-3.0918941,-1.0458074
1570715567,-0.6768799,3.4096527,7.4246063,-1.9338989,0.23323059,-2.6944885,0.631531,-4.5989876,-0.47928715
1570715567,-0.4925232,4.3613434,6.4836884,-1.7900848,-0.412323,-2.271576,0.9701097,-2.5280528,-0.9137397
1570715567,-0.48414612,3.6418915,7.3013153,-1.5727692,0.34934998,-1.6270905,1.3904408,-2.9807253,-0.9559488
1570715567,-0.16812134,4.4846497,5.99527,-1.5749054,-0.15345764,-0.57247925,1.8559215,-1.7502527,-2.466014
1570715567,-0.44224548,5.111923,5.921051,-1.137085,0.048934937,0.49705505,1.91852,-0.64234877,-3.040907
1570715567,2.3182678,9.138977,5.564316,-0.47769165,0.6199188,1.4632416,4.0595317,1.7256827,-4.4318714
1570715567,-1.6800537,4.482254,8.390671,-0.38394165,0.651886,3.0345154,0.6230043,-1.4207902,-0.24376106
1570715567,-0.63378906,7.636612,5.315323,0.13484192,0.97784424,2.4326324,0.8442522,1.5848155,-3.1600552
1570715567,-0.5775299,6.841736,4.7885895,-0.12188721,1.3155365,1.3929443,0.41291583,1.128675,-3.1455517
1570715567,-1.9913025,4.715683,7.2510376,-0.0068359375,1.4934387,0.77615356,-0.28245938,-1.3830919,-1.5153837
1570715567,-1.5699158,5.572815,7.1528625,-0.2710266,1.292099,0.5652313,0.17010736,-0.49473953,-1.3941822
1570715568,-1.3065643,5.1131287,7.1277313,-1.4822235,0.62524414,0.3681488,1.2311442,-1.0322714,-2.858986
1570715568,-2.2606506,5.965454,8.913803,-2.013794,-0.494339,0.7388611,-0.1490345,0.8308048,-0.3321972
1570715568,-1.614212,4.841385,9.661987,-1.6835632,-0.5454712,0.65045166,0.15695345,-0.056314945,0.37753582
1570715568,-1.2467041,4.9898224,8.570236,-0.9911499,-0.42723083,0.81663513,0.3569411,0.4355445,-0.85559654
1570715568,-1.4825287,4.8210297,9.025131,-0.562912,0.0031280518,0.97535706,-0.07197642,0.46463633,-0.5935068
1570715568,-1.0264435,4.305084,9.418976,-0.535202,-0.08528137,1.0392761,0.23033404,0.09124756,-0.23193264
1570715568,-0.788208,3.829834,10.110901,-0.5916748,-0.28129578,0.8421936,0.32256496,-0.23786879,0.29483414
1570715568,-0.649353,3.987854,11.080551,0.06880188,-0.6125946,0.6429901,0.2334277,-0.15723372,1.3602695
1570715568,-0.1489563,4.8605347,8.357147,0.32658386,-0.5092621,0.72714233,0.36204875,0.6070976,-1.2096815
1570715568,1.919632,4.372116,7.85318,-0.061172485,-0.4666443,0.4065094,2.8463902,0.005604267,-1.4761162
1570715568,0.07489014,5.3932495,8.481644,-0.24865723,-0.39953613,0.34577942,0.47261456,0.9157672,-1.5888262
1570715568,0.7955475,4.5325317,9.070618,-0.4968567,-0.3334961,0.9572449,0.48643506,0.84207964,-0.69695663
1570715568,1.754425,3.446762,9.245407,-0.06436157,0.1639862,0.38093567,1.7327693,-0.5387976,-0.5145731
1570715568,0.9176483,4.415222,9.112518,0.2743988,0.85214233,-0.019607544,1.0318063,0.40502048,-0.788826
1570715568,0.013839722,4.9108124,9.689529,-0.18473816,0.47077942,-0.105895996,0.31814623,0.8967171,-0.1136837
1570715568,-0.40873718,4.6306915,9.688324,-0.71310425,0.005264282,-0.05369568,-0.16325358,0.82247305,-0.25157166
1570715568,0.1191864,4.157837,9.598541,-0.61509705,-0.07676697,0.015548706,0.38404888,0.56514,-0.37512875
1570715568,0.05455017,3.7855377,9.545868,-0.35092163,-0.033081055,-0.052627563,0.34616655,0.41232967,-0.38334656
1570715568,-0.19206238,3.9770813,9.717056,-0.23054504,-0.14920044,-0.05795288,0.07416281,0.5510287,-0.30804157
1570715568,-0.2746582,3.9734802,9.253784,-0.22947693,-0.2440033,0.04005432,-0.10269216,0.60091877,-0.77232456
1570715568,-0.12501526,4.035736,8.94133,-0.26463318,-0.20672607,0.14125061,-0.11871575,0.8562689,-1.3412743
1570715568,0.14672852,3.783142,8.718674,-0.045181274,0.02017212,0.03366089,0.20359883,0.5078082,-1.3387356
1570715568,-0.159729,3.7891388,9.1879425,0.09968567,0.12989807,-0.003616333,-0.058839202,0.53727174,-0.8522167
1570715568,-0.5344238,4.265579,9.169983,0.051757812,0.07237244,-0.03237915,-0.41157418,0.9763415,-0.8739681
1570715568,-0.51408386,4.22847,9.241806,0.079452515,0.11817932,0.07307434,-0.40286902,0.96133685,-0.830122
1570715568,0.007858276,3.6658325,9.278915,0.04109192,0.07344055,0.10609436,0.14747292,0.3542943,-0.7186527
1570715568,0.14552307,3.6670227,9.35553,0.14656067,0.20767212,0.04963684,0.34003466,0.32364178,-0.67400074
1570715568,0.062927246,3.759201,9.316025,0.28504944,0.34188843,-0.0025634766,0.33265457,0.2816105,-0.6007147
1570715568,-0.07594299,3.9339752,9.420181,0.26054382,0.30566406,-0.03237915,0.3050534,0.40701032,-0.508729
1570715568,-0.40634155,4.3290253,9.118515,0.24563599,0.3163147,-0.0068206787,0.09371269,0.7222686,-0.7609072
1570715568,-0.46141052,4.1985474,8.979645,0.03364563,0.1277771,0.014480591,0.07854414,0.5817683,-0.8238144
1570715568,-0.6385803,4.3338165,9.164001,-0.094192505,0.044677734,-0.052627563,-0.075042665,0.69505095,-0.7466984
1570715568,-0.7115936,4.269165,9.363907,-0.2188263,-0.12362671,-0.1101532,-0.13819098,0.6859596,-0.52832985
1570715569,-0.95939636,4.372116,9.289688,-0.46809387,-0.34414673,-0.11973572,-0.40684426,0.96146464,-0.6404896
1570715569,-0.4530182,3.759201,9.784103,-0.81536865,-0.60087585,-0.059020996,-0.13672364,0.5420027,-0.21970844
1570715569,0.686615,2.7979279,10.12886,-0.9964752,-0.68182373,-0.10055542,0.835655,-0.22829938,-0.02185154
1570715569,1.0481415,2.09523,10.179138,-0.8089752,-0.6104584,-0.25289917,0.95080984,-0.6404822,0.027331352
1570715569,0.76322937,2.785965,9.55426,-0.5245514,-0.43788147,-0.4446411,0.8403234,-0.07069111,-0.54637146
1570715569,0.17544556,3.6191406,9.537491,-0.22096252,-0.14173889,-0.23371887,-0.024890974,1.1852992,-0.65249157
1570715569,-0.0867157,3.8011017,9.254974,-0.09526062,-0.006454468,0.017684937,-0.28082955,1.3617406,-0.8748846
1570715569,-0.37402344,3.6263275,10.179138,-0.35517883,0.08302307,0.11355591,-0.29671246,1.1017468,-0.660985
1570715569,-0.12501526,3.6059723,9.798462,-0.25717163,0.18209839,0.17533875,-0.12732859,0.93828297,-1.7125683
1570715569,0.21257019,2.9846802,9.657196,-0.12828064,0.14801025,0.25204468,0.016794324,0.7858012,-0.58012486
1570715569,0.04257202,2.5788574,9.790085,0.17318726,0.27371216,0.09225464,-0.1399439,0.3536334,-0.5001221
1570715569,-0.15255737,2.6459045,9.833176,0.24882507,0.1405487,-0.012145996,-0.18602252,0.38637733,-0.40899563
1570715569,0.10722351,2.6818085,9.745789,0.2541504,-0.04800415,-0.06967163,0.059843086,0.24494362,-0.39319515
1570715569,0.050949097,2.9990387,9.110123,0.14762878,0.103271484,-0.012145996,-0.014917672,0.5171609,-1.0681086
1570715569,0.06411743,2.9379883,9.703888,0.0975647,0.2662506,0.07307434,0.071062885,0.4235072,-0.6283808
1570715569,0.072509766,3.113968,9.67157,0.3020935,0.3866272,0.10609436,0.15590486,0.5369837,-0.49863625
1570715569,-0.07594299,3.1558685,9.553055,0.34683228,0.38449097,0.012359619,0.13181974,0.4909184,-0.59426117
1570715569,-0.23873901,3.2779694,9.27652,0.22431946,0.28222656,-0.0632782,0.077546,0.515749,-0.80410194
1570715569,-0.29859924,3.051712,9.4010315,0.15402222,0.27371216,-0.05155945,0.10812393,0.2693603,-0.7143574
1570715569,-0.3105774,3.091217,9.675156,0.16253662,0.24708557,-0.05369568,0.1458394,0.17627144,-0.36667633
1570715569,-0.4015503,3.3234558,9.478836,0.06880188,0.14482117,-0.015335083,0.08533871,0.41952133,-0.5635214
1570715569,-0.39915466,3.3486023,9.606918,-0.08779907,0.1085968,0.041122437,0.11575639,0.4758196,-0.466218
1570715569,-0.5128784,3.2540283,9.717056,-0.117630005,-0.0043182373,0.0070343018,0.07367331,0.43204427,-0.3575201
1570715569,-0.5918884,3.3414154,9.645233,-0.1719513,-0.09486389,0.02407837,-0.062262356,0.6311772,-0.48178387
1570715569,-0.30697632,3.2300873,9.888245,-0.082473755,-0.13215637,0.046447754,0.17942992,0.46390843,-0.1773386
1570715569,-0.2926178,3.2815552,9.464478,0.11354065,-0.044799805,0.06349182,0.16729143,0.44648623,-0.5372124
1570715569,-0.2710724,3.3545837,9.373489,0.10714722,0.05000305,0.06349182,0.16512617,0.47531104,-0.70404625
1570715569,-0.29740906,3.5628815,9.305252,0.16893005,0.18955994,0.12313843,0.09519315,0.6627848,-0.7065697
1570715569,-0.07713318,3.2025452,9.6033325,0.29995728,0.28222656,0.06881714,0.43896365,0.13379312,-0.3719015
1570715569,-0.2866211,3.350998,9.372299,0.46720886,0.41539,-0.014282227,0.31508297,0.15681171,-0.5146036
1570715569,-0.21000671,3.350998,9.651215,0.8443146,0.66893005,-0.12931824,0.6986756,-0.0123205185,-0.09347916
1570715569,-1.3292999,4.415222,9.626083,0.68984985,0.61247253,-0.045166016,-0.22939223,0.753994,-0.108400345
1570715569,-1.535202,4.70372,9.328003,0.54071045,0.49635315,0.11036682,-0.41240108,0.972002,-0.2898264
1570715570,-1.4753418,4.593582,9.468063,0.38304138,0.3450775,0.107162476,-0.24314475,0.7339568,-0.054514885
1570715570,-0.9318695,4.05249,9.600937,0.5662689,0.4377594,0.07946777,0.32558167,0.12710905,0.1184845
1570715570,-1.3065643,4.3697205,9.351944,0.66748047,0.51446533,0.07307434,0.24718022,0.053800583,0.087800026
1570715570,-1.614212,4.818634,9.210678,0.51408386,0.4058075,0.10397339,-0.045421362,0.40294647,-0.01124382
1570715570,-1.5711212,5.055664,8.934158,0.47465515,0.368515,0.11355591,0.15300918,0.49332,-0.27456474
1570715570,-1.6022491,5.008972,8.972458,0.42140198,0.3365631,0.13378906,0.13629413,0.39344501,-0.087846756
1570715570,-1.5100708,4.9000397,8.716278,0.407547,0.37278748,0.11569214,0.36013532,0.16975355,-0.33205128
1570715570,-1.7339172,5.2029114,8.82283,0.48532104,0.42497253,0.10609436,0.25453126,0.23107862,-0.09129906
1570715570,-2.0008698,5.390854,8.548691,0.46400452,0.43563843,0.16149902,0.010577202,0.3550477,-0.24849701
1570715570,-1.9015198,5.431549,8.421799,0.3990326,0.43563843,0.17747498,0.19254804,0.27405882,-0.34148884
1570715570,-1.8991241,5.450714,8.411026,0.3617401,0.39941406,0.1593628,0.3024397,0.20918083,-0.23469162
1570715570,-2.2091675,5.676956,7.8926697,0.39689636,0.45054626,0.11462402,0.39843893,0.11021519,-0.6374874
1570715570,-2.5491486,5.7858887,8.239838,0.20941162,0.29501343,0.12313843,-0.20038414,0.26922846,-0.26581097
1570715570,-2.2917786,5.7727356,8.406235,0.05281067,0.052139282,0.11036682,0.048346996,0.22655106,-0.040841103
1570715570,-2.2762146,5.7296295,8.412216,0.009140015,-0.14813232,0.017684937,0.12738943,0.15707922,0.00715065
1570715570,-2.1672668,5.797867,7.9190063,-0.020690918,-0.11830139,-0.045166016,0.15155554,0.16586685,-0.61846733
1570715570,-2.2067719,5.7811127,8.077026,-0.13040161,-0.17370605,-0.06008911,0.07754421,0.25833368,-0.40772533
