time,ax,ay,az,gx,gy,gz,la_x,la_y,la_z,fox,foy,foz
1570726739,-6.135666,15.448898,7.371933,-0.7290802,-0.042678833,-1.8135071,-3.0945213,5.678397,4.862595
1570726739,-5.429367,13.288132,5.4769287,-0.77809143,0.84043884,-0.28485107,-3.084973,3.5753727,3.8906431
1570726739,-4.7003326,13.793304,2.7966156,-0.9772949,1.0396423,-0.0952301,-2.0041368,4.075823,0.74273133
1570726739,-5.59816,12.15567,4.0882874,-1.2745056,-0.3899536,-0.38072205,-2.3823285,2.4114265,1.3016105
1570726739,-5.867508,12.0503235,3.711197,-0.6012573,0.4846344,-0.5618286,-2.9807901,2.5987911,1.156487
1570726739,-5.010391,11.7139435,2.2782745,-1.0912781,0.08834839,-1.6569061,-2.1884246,1.885951,-1.866046
1570726739,0.18623352,13.6436615,-11.283676,2.955658,-2.1891785,-1.9658356,3.4295754,4.5165787,-13.902014
1570726739,-2.0499573,9.569931,-1.4746399,0.19129944,-1.9974365,-2.5677185,2.322401,0.826107,-3.4846
1570726739,-4.9409637,7.546829,5.5918427,0.9146118,-1.5990295,-0.90696716,-1.0097327,-1.128725,2.951812
1570726739,-8.642395,10.726334,2.7140198,0.12205505,-2.5503082,-0.77700806,-3.0537133,0.2336216,0.7651341
1570726739,-7.757736,9.522049,5.8276825,-0.004714966,-0.8341675,-0.48405457,-2.9773898,0.23696613,3.1273873
1570726739,-5.2378387,10.667679,2.7116241,0.18383789,-0.79582214,0.37242126,-0.70784235,1.9235849,-0.35913396
1570726739,-3.2901611,9.571136,4.370804,0.5747986,-0.38356018,0.74845886,0.9272032,0.51681423,1.17783
1570726739,-3.3751526,11.830063,3.6393738,1.0701447,0.40899658,0.5812073,0.8705125,2.6052055,0.8805597
1570726739,-1.5136566,11.862381,2.4985352,-0.16448975,-0.80114746,-0.47872925,2.5599809,2.6405249,-0.34937096
1570726739,-2.2007904,13.784927,4.1002655,-0.30085754,-1.7481537,-0.65237427,1.8133035,4.6018553,0.8395088
1570726739,-1.9673615,13.24025,3.3484802,-0.40737915,-2.388382,-1.0497131,2.2712216,4.0911446,-0.15343523
1570726739,-2.531189,11.487686,3.1533508,-0.7429352,-3.52182,-2.3802338,1.820035,2.9555607,-0.6742339
1570726739,-2.234314,7.178131,6.790146,-0.24972534,-3.8392792,-2.6848907,2.1959858,-0.8157797,2.7592344
1570726739,-6.281708,5.6422424,6.6812134,3.5820312,-3.074417,-2.1863556,-1.2556267,-2.853053,1.7647343
1570726739,-5.230652,0.2995758,6.6548767,3.8621979,-1.4051514,-0.27420044,-0.53429127,-8.344925,2.8499959
1570726739,-4.4944305,1.5325928,6.5543213,1.5590973,2.8612366,1.8115845,-0.16908693,-7.4922056,3.187877
1570726739,-4.717102,7.7850494,4.4127045,-2.9267273,1.2441711,2.5551453,-0.62538576,-1.533905,1.1342025
1570726739,-7.392624,11.413467,8.64566,-4.176285,1.6638794,1.7210388,-3.9409869,2.4605484,4.764044
1570726739,-7.3207855,13.306091,-11.665558,5.661438,1.5839844,1.2161102,-4.879292,6.08558,-11.79369
1570726739,-4.737442,12.595001,-0.73483276,1.2991791,-0.037353516,0.19558716,-0.9884927,2.9948473,-3.5735192
1570726739,-5.599365,11.182434,3.2670746,1.0541687,0.27157593,-0.3455658,-1.947453,1.5082569,0.900311
1570726740,-4.3471985,10.492889,0.083984375,0.23071289,-0.53056335,-0.9165497,-0.9860275,1.2593775,-2.1659007
1570726740,1.0960236,3.6574554,0.9363251,0.11566162,-0.4197693,-0.52453613,4.98833,-5.648946,-1.4021773
1570726740,-1.0384064,6.628662,0.23841858,-0.11230469,-0.73934937,0.37135315,2.097033,-4.3169003,-1.6347077
1570726740,-6.7677307,8.980957,1.4678345,-0.7525177,-0.41125488,0.608902,-2.1998422,-1.1687336,-1.1863282
1570726740,-6.0147552,11.801331,3.240738,-1.359726,-0.271698,1.6273041,-2.5919697,1.8001223,0.2037127
1570726740,-9.361847,19.208984,8.40863,-1.888092,0.03189087,2.0992126,-6.363469,9.966251,4.8641396
1570726740,-10.981522,21.155472,14.868179,-0.5117798,0.60713196,1.7807007,-7.986274,11.242748,10.657249
1570726740,12.633682,3.601181,1.0009613,1.1447144,-1.9825134,1.8414154,-10.314396,9.031837,-7.741809
1570726740,11.516785,8.079544,-0.720459,0.7143402,0.80207825,-0.42333984,14.274094,-1.5156288,-3.5140138
1570726740,1.0840454,-0.8101349,0.5855713,0.3841095,0.16079712,-2.0808868,4.305092,-10.378932,-2.1227531
1570726740,-3.8072968,0.5820923,0.44909668,0.21687317,1.1440277,-0.9921875,-0.46558857,-9.979365,-3.1913164
1570726740,-5.002014,4.734848,3.0372314,0.5886383,2.9389954,1.0754852,-1.4163079,-4.7801104,0.53219867
1570726740,-2.9693298,7.5001373,5.7247314,1.6112976,4.2918854,3.5777893,-0.122953415,-3.0026245,3.6348946
1570726740,-6.001587,14.920975,-0.51097107,-1.2276306,1.0684052,0.90185547,-4.1651487,4.6017056,-1.7835004
1570726740,-0.26867676,10.786194,-0.15782166,-1.1690369,-1.3369751,-0.41908264,1.4984272,1.3842583,-3.0920415
1570726740,-6.3750763,13.690353,5.491287,-0.24333191,0.8649292,0.29252625,-2.7095559,3.9961796,4.389785
1570726740,0.3035431,11.570282,1.9682312,0.8826599,0.030838013,1.0509949,2.168883,1.5334196,0.31224585
1570726740,3.8721008,7.249954,-0.5827942,0.49809265,-0.5678406,0.526886,5.979147,-2.3715868,-3.1542182
1570726740,-0.4530182,6.9506683,2.9139404,1.1489716,-1.4658661,0.1913147,1.2062178,-3.3107767,1.5250968
1570726740,-0.97016907,4.40683,6.802124,2.1513824,-1.2304382,0.304245,0.43059576,-5.7144337,5.8703628
1570726740,-0.35127258,2.7356873,-2.9686127,3.4531403,-0.07249451,0.2381897,1.0199314,-8.310512,-2.0244884
1570726740,-0.23873901,7.3660736,-7.7462463,0.6877136,-0.2951355,0.29997253,1.0051998,-2.736579,-8.42166
1570726740,1.2217255,8.32016,-5.2167816,0.9348602,3.5398102,-0.98153687,2.7439494,-1.5753908,-4.205982
1570726740,-15.370102,40.02298,-3.680893,-0.6236267,6.214691,1.0744171,-13.855918,28.929632,-3.1658716
1570726740,3.959488,9.953003,7.526367,-1.1796875,5.054611,0.9135742,4.908359,1.708415,6.6626844
1570726740,-0.81214905,8.198059,5.8767548,0.8091583,-1.9985046,0.06455994,-0.8322749,-3.203577,6.7395105
1570726740,-0.5176697,10.249878,-2.0576324,1.8914642,-4.239807,-0.17407227,-0.29754668,-0.019151688,-0.2818756
1570726740,-0.8205414,11.195602,-5.15094,1.1404572,-0.65200806,-0.17939758,0.103631616,1.0681562,-4.954627
1570726740,-2.436615,13.423401,-2.4574585,1.5399323,1.0556183,-0.6939087,-1.4402533,2.9920187,-1.0850419
1570726740,-0.7546997,13.753799,-1.5189362,2.989746,-0.11404419,-0.72161865,0.010528445,3.5712385,1.1869848
1570726740,2.216507,13.025955,-5.1976166,2.464569,-1.1707916,-0.70243835,3.2096708,3.4665804,-1.7020745
1570726740,-2.0475616,11.915054,-5.4849243,2.7884216,0.79356384,-0.53944397,1.3965921,2.251195,-1.4106145
1570726740,-2.3025513,12.09462,-3.1026917,3.1239777,0.47505188,-0.3562317,-1.2817448,3.6264305,1.6451697
1570726741,1.29953,9.645355,-5.1724854,3.1197205,0.4878235,-0.17939758,2.8879058,1.1830807,0.5702963
1570726741,-0.3368988,9.158127,-2.9686127,2.8171844,0.83509827,-0.23692322,1.3923745,1.1726055,3.447619
1570726741,-1.4107056,6.58197,-3.7658844,2.350586,0.40473938,-0.16661072,0.22268796,-1.0342522,3.2922573
1570726741,-2.234314,4.9156036,-3.6713104,1.7966614,1.2718658,-0.23158264,-0.5112754,-2.3000546,3.9626904
1570726741,-4.3747253,4.640274,-11.85231,0.81980896,-0.18647766,-0.49790955,0.6834332,-3.0351229,-6.595136
1570726741,-0.0053100586,4.6534424,-9.055878,0.042160034,0.5410919,0.12313843,2.0426579,-2.167942,-0.73520184
1570726741,-4.3914795,2.4687347,-4.511688,-0.6278839,-0.36012268,0.38839722,-2.249855,-4.4278975,2.8496113
1570726741,-1.6261902,5.6805573,-7.1884003,-1.0209656,-0.97798157,0.42248535,0.38304472,-1.1163325,0.52689266
1570726741,-0.90553284,6.8249817,-7.9677124,-0.5202942,-1.0845032,0.6440582,0.32055986,-1.188055,-1.1164265
1570726741,-0.44943237,10.886749,-7.439789,-1.8955536,-0.009643555,-0.3935089,0.14364076,4.468152,-2.0389128
1570726741,-1.1246033,12.493256,-4.158539,-1.9328308,-1.8397675,-0.12080383,1.098823,4.5620046,1.0064034
1570726741,-0.056777954,12.040741,-3.8281403,-2.1469574,-1.9239349,-0.033447266,2.447115,3.9178133,2.3675985
1570726741,-2.922638,12.013214,-3.067978,-1.8593292,-1.4328461,0.29252625,-0.35137248,3.3910875,2.3775373
1570726741,-3.5523224,11.033981,-0.94911194,-1.6409607,-1.4733276,0.5833435,-0.39436722,2.054366,4.592673
1570726741,-3.3943024,11.8564,-1.4064026,-1.5109863,-0.9513397,0.9220886,-0.5685067,2.3497505,2.6002588
1570726741,-3.638504,12.572266,-1.1633911,-1.6175232,-0.87997437,1.499466,-1.4295113,3.7139616,2.1663582
1570726741,-3.348816,11.339249,-1.7344055,-1.4779663,-0.62750244,1.8105164,-1.4736552,1.6423817,1.4274409
1570726741,-3.9162445,9.646545,-1.2675323,-1.582367,-0.55400085,1.1287537,-2.4426956,-0.52673626,1.2144585
1570726741,-1.5627441,9.753082,-1.4219666,-1.7485504,-1.7215271,0.19238281,0.072333574,-0.5964451,0.9301219
1570726741,-0.7953949,9.409515,-2.261139,-1.7155151,-0.06930542,0.42781067,0.75050914,-0.8018198,-0.67063
1570726741,-2.0499573,7.714432,-1.530899,-1.6846313,2.199707,0.32234192,-0.34011352,-2.761323,-0.4924959
1570726741,-1.322113,8.722382,0.26235962,-1.8348389,1.60849,0.11781311,-0.2946831,-1.6083689,0.7361997
1570726741,-2.1217804,8.771469,1.1649628,-1.6899567,-0.82884216,-0.43185425,-0.8289074,-1.7519007,1.8559625
1570726741,-2.2378998,11.516418,-1.9881897,-1.7070007,-0.92897034,-0.12612915,-1.2162564,1.0849209,-3.112679
1570726741,-1.5555573,9.76506,0.13067627,-0.6566467,0.22257996,0.5162201,0.2859918,-0.35757256,-0.93521553
1570726741,-3.2949371,8.866043,1.0584259,-0.83880615,-0.5050049,0.44378662,-1.8994408,-1.6825485,0.006138444
1570726741,-3.309311,11.719925,0.5161438,-0.95066833,-0.027755737,0.4065094,-2.4205923,0.9504185,-0.7611451
1570726741,-1.6596985,14.895828,0.4287567,-0.80152893,-0.25039673,0.3873291,-1.1061316,4.066801,-1.3283921
1570726741,-1.64534,16.343124,0.97224426,-0.18687439,-1.0014038,0.39797974,-0.8546258,5.773158,-0.85033345
1570726741,-1.9577789,16.553818,0.12947083,0.66534424,-0.7883606,0.32341003,-1.4305338,6.325554,-1.1838374
1570726741,-1.4777374,16.799225,-1.8170013,1.0232697,0.47717285,0.08053589,-1.0434623,5.9830647,-3.2117693
1570726741,-1.0228424,15.587753,-1.5488586,2.3101196,0.5634613,-0.19963074,-0.36340344,5.3842936,-2.3817098
1570726741,-1.6046295,13.383896,-2.8692627,3.7865753,0.15014648,-0.42546082,-0.923349,2.7667952,-2.454001
1570726742,-1.2419128,14.887451,-3.871231,4.1381073,-0.9641266,-0.4712677,-0.520512,4.0919456,-2.5099776
1570726742,0.42085266,14.043503,-1.9510803,3.767395,-2.4331207,-0.8707428,1.0506026,3.9571772,-0.043815613
1570726742,0.56211853,11.561905,5.6624756,3.3476868,0.39834595,-1.3298798,2.3923788,1.8367996,8.378454
1570726742,-2.5096436,8.1645355,2.5248718,2.9162445,0.29289246,-0.5692749,-0.05431652,-0.65004253,9.623424
1570726742,0.8254852,7.6665344,-8.102982,2.1364746,1.179184,-0.8675537,1.8433946,-2.199585,-3.2037597
1570726742,0.011444092,10.984909,-0.0010070801,3.1665802,1.7938385,-1.5226898,2.1002464,2.2542477,5.002953
1570726742,0.08328247,6.9003906,0.63105774,2.7862854,1.8566895,-1.1551666,2.0458739,-0.9097209,7.550177
1570726742,0.043777466,4.4295807,-3.878418,2.255783,0.6859741,-0.9165497,1.9583153,-2.8086863,3.9180346
1570726742,-0.69963074,4.008194,-3.5528107,1.6911926,1.3176727,-0.921875,1.3759631,-2.946045,4.3724623
1570726742,-1.5531616,3.225296,-3.5767517,0.76867676,1.737381,-0.8292084,0.038493752,-3.2744794,4.6724463
1570726742,0.7069702,0.94841003,-3.9849548,-0.5213623,0.8148651,-0.4861908,1.766501,-5.247704,4.398098
1570726742,1.9076538,1.4452057,-5.2514954,-1.5621185,-0.19607544,-0.38604736,3.774671,-5.3928094,2.8286629
1570726742,0.04496765,2.6099854,-5.7830048,-2.223648,-1.0067444,0.04751587,1.4191058,-4.568997,2.1506371
1570726742,2.6187286,8.326141,-23.182861,-1.2713013,-1.0749207,0.3638916,4.3952475,-0.0886569,-12.539722
1570726742,-7.3195953,23.550873,6.577057,-2.1554718,-3.407837,0.8123627,-5.9149237,15.188454,13.980932
1570726742,0.75245667,14.982025,-7.3667603,-2.3695984,-0.1928711,0.3596344,3.629732,9.858484,-6.792146
1570726742,-2.500061,7.6665344,0.4658661,-2.1938324,-0.47624207,0.27973938,-0.7693014,-1.0005741,6.2811265
1570726742,-1.7973633,10.182846,-2.3652802,-2.045761,-1.5393677,0.6898651,0.13808489,0.55877876,2.3325195
1570726742,1.2851715,13.324036,-0.84017944,-2.076645,-1.9771881,1.45047,3.101358,3.6294909,3.0086935
1570726742,2.900055,12.7578125,-1.6829376,-1.7634583,-1.5031433,1.4110413,4.554138,2.7062874,1.5329256
1570726742,-0.7056122,9.909912,-1.2136688,-1.5887604,0.02230835,1.2619171,0.73462653,-0.19261265,1.4373312
1570726742,-1.5483704,10.035599,-0.050094604,-1.7325592,0.78396606,1.2874756,-0.5712897,-0.29141617,1.9793682
1570726742,-4.487259,10.023636,-0.7659607,-1.7932892,0.8383026,1.227829,-3.9467072,-0.35215282,0.8039782
1570726742,-2.0284119,7.01651,-1.333374,-1.8337708,0.03189087,0.88160706,-2.0315764,-3.3523865,-0.26440835
1570726742,-2.854416,7.7407684,-1.7942657,-1.744278,0.62312317,-0.34770203,-2.7930539,-2.7748823,-1.4772272
1570726742,-2.4102783,7.197281,2.232788,-1.5120544,-0.14920044,-1.1498413,-2.0018864,-3.4652967,2.1611438
1570726742,-1.7099762,11.752243,-2.4143677,-1.9562683,-1.5830383,-0.5319977,-1.2694762,1.3067398,-2.881787
1570726742,-0.3608551,11.379944,-1.4662628,-0.5906067,1.2931671,0.6483154,0.41750658,1.0423088,-2.5786884
1570726742,-2.6688538,10.483322,0.6502228,-0.5192261,-0.25785828,0.5833435,-2.17791,0.050024986,-0.5025878
1570726742,-2.3252869,12.499237,1.8880157,-0.66304016,-0.494339,0.54393005,-2.1265738,1.9730902,0.608523
1570726742,-0.9929199,16.771698,1.4031982,-1.1221771,-0.16091919,0.5812073,-0.8922017,6.076414,-0.1275065
1570726742,0.18383789,19.088074,0.89442444,-0.5224304,0.206604,0.6674957,-0.016433455,8.788756,-0.92822456
1570726742,0.9056854,17.886185,-2.9386902,0.79956055,0.368515,0.3085022,0.73237556,7.4894085,-4.5549026
1570726742,-0.5056915,14.618103,-3.4546356,2.2611084,0.3035431,-0.08564758,-0.5984217,4.149765,-4.7728696
1570726743,-2.2857819,12.60817,-3.124237,3.910141,-0.90127563,-0.6939087,-2.3258429,1.8666277,-3.2428231
1570726743,-2.9166565,14.205109,-1.7032776,4.9050903,-1.8653412,-1.1668854,-2.7141685,3.4872494,-0.55531275
1570726743,0.51782227,14.419388,-4.5835114,3.432907,-1.8014221,-1.6047211,1.0109508,4.2311354,-2.0714903
1570726743,0.90927124,11.516418,9.489609,3.11438,1.6446991,-1.716568,2.6609807,1.7540159,12.337303
1570726743,-0.04360962,7.3936005,1.3696747,2.7585907,0.7882385,-0.49684143,1.3701434,-2.0746927,6.965587
1570726743,4.2551727,8.436279,-3.9310913,2.1034546,1.9557648,-0.5831299,5.80015,-1.0526829,0.6333251
1570726743,0.055740356,9.790192,0.39881897,3.308258,1.4508209,-0.39883423,1.3322701,0.9259577,6.313585
1570726743,-0.36323547,8.245941,-0.6546173,2.447525,0.14268494,-1.0348053,0.92332685,-0.01984787,5.960433
1570726743,0.0796814,6.7579346,-3.100296,1.8637695,-0.18222046,-1.1786041,1.6840568,-1.0365357,3.9544535
1570726743,-0.7738495,4.473877,-2.2000732,1.3758698,1.4305878,-0.9975128,0.9230883,-2.8244681,5.2472763
1570726743,0.33946228,0.42288208,-4.2339478,0.231781,0.93203735,-0.81321716,1.8338748,-6.5982723,3.435422
1570726743,0.29995728,0.43006897,-4.2997894,-1.2191162,0.4569397,-0.4073639,1.882634,-6.823805,3.1085982
1570726743,-1.6309662,2.565689,-3.7060394,-1.7304382,-0.09806824,0.058166504,-0.049942136,-5.0213714,3.577479
1570726743,1.7568207,7.0811615,-18.356155,-0.549057,-0.9225769,0.88053894,2.117292,-1.429522,-7.7149377
1570726743,-3.3392334,18.703812,9.398636,-2.695572,-1.5138092,0.562027,-1.5498176,10.054996,12.721216
1570726743,3.1622162,20.422852,-4.65773,-2.0659943,-0.07569885,1.0531158,4.5651507,12.597846,1.5028224
1570726743,-2.5922394,7.3457184,1.9836426E-4,-1.7815704,-0.9907532,0.4842682,-1.0961109,-1.6412201,5.5913963
1570726743,-2.2199402,10.734711,-1.1681824,-2.2854462,-0.96199036,0.17640686,-0.7426101,1.163352,3.1231894
1570726743,-0.9869385,13.923782,-1.6051178,-2.1522827,-1.6437683,1.1447296,0.28516972,4.0130854,2.3511682
1570726743,2.2631989,13.946533,-1.4878082,-1.9967499,-1.1036835,1.1170349,3.410564,3.9701633,1.6456249
1570726743,0.18023682,9.926666,-2.1940918,-1.6824951,0.45054626,0.64938354,1.0340475,0.27782822,0.17104125
1570726743,0.22692871,8.49733,-0.42237854,-1.6494751,-0.02243042,0.6898651,1.2786298,-1.8727455,1.5350976
1570726743,-1.6525269,9.616623,-1.1825409,-1.4449463,0.039352417,0.76976013,-0.7816048,-0.8964548,0.5427693
1570726743,-3.3763428,8.818146,-1.9391174,-1.3842316,0.54855347,0.85072327,-3.0674446,-1.5991936,-0.92816603
1570726743,-2.563507,7.9263153,-1.5560455,-1.4353638,1.0023499,0.3361969,-2.4893906,-2.809991,-0.77328336
1570726743,-2.503662,8.431488,-0.09197998,-1.681427,0.47291565,-0.47872925,-2.2862425,-2.0982332,-0.25810662
1570726743,-3.001648,10.527618,-1.5093536,-1.8369598,-1.4232483,-1.0667572,-2.6990154,-0.47119904,-1.3663938
1570726743,-0.14776611,10.451004,-0.9754486,-0.90911865,-0.19714355,0.07521057,0.27761453,0.19270039,-1.7981898
1570726743,-2.2247314,10.318115,0.17376709,-0.45744324,0.4100647,0.67601013,-1.4641631,-0.3307829,-0.5685022
1570726743,-2.6903992,12.135315,0.2300415,-0.6736908,-0.03414917,0.39265442,-2.5662408,1.3566713,-0.9959618
1570726743,-1.0659332,15.014343,0.2420044,-0.738678,0.07130432,0.2808075,-1.0146188,4.4548435,-1.0893235
1570726743,0.6961975,16.493958,1.7024689,-0.535202,-0.117248535,0.46403503,0.44082758,5.9168215,0.026646018
1570726743,1.4563446,18.332703,-0.7659607,0.15614319,0.044677734,0.5630951,1.4036496,7.756938,-1.9821645
1570726744,-0.0053100586,15.726624,-2.3030243,1.1841278,0.40899658,0.2531128,-0.1001741,5.56863,-3.6187627
1570726744,-1.847641,13.450928,-2.9985504,2.7255707,-0.17263794,-0.42440796,-1.7724185,2.9584923,-3.6339474
1570726744,-3.5379486,13.774155,-3.886795,3.737564,-0.6892853,-0.7780762,-3.4887354,2.8811283,-3.816686
1570726744,-2.9118652,14.418198,-2.0708008,3.6811066,-1.5830383,-0.92401123,-2.674943,3.8110523,-0.6530881
1570726744,2.0237732,12.348404,-1.617096,2.8054657,-0.43681335,-1.6622467,1.7129321,2.2658434,1.1011765
1570726744,2.777954,10.33728,7.7131042,2.7276917,1.2505646,-1.5503845,4.49126,0.5530739,10.592884
1570726744,0.88414,7.3181915,-2.1677551,2.734085,0.989563,-0.3849945,2.237018,-2.4822197,2.7865486
1570726744,2.9335785,8.448242,-4.4901276,2.5924072,1.132309,-0.9730072,4.723626,-1.2210369,-0.59673166
1570726744,-0.12261963,9.355652,1.1039124,2.9769745,0.7413635,-0.7407837,1.2976719,0.8761654,7.2783847
1570726744,-0.46020508,6.383255,-0.9862213,2.607315,-0.0021972656,-0.8356018,1.0057117,-1.7042503,5.922998
1570726744,-1.2730408,5.684143,-4.091507,2.0544434,0.16186523,-0.8963165,0.55985296,-2.2040176,2.9312983
1570726744,-1.7458954,5.169388,-3.0631866,1.6112976,1.4369812,-0.8941803,-0.18223166,-2.0351577,4.4132113
1570726744,0.35263062,3.019394,-3.4378815,0.4043579,1.2825165,-0.7418518,1.7134789,-3.7431407,4.0186644
1570726744,0.8027344,0.59765625,-2.660965,-0.73335266,0.3631897,-0.2901764,2.331205,-6.4050694,5.0785832
1570726744,-0.27824402,1.6403351,-5.5328064,-1.7070007,-0.85546875,0.12313843,1.3064001,-5.7654777,1.8546453
1570726744,3.1789856,3.2384644,-14.266861,-1.884903,-1.4413605,0.3361969,4.4051723,-5.1225166,-3.1424518
1570726744,-7.049057,15.518326,13.639954,-3.0566864,-2.6206055,0.42034912,-2.9350605,4.9279137,12.271431
1570726744,0.2855835,31.651657,-15.430435,-2.1554718,-1.9889069,0.7622986,1.6471231,24.13967,-8.051056
1570726744,-4.0910187,7.770691,-0.38526917,-1.6974182,0.33335876,0.5023804,-1.6403694,-0.1543026,4.6232677
1570726744,-2.1373444,6.5592194,-4.4207,-1.6430817,-1.3273773,0.88053894,-0.3449502,-3.1216097,0.91924095
1570726744,0.844635,10.780197,-0.42358398,-1.964798,-0.6711731,1.546341,2.2908432,0.32998848,2.8575122
1570726744,1.9902649,14.554657,-0.9766388,-1.7517395,-0.5241699,1.4547272,3.5981605,4.669264,2.035619
1570726744,-1.6920319,11.255447,-1.0484619,-1.791153,0.0020751953,1.2171631,-0.28430068,1.5115004,1.6574199
1570726744,-2.5276031,9.197632,-0.23683167,-1.9008789,-0.30259705,0.8358002,-1.8428826,-1.1757545,1.586195
1570726744,-2.8663788,8.758301,-0.40682983,-1.6771698,0.018051147,0.47787476,-2.216794,-1.6624794,1.0396826
1570726744,-2.4545746,8.843292,-1.3058472,-1.5749054,0.08409119,0.39479065,-1.8363359,-1.558403,-0.10752171
1570726744,-0.49372864,8.775055,-2.3221893,-1.4470825,0.2705078,-0.15168762,0.080542386,-2.0716286,-1.7088301
1570726744,0.47233582,9.403534,-1.3118286,-1.4971466,0.3674469,-0.49684143,0.87627006,-1.1315193,-1.2683594
1570726744,-2.45578,9.000107,0.15342712,-0.98475647,-1.4552155,-0.73332214,-1.1381136,-1.5872383,0.879683
1570726744,-0.37760925,10.503677,-1.4064026,-1.0763702,-1.0695801,0.1870575,-0.5278902,0.31681252,-2.2602892
1570726744,-1.669281,11.159683,0.94111633,-0.6886139,0.35679626,0.7921295,-0.35183495,0.48421192,-0.5291395
1570726744,-2.744278,10.9478,0.3174286,-0.8505249,-0.30366516,0.7580414,-2.219389,0.48563766,-1.1346817
1570726744,-2.3109283,12.822449,0.9004059,-1.1658478,0.23641968,0.7910614,-2.2919328,2.3217525,-0.7372867
1570726745,-0.73075867,16.612473,-0.21170044,-0.8973999,0.6987457,0.63552856,-0.771738,6.076103,-2.2361917
1570726745,-2.045166,17.628815,0.7016907,-0.18048096,0.29289246,0.55563354,-2.0053844,6.86831,-1.7273338
1570726745,0.14193726,16.6017,-0.8066559,1.1489716,-0.46557617,0.021942139,-0.36957845,6.277463,-2.2008982
1570726745,0.9607544,15.502762,-4.0579834,2.2366028,-0.42297363,-0.4670105,0.7857795,4.9110155,-5.240188
1570726745,-2.8975067,14.560638,-5.5328064,3.5660553,-0.15559387,-0.72480774,-2.7388625,3.8436098,-5.9213133
1570726745,-3.5954132,13.790909,0.52931213,4.435318,-2.678131,-0.82814026,-3.796689,3.252262,0.71894825
1570726745,0.0617218,12.666824,0.9470978,3.3306427,-1.3039398,-1.5226898,0.53383726,2.0182133,3.4092784
1570726745,3.0089874,11.452972,0.6861267,1.3897247,1.1663971,-1.7091064,4.28673,1.1599989,3.2886467
1570726745,2.8282318,9.950607,0.08039856,2.68721,0.99809265,-1.0635681,4.485206,-0.09415245,3.6133845
1570726745,0.45677185,9.506485,-3.7383575,3.1037292,0.7733154,-0.16873169,1.8658477,-0.09113884,1.1685305
1570726745,1.1929932,8.673309,-0.059661865,2.636078,0.66360474,-1.0028381,3.2287655,-1.2328968,3.7454844
1570726745,-0.028060913,7.6078796,-0.08001709,2.81398,0.44096375,-0.83239746,1.7554293,-1.0501013,5.8751974
1570726745,-0.65652466,5.9223633,-2.638214,2.2760162,-0.20565796,-0.80044556,1.4115038,-2.303608,3.8947272
1570726745,-1.0623474,5.890045,-2.7627106,2.2280884,0.01272583,-0.8025665,1.0448927,-2.284093,3.8275137
1570726745,-1.0623474,5.890045,-2.7627106,2.2280884,0.01272583,-0.8025665,1.0448927,-2.284093,3.8275137
1570726745,-1.0623474,5.890045,-2.7627106,2.2280884,0.01272583,-0.8025665,1.0448927,-2.284093,3.8275137
1570726745,-1.0623474,5.890045,-2.7627106,2.2280884,0.01272583,-0.8025665,1.0448927,-2.284093,3.8275137
1570726745,-1.0623474,5.890045,-2.7627106,2.2280884,0.01272583,-0.8025665,1.0448927,-2.284093,3.8275137
1570726745,-1.0623474,5.890045,-2.7627106,2.2280884,0.01272583,-0.8025665,1.0448927,-2.284093,3.8275137
1570726745,-1.0623474,5.890045,-2.7627106,2.2280884,0.01272583,-0.8025665,1.0448927,-2.284093,3.8275137
1570726745,-1.0623474,5.890045,-2.7627106,2.2280884,0.01272583,-0.8025665,1.0448927,-2.284093,3.8275137
1570726745,-1.0623474,5.890045,-2.7627106,2.2280884,0.01272583,-0.8025665,1.0448927,-2.284093,3.8275137
1570726745,-1.0515747,7.052429,0.14263916,-2.4058075,-1.0131226,0.26376343,-1.504382,2.9798355,-10.677828
1570726745,-1.0515747,7.052429,0.14263916,-2.4058075,-1.0131226,0.26376343,-1.504382,2.9798355,-10.677828
1570726745,-1.0515747,7.052429,0.14263916,-2.4058075,-1.0131226,0.26376343,-1.504382,2.9798355,-10.677828
1570726745,-1.0515747,7.052429,0.14263916,-2.4058075,-1.0131226,0.26376343,-1.504382,2.9798355,-10.677828
1570726745,-1.0515747,7.052429,0.14263916,-2.4058075,-1.0131226,0.26376343,-1.504382,2.9798355,-10.677828
1570726745,-1.0515747,7.052429,0.14263916,-2.4058075,-1.0131226,0.26376343,-1.504382,2.9798355,-10.677828
1570726745,-1.0515747,7.052429,0.14263916,-2.4058075,-1.0131226,0.26376343,-1.504382,2.9798355,-10.677828
1570726745,-1.0515747,7.052429,0.14263916,-2.4058075,-1.0131226,0.26376343,-1.504382,2.9798355,-10.677828
1570726745,-1.0515747,7.052429,0.14263916,-2.4058075,-1.0131226,0.26376343,-1.504382,2.9798355,-10.677828
1570726745,-1.0515747,7.052429,0.14263916,-2.4058075,-1.0131226,0.26376343,-1.504382,2.9798355,-10.677828
1570726745,-1.0515747,7.052429,0.14263916,-2.4058075,-1.0131226,0.26376343,-1.504382,2.9798355,-10.677828
1570726745,-2.2163544,8.946243,-2.3233795,-0.9346771,-1.7364502,-0.14743042,-2.6519694,-0.9783802,-3.3921363
1570726746,0.30114746,7.898773,1.9706116,-0.82496643,-0.32603455,0.3127594,1.0411351,-3.039528,1.1995132
1570726746,-1.7303314,9.762665,1.0560303,-0.7258911,0.03189087,0.4373932,-1.5607121,-0.6511879,-0.6108358
1570726746,-1.5340118,11.177643,1.3612976,-0.54159546,-0.34840393,0.4096985,-1.3976905,0.6242733,-0.35369587
1570726746,-1.0970612,12.061096,0.84654236,-0.66622925,-0.32817078,0.5258179,-1.0853549,1.5170803,-1.1475047
1570726746,-1.0336151,12.585434,0.71725464,-0.8643799,-0.40272522,0.72288513,-1.2938886,2.1715345,-1.446598
1570726746,-1.2957916,12.833221,0.5987396,-0.73335266,-0.34094238,0.77082825,-1.6632887,2.3189344,-1.8324001
1570726746,-1.2802277,15.899002,1.0715942,-0.2987213,-0.35905457,0.5641632,-1.9022479,4.842599,-1.9224
1570726746,-1.3795776,15.634445,0.76034546,0.4778595,-1.1441498,0.13912964,-2.0882149,5.3296804,-1.4838028
1570726746,-0.9606018,14.146454,-0.8473511,1.0978394,-0.4900818,-0.018539429,-2.058667,3.7700577,-3.0910583
1570726746,0.473526,12.652466,-0.8772888,2.0278168,-0.81073,-0.4680786,-0.33320165,2.0608883,-2.544042
1570726746,-1.6896362,12.399872,-0.48582458,2.843811,-1.4243164,-1.2276154,-2.0851188,1.6280222,-1.5147622
1570726746,-1.9098969,12.428604,-1.6374359,2.6648407,-0.35479736,-1.7517242,-1.954902,1.6124907,-1.5199298
1570726746,0.2640381,11.515228,-0.9766388,1.9276886,-0.04800415,-1.732544,0.31257492,0.75151443,0.04883814
1570726746,3.7320404,13.405441,1.5420532,1.5090332,-0.71698,-2.0638428,4.3495474,2.6514645,2.2767797
1570726746,4.110321,10.966949,3.5484009,2.172699,-0.6029968,-1.3735504,5.8827047,1.0788584,5.291672
1570726746,3.4698792,8.749924,-4.013687,1.6571045,-0.45812988,-0.4350586,5.550305,-1.220109,-0.300421
1570726746,2.6139526,9.019272,-0.54689026,1.172409,0.41964722,-0.20495605,4.6089745,-1.2047148,2.0477257
1570726746,1.2061615,9.221573,-0.097976685,1.9127655,-0.69781494,-0.0206604,3.068565,-0.8945751,3.093974
1570726746,0.46514893,8.627808,-0.47146606,1.3321991,-0.52737427,-0.094177246,2.5452309,-1.2388487,3.270928
1570726746,-0.061569214,7.8137817,0.038497925,1.2299347,-0.3420105,-0.15914917,1.8642108,-1.7864685,4.0739846
1570726746,0.8278656,6.7411804,-0.84495544,0.8272705,-1.3039398,-0.17193604,3.0013583,-2.7833824,3.4479609
1570726746,0.3131256,6.055237,-0.44273376,0.25201416,-1.4616089,0.15403748,2.886691,-3.3553238,3.6387706
1570726746,-0.6685028,6.0169373,-0.1590271,-0.38394165,-1.5169983,0.44699097,1.8139572,-3.4572525,3.984477
1570726746,-0.30578613,5.493805,-0.799469,-0.947464,-1.4307098,0.735672,2.0914147,-4.0822926,3.0508492
1570726746,0.05455017,5.779907,-1.170578,-1.5674438,-0.9151306,1.0275574,2.3706052,-4.134551,2.1807892
1570726746,-0.087905884,6.9674377,-1.5811768,-2.0382996,-0.27490234,1.3364868,1.8742306,-2.9038372,1.0519006
1570726746,-1.6716766,9.753082,-5.5375977,-2.7914429,0.57624817,1.2725677,0.45526326,-1.3377361,-2.585882
1570726746,-10.40332,29.247879,-13.691055,-0.6172333,-2.1614838,-0.42866516,-6.3744407,17.78194,-10.598369
1570726746,-9.5928955,11.703171,-6.8999023,-0.25505066,-1.9154053,0.2616272,-8.661779,1.9845457,-5.3915796
1570726746,-1.8931427,8.236359,-7.4936676,0.34043884,-0.44215393,-0.31681824,-0.29609418,-2.3089256,-6.7189083
1570726746,2.7887268,12.01561,2.4710083,0.9337921,-1.4509583,-0.9932556,4.2532635,1.3418541,3.2178206
1570726746,4.947098,13.350372,-0.7982788,-0.13146973,-0.14067078,-0.13252258,7.1036415,3.1442595,0.813771
1570726746,2.6390839,7.4175415,4.3420715,-0.50645447,-1.3390961,0.35217285,4.927231,-2.8480816,5.6159744
1570726747,0.39691162,9.074326,1.829361,0.112472534,-2.7484436,0.89759827,2.3119192,-1.4351273,3.0909598
1570726747,0.72612,12.2083435,-1.1657867,-0.053710938,-0.06291199,1.1852112,2.3328488,1.5617657,-0.3938539
1570726747,1.3917084,13.704712,2.2710876,-0.07714844,1.7885132,1.406784,2.5690174,3.2096682,3.2767851
1570726747,2.4200134,9.771042,2.0879364,-0.6364136,1.8013,0.99772644,3.1079476,-0.68629646,3.0788908
1570726747,0.6782379,10.084686,4.02005,-1.3714447,0.6103363,-0.08883667,1.3314664,-0.5960846,4.5343947
1570726747,-0.6577301,11.622955,4.8675995,-1.4300385,-2.581192,-0.16873169,0.02068305,0.88834953,5.124208
1570726747,-0.6936493,11.055527,3.7088165,-1.0720978,-4.1641846,-0.28059387,-0.0063822865,0.45751667,3.3767056
1570726747,-1.6405487,10.540787,2.4434814,-0.49046326,-4.1173096,-0.26141357,-0.93019867,-0.06622887,1.7690521
1570726747,-1.6213989,10.835266,1.758728,-0.26249695,-3.1766815,-0.11122131,-0.9621326,0.17300129,0.79885757
1570726747,-2.0391846,11.496063,1.7707062,-0.09631348,-2.64299,0.038986206,-1.4339236,0.85877705,0.74587035
1570726747,-1.9254608,11.0854645,1.8245697,0.05708313,-3.2384644,0.1359253,-1.435037,0.48464203,0.7654877
1570726747,-2.7011871,10.828079,0.90400696,0.23710632,-3.788147,0.07093811,-2.3463259,0.2185049,-0.14373648
1570726747,-3.6792145,10.482117,-0.3254242,0.20941162,-3.42276,0.04324341,-3.3490572,-0.09648228,-1.1642554
1570726747,-3.0363617,9.292206,-1.3836517,-0.23373413,-2.7803955,0.17640686,-2.9636202,-1.2857847,-2.4295964
1570726747,-2.883133,9.14975,-0.94073486,-0.6470642,-1.9356537,0.18812561,-2.8392744,-1.5173712,-2.172421
1570726747,-2.926239,10.761047,-0.6031494,-0.80792236,-1.4999542,0.15829468,-2.99152,0.15644169,-2.0094695
1570726747,-2.5299988,9.899139,1.090744,-0.34985352,-3.1820068,-0.29977417,-2.6791961,-0.52628994,-0.53253806
1570726747,-3.8946838,11.346436,-2.143814,0.743103,-3.6592407,-0.4861908,-3.987811,0.6784172,-3.433208
1570726747,-2.5599213,12.8069,-4.18367,0.8645477,-2.5971832,-0.65130615,-2.7749467,2.1780214,-5.333499
1570726747,-0.41830444,15.808029,-7.44458,2.413437,-1.5074158,-1.7549133,-0.22916698,5.0935497,-7.9663715
1570726747,1.9818726,14.037506,-2.9375,3.1506042,0.3120575,-2.116043,2.4737754,3.4127445,-3.4210143
1570726747,3.3764954,15.616486,1.7168274,2.8384857,-1.2709198,-2.3567963,5.0956235,4.6806326,3.1756227
1570726747,3.8038635,15.933716,3.3999634,2.3239594,-2.7154236,-1.6313477,5.603238,6.2428093,5.378301
1570726747,1.959137,11.944977,-2.3545074,1.2139587,-0.8852997,-1.1551666,6.0619826,1.8008089,0.037418604
1570726747,-2.2642365,11.286575,-2.9602356,2.9524689,0.2662506,-0.6150818,1.005636,1.4283361,-0.08948612
1570726747,0.18981934,11.607391,-6.338455,3.4840393,-2.1103516,-0.42866516,2.9510748,2.2526684,-1.9441907
1570726747,2.2859344,9.956589,-1.6889191,2.55513,-1.4030151,-0.0068206787,6.0883865,0.92662716,1.9307833
1570726747,1.7795715,9.76506,-0.92037964,2.5316925,-1.2347107,0.062423706,5.760235,0.75834656,3.0256176
1570726747,1.7795715,9.76506,-0.92037964,2.5316925,-1.2347107,0.062423706,5.760235,0.75834656,3.0256176
1570726747,1.7795715,9.76506,-0.92037964,2.5316925,-1.2347107,0.062423706,5.760235,0.75834656,3.0256176
1570726747,1.7795715,9.76506,-0.92037964,2.5316925,-1.2347107,0.062423706,5.760235,0.75834656,3.0256176
1570726747,1.7795715,9.76506,-0.92037964,2.5316925,-1.2347107,0.062423706,5.760235,0.75834656,3.0256176
1570726747,1.7795715,9.76506,-0.92037964,2.5316925,-1.2347107,0.062423706,5.760235,0.75834656,3.0256176
1570726748,1.7795715,9.76506,-0.92037964,2.5316925,-1.2347107,0.062423706,5.760235,0.75834656,3.0256176
1570726748,1.7795715,9.76506,-0.92037964,2.5316925,-1.2347107,0.062423706,5.760235,0.75834656,3.0256176
1570726748,1.7795715,9.76506,-0.92037964,2.5316925,-1.2347107,0.062423706,5.760235,0.75834656,3.0256176
1570726748,1.7795715,9.76506,-0.92037964,2.5316925,-1.2347107,0.062423706,5.760235,0.75834656,3.0256176
1570726748,-1.7698364,3.4922485,-4.9330597,2.5316925,-1.2347107,0.062423706,5.760235,0.75834656,3.0256176
1570726748,0.117996216,11.512833,-2.1330414,-1.4801025,-2.9082336,1.6134491,0.5428846,4.8130035,3.1643314
1570726748,-0.23275757,10.546768,-0.8174286,-1.0507965,-2.1455078,1.2256927,2.5896094,0.9895506,3.8441238
1570726748,-1.5100708,13.623322,0.76872253,-1.5440216,-3.2746887,1.5047913,1.3953981,3.591403,4.591731
1570726748,-2.761032,14.140457,0.60113525,-0.8473358,-4.0352783,1.7817535,-0.20255089,4.9584026,4.530286
1570726748,-2.9633484,11.765411,-0.3768921,-0.2273407,-4.0874786,2.4582062,-0.8092649,2.1949816,3.69676
1570726748,-3.1955872,11.290161,-4.443451,-1.0124512,-2.0964966,2.3506165,-0.9992626,1.1429853,-1.485338
1570726748,-5.9944,10.254669,-0.6318817,-1.8763733,-0.24827576,1.4717712,-3.9404278,0.3703785,0.81575346
1570726748,-5.8818817,8.855255,-1.2902832,-1.2404175,-1.5031433,1.0669708,-5.6422386,-1.2732792,2.0006025
1570726748,-3.5595093,8.740341,-4.802582,-1.5109863,0.27264404,0.6472473,-3.046209,-1.8487263,-3.759177
1570726748,-1.5483704,9.322128,-2.7926483,-0.8217621,1.6063538,0.72288513,-0.90805525,-1.3813467,-1.1942514
1570726748,-0.08911133,10.073914,-2.597519,-0.49046326,2.7429962,0.6152954,0.39683878,-0.6638756,-1.5075517
1570726748,-0.48414612,10.376785,0.62628174,-0.7237549,2.1954498,0.2861328,-0.032343596,-0.27269363,0.8174157
1570726748,-1.9003143,8.126221,1.8712616,-0.74612427,0.47717285,-0.24650574,-1.5356035,-1.9609013,1.7417192
1570726748,-2.029602,9.603455,-0.44633484,-1.3000641,-2.1252594,-1.1466522,-2.0191095,-1.5182657,1.2216403
1570726748,1.8932953,12.09581,-2.4490814,-1.4470825,0.13948059,-0.05369568,1.3179194,1.3785734,-3.3027935
1570726748,-1.748291,10.978912,0.7016907,-0.7163086,0.84895325,1.0413971,-0.5633043,0.64822483,0.24257231
1570726748,-4.3388214,12.723099,-0.30148315,-1.0401459,0.44628906,0.7953186,-3.6717756,1.4971447,-0.84981513
1570726748,-4.349594,13.622116,-0.58758545,-0.88035583,1.0257874,0.77508545,-4.656592,3.2226124,-1.4285496
1570726748,-2.7299042,13.507202,-1.1669769,-0.33706665,1.069458,0.7143707,-2.9915469,2.484952,-2.6812177
1570726748,-0.9522095,17.153564,0.967453,0.6312561,0.88090515,0.31915283,-1.8431709,5.593279,-0.78497946
1570726748,1.3725586,15.701477,-1.7882843,1.6049042,0.27903748,-0.6065674,0.7286104,5.8326645,-1.588242
1570726748,-0.08073425,13.648453,-4.819336,2.7181091,0.49528503,-0.98153687,0.8241549,2.987811,-5.2612615
1570726748,-2.9597473,14.54509,-0.9479065,4.086975,-2.0336456,-1.078476,-2.6525004,3.6902056,-0.39447808
1570726748,-1.3065643,14.376297,-0.67855835,3.353012,-2.099701,-1.1807404,-0.6630045,3.7791395,2.316771
1570726748,1.1343231,11.129761,2.0376587,1.3332672,0.5261841,-1.6867371,1.9971924,1.2807417,2.1997206
1570726748,-0.4015503,8.492538,2.7008514,2.317566,0.8127289,-1.3628998,1.43684,-1.3621092,7.6232624
1570726748,1.2229156,8.254318,-8.154465,1.3279419,0.9533539,-1.4694214,2.0117345,-1.7803946,-4.272167
1570726748,1.2636108,9.902725,0.25637817,2.507187,1.2420349,-1.6409302,4.202873,-0.15822601,4.272078
1570726748,0.4400177,7.92511,0.9135742,2.364441,1.5594788,-1.444931,2.996713,-0.7352619,6.38834
1570726749,-0.7858124,6.5711975,-2.949463,1.8914642,0.12564087,-1.5258789,2.1775868,-1.9055223,3.3128338
1570726749,-1.9410248,6.688507,-2.119873,1.7615051,1.9429779,-1.2606354,1.0427048,-1.3380117,4.1244526
1570726749,-1.0683289,4.7875214,-2.7196198,1.20224,1.9610901,-0.92933655,1.2525196,-2.3563704,4.791971
1570726749,0.4400177,2.6638641,-2.775879,-0.10803223,1.2739868,-0.34983826,2.6966612,-4.35252,4.0979576
1570726749,0.38853455,2.375351,-2.5855408,-1.3288269,0.16719055,0.06561279,2.812979,-5.149894,4.63353
1570726749,-0.23634338,2.7955322,-4.099884,-2.1586761,-0.9279022,0.36602783,2.1891725,-5.212027,3.0090895
1570726749,-0.788208,5.481827,-11.512329,-2.1022186,-1.2655945,0.639801,2.0498323,-4.1586685,-0.98428535
1570726749,-10.082504,20.340256,11.979584,-3.1259308,-3.1745453,0.20198059,-5.43431,7.742466,0.057353497
1570726749,-0.5894928,25.648193,-13.577332,-1.37677,-1.528717,0.82196045,2.0138938,17.265741,-7.9332495
1570726749,-2.0810852,6.783081,2.150177,-1.9136658,1.3006287,0.44592285,0.9457834,-0.7401104,3.5203433
1570726749,-1.1736755,7.233185,-2.2395782,-1.0316162,-1.1750488,1.0350037,1.0364125,-3.1470604,2.651862
1570726749,2.2991028,13.235458,-1.5476532,-1.3703766,-0.61898804,2.044876,3.264305,1.7163515,1.1284435
1570726749,1.1103821,17.079346,-2.104309,-1.345871,2.372284,1.4461975,3.3784027,7.3322296,0.6637418
1570726749,-2.5647125,9.810547,0.457489,-1.8827667,1.5520325,1.0030518,-1.5198827,-0.013531685,2.364101
1570726749,-2.440216,8.092712,0.848938,-1.53656,-0.112976074,0.6195526,-1.8464568,-2.5183544,2.877205
1570726749,-0.6385803,8.63858,-0.29788208,-1.535492,-0.34947205,0.25949097,-0.23793253,-2.0606174,0.8990991
1570726749,-0.6661072,9.113831,-1.5967407,-1.599411,-0.23335266,0.09118652,-0.29477376,-1.5953159,-0.76552176
1570726749,-0.7259674,9.24791,-2.6310425,-1.665451,0.70088196,-0.11973572,-0.32149926,-1.3569756,-2.492307
1570726749,-0.008895874,8.204041,2.236374,-1.3991394,-0.2642517,-0.53944397,0.64277303,-2.3670597,1.6524597
1570726749,-2.2726135,11.706757,-2.8872223,-1.505661,-2.289322,-0.35090637,-1.9966509,1.2973843,-3.0136118
1570726749,-0.63020325,9.143768,1.9945679,-0.36689758,0.64974976,0.4842682,0.65826476,-1.4199085,0.16713071
1570726749,-3.5714722,10.139755,-0.2679596,-0.70565796,0.02230835,0.5087738,-3.0068884,-0.47202015,-1.4976596
1570726749,-3.2015686,12.083847,0.34614563,-0.63534546,0.28222656,0.46936035,-3.1795282,1.1789856,-1.0021532
1570726749,-1.5208435,14.364319,0.095962524,-0.53201294,0.17677307,0.5694885,-1.5704976,3.6870003,-1.5800472
1570726749,-0.25550842,16.408966,0.33418274,-0.5266876,0.05000305,0.52900696,-0.24412489,5.469763,-1.3255383
1570726749,-1.2395172,18.684662,1.0452576,0.11140442,0.33869934,0.5577698,-1.3884575,8.049337,-0.78073895
1570726749,0.6171875,16.465225,-2.2180328,1.0690765,-0.17370605,-0.015335083,0.30555686,5.941492,-3.1020408
1570726749,0.59443665,14.421783,-4.116638,1.9383392,-0.14173889,-0.4915161,0.7151749,3.9994087,-5.0229454
1570726749,-1.1916351,12.119751,-2.0576324,3.3402252,-1.4456329,-1.0262756,-0.87178415,1.457222,-2.576892
1570726749,-2.586258,13.691544,-2.6825104,3.7428894,-2.1103516,-1.0348053,-2.094085,2.8730507,-1.2424089
1570726749,-2.47612,12.457336,-1.530899,2.7777557,-1.4530792,-1.2063141,-1.6922936,2.3523312,0.5649066
1570726749,-0.75349426,10.3624115,1.070404,2.3750916,0.4111328,-1.5908661,0.47774184,0.05594635,3.590716
1570726749,-0.75349426,10.3624115,1.070404,2.3750916,0.4111328,-1.5908661,0.47774184,0.05594635,3.590716
1570726750,-0.75349426,10.3624115,1.070404,2.3750916,0.4111328,-1.5908661,0.47774184,0.05594635,3.590716
1570726750,-0.75349426,10.3624115,1.070404,2.3750916,0.4111328,-1.5908661,0.47774184,0.05594635,3.590716
1570726750,-0.75349426,10.3624115,1.070404,2.3750916,0.4111328,-1.5908661,0.47774184,0.05594635,3.590716
1570726750,-0.75349426,10.3624115,1.070404,2.3750916,0.4111328,-1.5908661,0.47774184,0.05594635,3.590716
1570726750,-0.75349426,10.3624115,1.070404,2.3750916,0.4111328,-1.5908661,0.47774184,0.05594635,3.590716
1570726750,-0.75349426,10.3624115,1.070404,2.3750916,0.4111328,-1.5908661,0.47774184,0.05594635,3.590716
1570726750,-0.75349426,10.3624115,1.070404,2.3750916,0.4111328,-1.5908661,0.47774184,0.05594635,3.590716
1570726750,-0.75349426,10.3624115,1.070404,2.3750916,0.4111328,-1.5908661,0.47774184,0.05594635,3.590716
1570726750,-0.75349426,10.3624115,1.070404,2.3750916,0.4111328,-1.5908661,0.47774184,0.05594635,3.590716
1570726750,-0.75349426,10.3624115,1.070404,2.3750916,0.4111328,-1.5908661,1.8633933,-5.525018,3.792172
1570726750,-5.614929,26.164139,14.781998,-2.6806488,-2.6131592,0.5172882,-4.3995934,16.153671,19.864046
1570726750,1.1474915,13.770554,-7.3045197,-1.5674438,0.28755188,0.90504456,3.0722644,7.7143307,-2.6253233
1570726750,-1.808136,4.3697205,-2.7806702,-1.8209839,-0.4165802,0.2147522,0.43967748,-5.0101147,2.425477
1570726750,-1.2766266,10.190033,1.1781311,-2.0883636,-1.6469574,1.1074524,0.5820738,-0.32926178,5.1446724
1570726750,1.7496338,15.805634,-1.4614716,-1.9498749,-2.0922394,1.9394226,2.7113018,5.5427704,1.2208748
1570726750,1.0134277,14.660004,-2.1641693,-1.5003357,0.1831665,1.118103,3.5255332,5.1420336,1.4202633
1570726750,-1.4897156,9.135391,-0.9455261,-1.8603973,0.28862,0.85816956,-0.75738156,-0.3726778,0.55639124
1570726750,-0.8923645,8.336914,-0.17936707,-1.4470825,-0.2919464,0.7314148,-0.15032595,-2.2422523,1.5177407
1570726750,-1.2850037,9.3029785,-0.9155884,-1.2627869,0.10752869,0.6515198,-0.6225976,-1.6374397,0.59629726
1570726750,-1.337677,9.70401,-0.63067627,-1.1477356,0.2577362,0.5588379,-1.58823,-0.7713175,-0.013355315
1570726750,-2.8364563,9.101868,-2.04805,-1.2542572,0.3589325,0.62275696,-2.3857284,-1.6465454,-1.6499665
1570726750,-2.5287933,9.380783,-1.779892,-1.4641266,0.36106873,0.052841187,-2.1981213,-1.3323364,-1.6766804
1570726750,-4.0874176,9.871597,3.1533508,-1.4683838,-1.7715912,-0.9091034,-3.5881262,-1.3014097,4.031959
1570726750,0.15989685,11.50444,-2.7698975,-0.88461304,-1.0152588,-0.20176697,-0.7061417,1.0688009,-3.81688
1570726750,-0.79660034,10.644928,0.9135742,-0.63002014,0.29289246,0.6845398,-0.115469664,0.0816679,-0.33480477
1570726750,-2.1301575,11.448181,1.3565063,-0.68966675,-0.03414917,0.6280823,-1.9946136,0.5886831,-0.0019145012
1570726750,-1.7111816,13.63887,0.6657715,-0.88568115,0.22576904,0.6983795,-2.0957892,2.7194986,-0.62930167
1570726750,-0.99890137,15.735001,-0.43914795,-0.88993835,0.39620972,0.7164917,-1.3705709,4.9335136,-2.1139762
1570726750,-2.8340607,16.64479,-0.4834442,-0.3637085,0.71473694,0.75271606,-3.2804763,5.6613274,-2.6104171
1570726750,-1.1569214,16.513123,0.07800293,0.7622833,0.12564087,-0.0046844482,-1.9360766,6.226718,-1.3387257
1570726750,1.4108582,14.654022,-3.5240784,1.4291382,-0.23442078,-0.52453613,0.8088737,4.276431,-4.810829
1570726750,0.24607849,12.82724,-3.6114655,3.0621948,-0.87358093,-0.98046875,0.118061244,2.0767498,-4.563094
1570726750,-2.249878,14.346359,-1.8936157,4.2030945,-2.1977081,-1.1658325,-1.9672846,3.1571512,-1.6042695
1570726751,-1.90271,14.231445,-1.5907593,3.544754,-1.8621368,-1.2776794,-1.4170227,3.8964148,-0.9896569
1570726751,-0.26507568,10.946594,2.6146545,2.8853607,0.6390991,-1.3628998,0.37429386,0.8940668,4.5892715
1570726751,1.4168396,8.293823,4.449814,2.5029297,1.2090149,-1.1232147,2.6424932,-1.533781,8.18887
1570726751,0.6938019,8.309387,-3.5815277,2.4336853,1.5818481,-0.85902405,1.914715,-1.7298031,1.2127843
1570726751,2.1901703,8.81337,-2.2012787,2.4677734,1.6585541,-1.0411835,3.0994763,-0.5345135,0.8208666
1570726751,0.86138916,9.086304,0.96266174,2.6233063,1.0247192,-1.1541138,2.3797112,0.33458138,6.549018
1570726751,0.9799042,6.237198,-1.3824615,2.1418,-0.29301453,-1.1573029,2.8102796,-2.0681915,5.5324306
1570726751,-0.9689789,6.003769,-2.6884918,1.5963898,-0.13002014,-1.144516,1.4374601,-2.1225748,3.8108954
1570726751,-1.8201141,5.6350555,-3.2044525,1.2416534,1.0928955,-1.015625,0.19411635,-1.9723616,3.9984083
1570726751,0.4232483,4.2955017,-2.6956787,0.24882507,0.987442,-0.7546387,2.1585517,-2.925417,4.503609
1570726751,0.77041626,2.4352112,-3.0739594,-0.8750305,0.5634613,-0.3189392,2.8426833,-4.946798,4.138734
1570726751,-0.7762451,2.445984,-5.610626,-2.4846497,-0.8117981,0.33512878,1.5271579,-5.379689,2.0807595
1570726751,-1.8117371,7.149399,-27.815643,-0.40951538,-2.7452545,1.085083,-0.2455039,-2.1140509,-13.255811
1570726751,-7.788864,18.404541,12.129211,-2.8777313,-2.6546936,0.40437317,-6.888122,9.689296,16.906658
1570726751,0.473526,20.919647,-9.83638,-1.3149872,-0.040542603,0.7655029,1.7592089,14.696625,-5.018935
1570726751,-1.8093414,5.574005,-0.102752686,-2.1331024,-0.236557,0.6632385,1.2780931,-3.4908133,3.5047693
1570726751,-1.5711212,10.4534,-3.225998,-1.838028,-0.80540466,0.9178314,0.22429192,-0.03145218,1.0032854
1570726751,0.17185974,12.685989,-0.32781982,-1.9264374,-1.2954254,1.5101166,1.574201,2.6823177,2.612553
1570726751,1.8920898,13.358749,-1.5895538,-1.5482788,-0.5380249,1.3790894,3.3108263,2.9189997,1.7947989
1570726751,-1.174881,11.354813,-1.5727997,-1.8390961,0.1320343,1.0083771,-0.03413707,1.4189243,0.398705
1570726751,-1.6345673,9.185669,-0.40203857,-1.5301666,0.35040283,0.9636383,-1.1258488,-1.1451664,1.1984248
1570726751,-1.6968079,9.015671,-0.92396545,-1.3288269,0.3078003,0.71009827,-1.1484745,-1.5967913,0.5650538
1570726751,-1.6728668,8.942657,-0.84017944,-1.3575897,0.35253906,0.45124817,-1.4939013,-1.6896906,-0.11818421
1570726751,-1.4825287,8.836105,-2.5328674,-1.3320312,0.2705078,0.25204468,-1.373583,-1.7432413,-1.5001291
1570726751,-0.5679474,9.575912,-0.36611938,-1.3618469,0.34828186,0.03791809,-0.6515084,-1.2458515,-0.51483244
1570726751,-0.79299927,8.535629,1.6928864,-1.6697083,-0.14067078,-0.56715393,-0.5370096,-1.8400612,-0.75910914
1570726751,-1.1233978,12.735062,-1.9008026,-1.3160553,-1.6927643,-0.10908508,-1.7207522,2.1077204,-2.5953884
1570726751,-1.0874939,11.236298,1.6904907,-0.6236267,0.61247253,0.7441864,0.3988014,0.45462418,-0.18279111
1570726751,-2.100235,11.339249,1.595932,-0.63427734,-0.1459961,0.7122345,-2.1304796,0.7287216,-0.056564093
1570726751,-1.5830841,14.22905,0.6933136,-0.70458984,0.28329468,0.6003876,-2.257648,3.2083979,-0.3780583
1570726751,-2.2798004,15.307632,-1.2411957,-0.81217957,0.64442444,0.6749573,-2.3192763,4.480069,-3.0359194
1570726751,-2.4234467,17.159546,0.31982422,-0.115493774,0.6188507,0.65257263,-3.248932,5.1643476,-2.0471158
1570726751,0.35980225,17.261307,-1.5416718,0.9550934,-0.07888794,-0.023864746,-0.59153557,7.334299,-2.809907
1570726751,1.1151733,13.869919,-3.634201,1.791336,0.39727783,-0.4116211,0.69663936,3.5566368,-4.976919
1570726752,-0.34887695,13.167221,-3.6509705,3.2273102,-0.5167084,-0.93891907,-0.5467003,2.1006746,-4.620961
1570726752,-2.8915253,14.914993,-0.9395294,4.0124054,-2.0901184,-1.1839294,-2.2773118,3.926817,-0.38688797
1570726752,-0.7451172,12.9254,1.4331207,3.0408783,-0.90660095,-1.3991241,-0.6098454,2.7645912,2.7336836
1570726752,0.76802063,10.6150055,1.6258545,2.26857,-0.4442749,-1.6153717,1.1149881,0.4338827,4.29644
1570726752,0.76802063,10.6150055,1.6258545,2.26857,-0.4442749,-1.6153717,1.1149881,0.4338827,4.29644
1570726757,0.76802063,10.6150055,1.6258545,2.26857,-0.4442749,-1.6153717,1.1149881,0.4338827,4.29644
1570726757,0.76802063,10.6150055,1.6258545,2.26857,-0.4442749,-1.6153717,1.1149881,0.4338827,4.29644
1570726757,0.76802063,10.6150055,1.6258545,2.26857,-0.4442749,-1.6153717,1.1149881,0.4338827,4.29644
1570726757,0.76802063,10.6150055,1.6258545,2.26857,-0.4442749,-1.6153717,1.1149881,0.4338827,4.29644
1570726757,0.76802063,10.6150055,1.6258545,2.26857,-0.4442749,-1.6153717,1.1149881,0.4338827,4.29644
1570726757,0.76802063,10.6150055,1.6258545,2.26857,-0.4442749,-1.6153717,1.1149881,0.4338827,4.29644
1570726757,0.76802063,10.6150055,1.6258545,2.26857,-0.4442749,-1.6153717,1.1149881,0.4338827,4.29644
1570726757,0.76802063,10.6150055,1.6258545,2.26857,-0.4442749,-1.6153717,1.1149881,0.4338827,4.29644
1570726757,0.76802063,10.6150055,1.6258545,2.26857,-0.4442749,-1.6153717,1.1149881,0.4338827,4.29644
1570726757,0.76802063,10.6150055,1.6258545,2.26857,-0.4442749,-1.6153717,1.1149881,0.4338827,4.29644
1570726757,0.76802063,10.6150055,1.6258545,2.26857,-0.4442749,-1.6153717,1.1149881,0.4338827,4.29644
1570726757,0.76802063,10.6150055,1.6258545,2.26857,-0.4442749,-1.6153717,1.1149881,0.4338827,4.29644
1570726757,0.76802063,10.6150055,1.6258545,2.26857,-0.4442749,-1.6153717,1.1149881,0.4338827,4.29644
1570726757,0.76802063,10.6150055,1.6258545,2.26857,-0.4442749,-1.6153717,1.1149881,0.4338827,4.29644
1570726757,0.76802063,10.6150055,1.6258545,2.26857,-0.4442749,-1.6153717,1.1149881,0.4338827,4.29644
1570726757,0.76802063,10.6150055,1.6258545,2.26857,-0.4442749,-1.6153717,1.1149881,0.4338827,4.29644
1570726757,0.76802063,10.6150055,1.6258545,2.26857,-0.4442749,-1.6153717,1.1149881,0.4338827,4.29644
1570726757,0.76802063,10.6150055,1.6258545,2.26857,-0.4442749,-1.6153717,1.1149881,0.4338827,4.29644
1570726757,0.76802063,10.6150055,1.6258545,2.26857,-0.4442749,-1.6153717,1.1149881,0.4338827,4.29644
1570726757,0.76802063,10.6150055,1.6258545,2.26857,-0.4442749,-1.6153717,1.1149881,0.4338827,4.29644
1570726757,0.76802063,10.6150055,1.6258545,2.26857,-0.4442749,-1.6153717,1.1149881,0.4338827,4.29644
1570726757,0.76802063,10.6150055,1.6258545,2.26857,-0.4442749,-1.6153717,1.1149881,0.4338827,4.29644
1570726757,0.76802063,10.6150055,1.6258545,2.26857,-0.4442749,-1.6153717,1.1149881,0.4338827,4.29644
1570726757,0.76802063,10.6150055,1.6258545,2.26857,-0.4442749,-1.6153717,1.1149881,0.4338827,4.29644
1570726757,0.76802063,10.6150055,1.6258545,2.26857,-0.4442749,-1.6153717,1.1149881,0.4338827,4.29644
1570726757,0.76802063,10.6150055,1.6258545,2.26857,-0.4442749,-1.6153717,1.1149881,0.4338827,4.29644
1570726757,0.76802063,10.6150055,1.6258545,2.26857,-0.4442749,-1.6153717,1.1149881,0.4338827,4.29644
1570726757,0.76802063,10.6150055,1.6258545,2.26857,-0.4442749,-1.6153717,1.1149881,0.4338827,4.29644
1570726757,0.76802063,10.6150055,1.6258545,2.26857,-0.4442749,-1.6153717,1.1149881,0.4338827,4.29644
1570726757,0.76802063,10.6150055,1.6258545,2.26857,-0.4442749,-1.6153717,1.1149881,0.4338827,4.29644
1570726757,0.76802063,10.6150055,1.6258545,2.26857,-0.4442749,-1.6153717,1.1149881,0.4338827,4.29644
1570726757,0.76802063,10.6150055,1.6258545,2.26857,-0.4442749,-1.6153717,1.1149881,0.4338827,4.29644
1570726757,0.76802063,10.6150055,1.6258545,2.26857,-0.4442749,-1.6153717,1.1149881,0.4338827,4.29644
1570726757,0.76802063,10.6150055,1.6258545,2.26857,-0.4442749,-1.6153717,1.1149881,0.4338827,4.29644
1570726757,0.76802063,10.6150055,1.6258545,2.26857,-0.4442749,-1.6153717,1.1149881,0.4338827,4.29644
1570726757,0.76802063,10.6150055,1.6258545,2.26857,-0.4442749,-1.6153717,1.1149881,0.4338827,4.29644
1570726757,0.76802063,10.6150055,1.6258545,2.26857,-0.4442749,-1.6153717,1.1149881,0.4338827,4.29644
1570726757,0.76802063,10.6150055,1.6258545,2.26857,-0.4442749,-1.6153717,1.1149881,0.4338827,4.29644
1570726757,0.76802063,10.6150055,1.6258545,2.26857,-0.4442749,-1.6153717,1.1149881,0.4338827,4.29644
1570726757,0.76802063,10.6150055,1.6258545,2.26857,-0.4442749,-1.6153717,1.1149881,0.4338827,4.29644
1570726757,0.76802063,10.6150055,1.6258545,2.26857,-0.4442749,-1.6153717,1.1149881,0.4338827,4.29644
1570726757,0.76802063,10.6150055,1.6258545,2.26857,-0.4442749,-1.6153717,1.1149881,0.4338827,4.29644
1570726757,0.76802063,10.6150055,1.6258545,2.26857,-0.4442749,-1.6153717,1.1149881,0.4338827,4.29644
1570726757,0.76802063,10.6150055,1.6258545,2.26857,-0.4442749,-1.6153717,1.1149881,0.4338827,4.29644
1570726757,0.76802063,10.6150055,1.6258545,2.26857,-0.4442749,-1.6153717,1.1149881,0.4338827,4.29644
1570726757,0.76802063,10.6150055,1.6258545,2.26857,-0.4442749,-1.6153717,1.1149881,0.4338827,4.29644
1570726757,0.76802063,10.6150055,1.6258545,2.26857,-0.4442749,-1.6153717,1.1149881,0.4338827,4.29644
1570726757,0.76802063,10.6150055,1.6258545,2.26857,-0.4442749,-1.6153717,1.1149881,0.4338827,4.29644
1570726757,0.76802063,10.6150055,1.6258545,2.26857,-0.4442749,-1.6153717,1.1149881,0.4338827,4.29644
1570726757,0.76802063,10.6150055,1.6258545,2.26857,-0.4442749,-1.6153717,1.1149881,0.4338827,4.29644
1570726757,0.76802063,10.6150055,1.6258545,2.26857,-0.4442749,-1.6153717,1.1149881,0.4338827,4.29644
1570726757,0.76802063,10.6150055,1.6258545,2.26857,-0.4442749,-1.6153717,1.1149881,0.4338827,4.29644
1570726757,0.76802063,10.6150055,1.6258545,2.26857,-0.4442749,-1.6153717,1.1149881,0.4338827,4.29644
1570726757,0.76802063,10.6150055,1.6258545,2.26857,-0.4442749,-1.6153717,1.1149881,0.4338827,4.29644
1570726757,0.76802063,10.6150055,1.6258545,2.26857,-0.4442749,-1.6153717,1.1149881,0.4338827,4.29644
1570726757,0.76802063,10.6150055,1.6258545,2.26857,-0.4442749,-1.6153717,1.1149881,0.4338827,4.29644
1570726757,0.76802063,10.6150055,1.6258545,2.26857,-0.4442749,-1.6153717,1.1149881,0.4338827,4.29644
1570726757,0.76802063,10.6150055,1.6258545,2.26857,-0.4442749,-1.6153717,1.1149881,0.4338827,4.29644
1570726757,0.76802063,10.6150055,1.6258545,2.26857,-0.4442749,-1.6153717,1.1149881,0.4338827,4.29644
1570726757,0.76802063,10.6150055,1.6258545,2.26857,-0.4442749,-1.6153717,1.1149881,0.4338827,4.29644
1570726757,0.76802063,10.6150055,1.6258545,2.26857,-0.4442749,-1.6153717,1.1149881,0.4338827,4.29644
1570726757,0.76802063,10.6150055,1.6258545,2.26857,-0.4442749,-1.6153717,1.1149881,0.4338827,4.29644
1570726757,0.76802063,10.6150055,1.6258545,2.26857,-0.4442749,-1.6153717,1.1149881,0.4338827,4.29644
1570726757,0.76802063,10.6150055,1.6258545,2.26857,-0.4442749,-1.6153717,1.1149881,0.4338827,4.29644
1570726757,0.76802063,10.6150055,1.6258545,2.26857,-0.4442749,-1.6153717,1.1149881,0.4338827,4.29644
1570726757,0.76802063,10.6150055,1.6258545,2.26857,-0.4442749,-1.6153717,1.1149881,0.4338827,4.29644
1570726757,0.76802063,10.6150055,1.6258545,2.26857,-0.4442749,-1.6153717,1.1149881,0.4338827,4.29644
1570726757,0.76802063,10.6150055,1.6258545,2.26857,-0.4442749,-1.6153717,1.1149881,0.4338827,4.29644
1570726757,0.76802063,10.6150055,1.6258545,2.26857,-0.4442749,-1.6153717,1.1149881,0.4338827,4.29644
1570726757,0.76802063,10.6150055,1.6258545,2.26857,-0.4442749,-1.6153717,1.1149881,0.4338827,4.29644
1570726757,0.76802063,10.6150055,1.6258545,2.26857,-0.4442749,-1.6153717,1.1149881,0.4338827,4.29644
1570726757,0.76802063,10.6150055,1.6258545,2.26857,-0.4442749,-1.6153717,1.1149881,0.4338827,4.29644
1570726757,0.76802063,10.6150055,1.6258545,2.26857,-0.4442749,-1.6153717,1.1149881,0.4338827,4.29644
1570726757,0.76802063,10.6150055,1.6258545,2.26857,-0.4442749,-1.6153717,1.1149881,0.4338827,4.29644
1570726757,0.76802063,10.6150055,1.6258545,2.26857,-0.4442749,-1.6153717,1.1149881,0.4338827,4.29644
1570726757,0.76802063,10.6150055,1.6258545,2.26857,-0.4442749,-1.6153717,1.1149881,0.4338827,4.29644
1570726757,0.76802063,10.6150055,1.6258545,2.26857,-0.4442749,-1.6153717,1.1149881,0.4338827,4.29644
1570726757,0.76802063,10.6150055,1.6258545,2.26857,-0.4442749,-1.6153717,1.1149881,0.4338827,4.29644
1570726757,0.76802063,10.6150055,1.6258545,2.26857,-0.4442749,-1.6153717,1.1149881,0.4338827,4.29644
1570726757,0.76802063,10.6150055,1.6258545,2.26857,-0.4442749,-1.6153717,1.1149881,0.4338827,4.29644
1570726757,0.76802063,10.6150055,1.6258545,2.26857,-0.4442749,-1.6153717,1.1149881,0.4338827,4.29644
1570726757,0.76802063,10.6150055,1.6258545,2.26857,-0.4442749,-1.6153717,1.1149881,0.4338827,4.29644
1570726757,0.76802063,10.6150055,1.6258545,2.26857,-0.4442749,-1.6153717,1.1149881,0.4338827,4.29644
1570726757,0.76802063,10.6150055,1.6258545,2.26857,-0.4442749,-1.6153717,1.1149881,0.4338827,4.29644
1570726757,0.76802063,10.6150055,1.6258545,2.26857,-0.4442749,-1.6153717,1.1149881,0.4338827,4.29644
1570726757,0.76802063,10.6150055,1.6258545,2.26857,-0.4442749,-1.6153717,1.1149881,0.4338827,4.29644
1570726757,0.76802063,10.6150055,1.6258545,2.26857,-0.4442749,-1.6153717,1.1149881,0.4338827,4.29644
1570726757,0.76802063,10.6150055,1.6258545,2.26857,-0.4442749,-1.6153717,1.1149881,0.4338827,4.29644
1570726757,0.76802063,10.6150055,1.6258545,2.26857,-0.4442749,-1.6153717,1.1149881,0.4338827,4.29644
1570726757,0.76802063,10.6150055,1.6258545,2.26857,-0.4442749,-1.6153717,1.1149881,0.4338827,4.29644
1570726757,0.76802063,10.6150055,1.6258545,2.26857,-0.4442749,-1.6153717,1.1149881,0.4338827,4.29644
1570726757,0.76802063,10.6150055,1.6258545,2.26857,-0.4442749,-1.6153717,1.1149881,0.4338827,4.29644
1570726757,0.76802063,10.6150055,1.6258545,2.26857,-0.4442749,-1.6153717,1.1149881,0.4338827,4.29644
1570726757,0.76802063,10.6150055,1.6258545,2.26857,-0.4442749,-1.6153717,1.1149881,0.4338827,4.29644
1570726757,0.76802063,10.6150055,1.6258545,2.26857,-0.4442749,-1.6153717,1.1149881,0.4338827,4.29644
1570726757,0.76802063,10.6150055,1.6258545,2.26857,-0.4442749,-1.6153717,1.1149881,0.4338827,4.29644
1570726757,0.76802063,10.6150055,1.6258545,2.26857,-0.4442749,-1.6153717,1.1149881,0.4338827,4.29644
1570726757,0.76802063,10.6150055,1.6258545,2.26857,-0.4442749,-1.6153717,1.1149881,0.4338827,4.29644
1570726757,0.76802063,10.6150055,1.6258545,2.26857,-0.4442749,-1.6153717,1.1149881,0.4338827,4.29644
1570726757,0.76802063,10.6150055,1.6258545,2.26857,-0.4442749,-1.6153717,1.1149881,0.4338827,4.29644
1570726757,0.76802063,10.6150055,1.6258545,2.26857,-0.4442749,-1.6153717,1.1149881,0.4338827,4.29644
1570726757,0.76802063,10.6150055,1.6258545,2.26857,-0.4442749,-1.6153717,1.1149881,0.4338827,4.29644
1570726757,0.76802063,10.6150055,1.6258545,2.26857,-0.4442749,-1.6153717,1.1149881,0.4338827,4.29644
1570726757,0.76802063,10.6150055,1.6258545,2.26857,-0.4442749,-1.6153717,1.1149881,0.4338827,4.29644
1570726757,0.76802063,10.6150055,1.6258545,2.26857,-0.4442749,-1.6153717,1.1149881,0.4338827,4.29644
1570726757,0.76802063,10.6150055,1.6258545,2.26857,-0.4442749,-1.6153717,1.1149881,0.4338827,4.29644
1570726757,0.76802063,10.6150055,1.6258545,2.26857,-0.4442749,-1.6153717,1.1149881,0.4338827,4.29644
1570726757,0.76802063,10.6150055,1.6258545,2.26857,-0.4442749,-1.6153717,1.1149881,0.4338827,4.29644
1570726757,0.76802063,10.6150055,1.6258545,2.26857,-0.4442749,-1.6153717,1.1149881,0.4338827,4.29644
1570726757,0.76802063,10.6150055,1.6258545,2.26857,-0.4442749,-1.6153717,1.1149881,0.4338827,4.29644
1570726757,0.76802063,10.6150055,1.6258545,2.26857,-0.4442749,-1.6153717,1.1149881,0.4338827,4.29644
1570726757,0.76802063,10.6150055,1.6258545,2.26857,-0.4442749,-1.6153717,1.1149881,0.4338827,4.29644
1570726757,0.76802063,10.6150055,1.6258545,2.26857,-0.4442749,-1.6153717,1.1149881,0.4338827,4.29644
1570726757,0.76802063,10.6150055,1.6258545,2.26857,-0.4442749,-1.6153717,1.1149881,0.4338827,4.29644
1570726757,0.76802063,10.6150055,1.6258545,2.26857,-0.4442749,-1.6153717,1.1149881,0.4338827,4.29644
1570726757,0.76802063,10.6150055,1.6258545,2.26857,-0.4442749,-1.6153717,1.1149881,0.4338827,4.29644
1570726757,0.76802063,10.6150055,1.6258545,2.26857,-0.4442749,-1.6153717,1.1149881,0.4338827,4.29644
1570726757,0.76802063,10.6150055,1.6258545,2.26857,-0.4442749,-1.6153717,1.1149881,0.4338827,4.29644
1570726757,0.76802063,10.6150055,1.6258545,2.26857,-0.4442749,-1.6153717,1.1149881,0.4338827,4.29644
1570726757,0.76802063,10.6150055,1.6258545,2.26857,-0.4442749,-1.6153717,1.1149881,0.4338827,4.29644
1570726757,0.76802063,10.6150055,1.6258545,2.26857,-0.4442749,-1.6153717,1.1149881,0.4338827,4.29644
1570726757,0.76802063,10.6150055,1.6258545,2.26857,-0.4442749,-1.6153717,1.1149881,0.4338827,4.29644
1570726757,0.76802063,10.6150055,1.6258545,2.26857,-0.4442749,-1.6153717,1.1149881,0.4338827,4.29644
1570726757,0.76802063,10.6150055,1.6258545,2.26857,-0.4442749,-1.6153717,1.1149881,0.4338827,4.29644
1570726757,0.76802063,10.6150055,1.6258545,2.26857,-0.4442749,-1.6153717,1.1149881,0.4338827,4.29644
1570726757,0.76802063,10.6150055,1.6258545,2.26857,-0.4442749,-1.6153717,1.1149881,0.4338827,4.29644
1570726757,0.76802063,10.6150055,1.6258545,2.26857,-0.4442749,-1.6153717,1.1149881,0.4338827,4.29644
1570726757,0.76802063,10.6150055,1.6258545,2.26857,-0.4442749,-1.6153717,1.1149881,0.4338827,4.29644
1570726757,0.76802063,10.6150055,1.6258545,2.26857,-0.4442749,-1.6153717,1.1149881,0.4338827,4.29644
1570726757,0.76802063,10.6150055,1.6258545,2.26857,-0.4442749,-1.6153717,1.1149881,0.4338827,4.29644
1570726757,0.76802063,10.6150055,1.6258545,2.26857,-0.4442749,-1.6153717,1.1149881,0.4338827,4.29644
1570726757,0.76802063,10.6150055,1.6258545,2.26857,-0.4442749,-1.6153717,1.1149881,0.4338827,4.29644
1570726757,0.76802063,10.6150055,1.6258545,2.26857,-0.4442749,-1.6153717,1.1149881,0.4338827,4.29644
1570726757,0.76802063,10.6150055,1.6258545,2.26857,-0.4442749,-1.6153717,1.1149881,0.4338827,4.29644
1570726757,0.76802063,10.6150055,1.6258545,2.26857,-0.4442749,-1.6153717,1.1149881,0.4338827,4.29644
1570726757,0.76802063,10.6150055,1.6258545,2.26857,-0.4442749,-1.6153717,1.1149881,0.4338827,4.29644
1570726757,0.76802063,10.6150055,1.6258545,2.26857,-0.4442749,-1.6153717,1.1149881,0.4338827,4.29644
1570726757,0.76802063,10.6150055,1.6258545,2.26857,-0.4442749,-1.6153717,1.1149881,0.4338827,4.29644
1570726757,0.76802063,10.6150055,1.6258545,2.26857,-0.4442749,-1.6153717,1.1149881,0.4338827,4.29644
1570726757,0.76802063,10.6150055,1.6258545,2.26857,-0.4442749,-1.6153717,1.1149881,0.4338827,4.29644
1570726757,0.76802063,10.6150055,1.6258545,2.26857,-0.4442749,-1.6153717,1.1149881,0.4338827,4.29644
1570726757,0.76802063,10.6150055,1.6258545,2.26857,-0.4442749,-1.6153717,1.1149881,0.4338827,4.29644
1570726757,0.76802063,10.6150055,1.6258545,2.26857,-0.4442749,-1.6153717,1.1149881,0.4338827,4.29644
1570726757,0.76802063,10.6150055,1.6258545,2.26857,-0.4442749,-1.6153717,1.1149881,0.4338827,4.29644
1570726757,0.76802063,10.6150055,1.6258545,2.26857,-0.4442749,-1.6153717,1.1149881,0.4338827,4.29644
1570726757,0.76802063,10.6150055,1.6258545,2.26857,-0.4442749,-1.6153717,1.1149881,0.4338827,4.29644
1570726757,0.76802063,10.6150055,1.6258545,2.26857,-0.4442749,-1.6153717,1.1149881,0.4338827,4.29644
1570726757,0.76802063,10.6150055,1.6258545,2.26857,-0.4442749,-1.6153717,1.1149881,0.4338827,4.29644
1570726757,0.76802063,10.6150055,1.6258545,2.26857,-0.4442749,-1.6153717,1.1149881,0.4338827,4.29644
1570726757,0.76802063,10.6150055,1.6258545,2.26857,-0.4442749,-1.6153717,1.1149881,0.4338827,4.29644
1570726757,0.76802063,10.6150055,1.6258545,2.26857,-0.4442749,-1.6153717,1.1149881,0.4338827,4.29644
1570726757,0.76802063,10.6150055,1.6258545,2.26857,-0.4442749,-1.6153717,1.1149881,0.4338827,4.29644
1570726757,0.76802063,10.6150055,1.6258545,2.26857,-0.4442749,-1.6153717,1.1149881,0.4338827,4.29644
1570726757,0.76802063,10.6150055,1.6258545,2.26857,-0.4442749,-1.6153717,1.1149881,0.4338827,4.29644
1570726757,0.76802063,10.6150055,1.6258545,2.26857,-0.4442749,-1.6153717,1.1149881,0.4338827,4.29644
1570726757,0.76802063,10.6150055,1.6258545,2.26857,-0.4442749,-1.6153717,1.1149881,0.4338827,4.29644
1570726757,0.76802063,10.6150055,1.6258545,2.26857,-0.4442749,-1.6153717,1.1149881,0.4338827,4.29644
1570726757,0.76802063,10.6150055,1.6258545,2.26857,-0.4442749,-1.6153717,1.1149881,0.4338827,4.29644
1570726757,0.76802063,10.6150055,1.6258545,2.26857,-0.4442749,-1.6153717,1.1149881,0.4338827,4.29644
1570726757,0.76802063,10.6150055,1.6258545,2.26857,-0.4442749,-1.6153717,1.1149881,0.4338827,4.29644
1570726757,0.76802063,10.6150055,1.6258545,2.26857,-0.4442749,-1.6153717,1.1149881,0.4338827,4.29644
1570726757,0.76802063,10.6150055,1.6258545,2.26857,-0.4442749,-1.6153717,1.1149881,0.4338827,4.29644
1570726757,0.76802063,10.6150055,1.6258545,2.26857,-0.4442749,-1.6153717,1.1149881,0.4338827,4.29644
1570726757,0.76802063,10.6150055,1.6258545,2.26857,-0.4442749,-1.6153717,1.1149881,0.4338827,4.29644
1570726757,0.76802063,10.6150055,1.6258545,2.26857,-0.4442749,-1.6153717,1.1149881,0.4338827,4.29644
1570726757,0.76802063,10.6150055,1.6258545,2.26857,-0.4442749,-1.6153717,1.1149881,0.4338827,4.29644
1570726757,0.76802063,10.6150055,1.6258545,2.26857,-0.4442749,-1.6153717,1.1149881,0.4338827,4.29644
1570726757,0.76802063,10.6150055,1.6258545,2.26857,-0.4442749,-1.6153717,1.1149881,0.4338827,4.29644
1570726757,0.76802063,10.6150055,1.6258545,2.26857,-0.4442749,-1.6153717,1.1149881,0.4338827,4.29644
1570726757,0.76802063,10.6150055,1.6258545,2.26857,-0.4442749,-1.6153717,1.1149881,0.4338827,4.29644
1570726757,0.76802063,10.6150055,1.6258545,2.26857,-0.4442749,-1.6153717,1.1149881,0.4338827,4.29644
1570726757,0.76802063,10.6150055,1.6258545,2.26857,-0.4442749,-1.6153717,1.1149881,0.4338827,4.29644
1570726757,0.76802063,10.6150055,1.6258545,2.26857,-0.4442749,-1.6153717,1.1149881,0.4338827,4.29644
1570726757,0.76802063,10.6150055,1.6258545,2.26857,-0.4442749,-1.6153717,1.1149881,0.4338827,4.29644
1570726757,0.76802063,10.6150055,1.6258545,2.26857,-0.4442749,-1.6153717,1.1149881,0.4338827,4.29644
1570726757,0.76802063,10.6150055,1.6258545,2.26857,-0.4442749,-1.6153717,1.1149881,0.4338827,4.29644
1570726757,0.76802063,10.6150055,1.6258545,2.26857,-0.4442749,-1.6153717,1.1149881,0.4338827,4.29644
1570726757,0.76802063,10.6150055,1.6258545,2.26857,-0.4442749,-1.6153717,1.1149881,0.4338827,4.29644
1570726757,0.76802063,10.6150055,1.6258545,2.26857,-0.4442749,-1.6153717,1.1149881,0.4338827,4.29644
1570726757,0.76802063,10.6150055,1.6258545,2.26857,-0.4442749,-1.6153717,1.1149881,0.4338827,4.29644
1570726757,0.76802063,10.6150055,1.6258545,2.26857,-0.4442749,-1.6153717,1.1149881,0.4338827,4.29644
1570726757,0.76802063,10.6150055,1.6258545,2.26857,-0.4442749,-1.6153717,1.1149881,0.4338827,4.29644
1570726757,0.76802063,10.6150055,1.6258545,2.26857,-0.4442749,-1.6153717,1.1149881,0.4338827,4.29644
1570726757,0.76802063,10.6150055,1.6258545,2.26857,-0.4442749,-1.6153717,1.1149881,0.4338827,4.29644
1570726757,0.76802063,10.6150055,1.6258545,2.26857,-0.4442749,-1.6153717,1.1149881,0.4338827,4.29644
1570726757,0.76802063,10.6150055,1.6258545,2.26857,-0.4442749,-1.6153717,1.1149881,0.4338827,4.29644
1570726757,0.76802063,10.6150055,1.6258545,2.26857,-0.4442749,-1.6153717,1.1149881,0.4338827,4.29644
1570726757,0.76802063,10.6150055,1.6258545,2.26857,-0.4442749,-1.6153717,1.1149881,0.4338827,4.29644
1570726757,0.76802063,10.6150055,1.6258545,2.26857,-0.4442749,-1.6153717,1.1149881,0.4338827,4.29644
1570726757,0.76802063,10.6150055,1.6258545,2.26857,-0.4442749,-1.6153717,1.1149881,0.4338827,4.29644
1570726757,0.76802063,10.6150055,1.6258545,2.26857,-0.4442749,-1.6153717,1.1149881,0.4338827,4.29644
1570726757,0.76802063,10.6150055,1.6258545,2.26857,-0.4442749,-1.6153717,1.1149881,0.4338827,4.29644
1570726757,0.76802063,10.6150055,1.6258545,2.26857,-0.4442749,-1.6153717,1.1149881,0.4338827,4.29644
1570726757,0.76802063,10.6150055,1.6258545,2.26857,-0.4442749,-1.6153717,1.1149881,0.4338827,4.29644
1570726757,0.76802063,10.6150055,1.6258545,2.26857,-0.4442749,-1.6153717,1.1149881,0.4338827,4.29644
1570726758,0.76802063,10.6150055,1.6258545,2.26857,-0.4442749,-1.6153717,1.1149881,0.4338827,4.29644
1570726758,0.5106354,1.5086517,-3.8245392,2.26857,-0.4442749,-1.6153717,2.323482,-6.746865,2.944038
1570726758,0.64711,7.040451,-2.2312012,2.26857,-0.4442749,-1.6153717,-2.6632357,4.0494223,-3.6621256
1570726758,0.8565979,7.360077,-0.07762146,3.657669,-0.61364746,-1.158371,-2.6634238,20.277758,16.057844
1570726758,-0.33091736,4.415222,-2.487381,0.7388458,1.2846527,-0.6427765,1.3924148,-2.7075849,4.6778717
1570726758,0.9427948,3.2779694,-3.0739594,-0.113357544,1.0353699,-0.4212036,3.071674,-3.7412314,4.5861382
1570726758,-0.26628113,2.1048126,-4.626602,-1.9477539,0.13310242,0.36709595,1.7901938,-5.2894444,2.6182256
1570726758,-1.0551605,6.1091156,-22.10907,-0.6001892,-2.801712,0.95510864,1.1289163,-2.4833055,-11.33777
1570726758,-6.5343018,16.859085,15.490677,-2.875595,-2.403305,0.6057129,-4.5846515,9.001065,20.652428
1570726758,-3.0004578,23.71727,-9.9142,-0.38500977,-1.1441498,0.70477295,-1.0829272,16.886152,1.9928417
1570726758,-0.922287,5.024536,-1.937912,-2.4004822,-0.023498535,0.012359619,2.7412705,-3.5041103,2.403604
1570726758,-1.3951416,8.583527,-2.9446716,-1.6441498,-1.1430969,0.7186279,-0.31270647,-2.62253,3.572949
1570726758,-1.143753,12.1293335,-2.7687073,-1.9093933,-1.3423004,1.6091919,0.5544591,2.0222301,0.56241703
1570726758,0.631546,12.547119,-1.2555695,-1.7677155,-0.06291199,1.6219635,2.1381345,2.390768,2.3735957
1570726758,-1.1676941,11.953354,-0.8760834,-1.901947,-0.028823853,1.167099,0.21419597,2.114358,1.5802627
1570726758,-2.4198608,10.108627,-0.8820648,-1.7868958,-0.056518555,0.8421936,-1.660119,-0.06923008,1.3137276
1570726758,-2.4378204,8.936661,-0.783905,-1.759201,-0.091674805,0.57055664,-1.9103656,-1.4750175,0.86968887
1570726758,-0.7379303,8.933075,-0.65940857,-1.2851562,-0.5646515,0.2850647,-0.005335897,-1.7150869,0.7299719
1570726758,-0.1884613,9.007294,-2.7459564,-1.105133,0.18849182,0.12527466,0.1632869,-1.5863838,-2.0667093
1570726758,-0.17529297,9.347275,-2.0384674,-1.2723694,1.1291199,0.15722656,0.15683645,-1.3369398,-1.7355005
1570726758,0.4052887,8.253128,3.235962,-1.2936707,0.43563843,-0.1378479,0.7538981,-2.2464466,-0.34920967
1570726758,-2.9298248,11.729507,-2.4658356,-1.2127228,-2.0102234,-0.049423218,-2.715759,1.0614128,-2.5944808
1570726758,-1.0587616,10.321716,0.14263916,-0.6705017,0.63056946,0.5034485,-0.5647733,-0.240798,-0.938744
1570726758,-2.816101,10.77182,0.9064026,-0.85691833,-0.2131195,0.41290283,-2.5801415,-0.23890495,-0.05602002
1570726758,-1.4897156,12.346008,1.2451782,-0.6481323,-0.13002014,0.3830719,-1.7269495,1.6112032,0.0848341
1570726758,-0.06517029,13.790909,0.28269958,-0.5810089,0.44415283,0.6472473,-0.29020557,3.1328936,-1.0246102
1570726758,-0.35006714,15.490799,-0.9048157,-0.38180542,0.45480347,0.6152954,-0.5808315,4.5739956,-2.276129
1570726758,-2.986084,15.763733,-0.20332336,0.10821533,0.38876343,0.5098419,-3.2436144,4.678916,-1.796472
1570726758,-1.2730408,16.61966,-1.2352142,0.7835846,-0.24081421,0.18066406,-2.0995076,6.3388186,-2.2009869
1570726758,0.92604065,15.426147,-3.447464,1.3353882,0.20233154,-0.1847229,0.40422708,4.894148,-4.5679836
1570726758,-0.59547424,12.3867035,-2.5807648,2.731964,-0.6764984,-0.62680054,-0.8909116,1.7560577,-3.014606
1570726758,-1.8524323,12.979279,-2.1725464,3.4914856,-1.2719879,-1.0848694,-1.9532585,1.9187193,-1.5120885
1570726758,-2.2630463,12.779358,-0.25239563,2.9332886,-0.21098328,-1.3522491,-2.1059911,2.2906637,0.79672337
1570726759,0.33706665,12.451355,1.5348816,2.5391388,-0.65519714,-1.7815552,0.58158034,1.832736,4.3315315
1570726759,2.5229645,11.446991,1.4690399,1.7220917,0.01272583,-1.732544,3.7391922,1.6790285,4.385333
1570726759,3.9942017,9.62619,0.65979004,1.8009186,0.6902313,-1.3533173,5.232696,0.15608978,5.1065397
1570726759,3.9942017,9.62619,0.65979004,1.8009186,0.6902313,-1.3533173,5.232696,0.15608978,5.1065397
1570726759,3.9942017,9.62619,0.65979004,1.8009186,0.6902313,-1.3533173,5.232696,0.15608978,5.1065397
1570726759,3.9942017,9.62619,0.65979004,1.8009186,0.6902313,-1.3533173,5.232696,0.15608978,5.1065397
1570726759,3.9942017,9.62619,0.65979004,1.8009186,0.6902313,-1.3533173,5.232696,0.15608978,5.1065397
1570726759,3.9942017,9.62619,0.65979004,1.8009186,0.6902313,-1.3533173,5.232696,0.15608978,5.1065397
1570726759,3.9942017,9.62619,0.65979004,1.8009186,0.6902313,-1.3533173,5.232696,0.15608978,5.1065397
1570726759,3.9942017,9.62619,0.65979004,1.8009186,0.6902313,-1.3533173,5.232696,0.15608978,5.1065397
1570726759,3.9942017,9.62619,0.65979004,1.8009186,0.6902313,-1.3533173,5.232696,0.15608978,5.1065397
1570726759,3.9942017,9.62619,0.65979004,1.8009186,0.6902313,-1.3533173,5.232696,0.15608978,5.1065397
1570726759,3.9942017,9.62619,0.65979004,1.8009186,0.6902313,-1.3533173,5.232696,0.15608978,5.1065397
1570726759,1.3378448,18.171097,-3.9861603,-2.4984894,-1.7694702,-0.52453613,4.549652,8.7528515,3.0672874
1570726759,-3.6002045,9.03363,-2.3377533,-2.1970215,-1.2059479,0.5684204,0.22249079,1.7110758,1.0903888
1570726759,-2.934616,11.054337,-5.246704,-1.599411,-1.1228485,0.36175537,0.24309063,1.5521212,-0.3417368
1570726759,-1.6381531,11.977295,-2.2731018,-1.4939423,-0.26104736,0.48320007,1.0594432,2.5379286,1.0940967
1570726759,-1.5100708,10.623383,-1.5811768,-1.6143188,-0.6711731,0.6845398,1.124764,1.1207161,1.2071457
1570726759,-1.5064697,10.173264,-0.06326294,-1.6047363,-1.8056793,1.0989227,1.2728157,0.05824566,2.6212995
1570726759,-1.8895416,9.962585,-1.4363251,-1.662262,-1.4253845,1.5740356,0.13300967,0.20751953,0.88339233
1570726759,-3.1249542,9.355652,-1.3297882,-2.0361633,0.026565552,1.8243713,-1.4674261,-1.0864935,-0.29277515
1570726759,-2.7945557,10.051163,-0.28710938,-1.8050079,-0.079956055,1.8179779,-1.8338459,-0.55067444,0.5284303
1570726759,-1.7889862,8.111862,-1.9750214,-1.4992676,-0.17370605,1.2917328,-1.8715733,-1.7487993,-1.8721849
1570726759,-1.0396118,8.889984,-2.3772583,-1.4183197,1.2313843,0.62168884,-0.78563726,-2.0902443,-2.511283
1570726759,-1.9589844,8.023285,0.14503479,-1.3394775,1.3815918,0.15190125,-2.1794913,-1.9376745,-1.9646535
1570726759,-2.9729156,10.072708,0.6346588,-1.6271057,-3.727417,-1.2254791,-2.549478,-1.6286602,3.332901
1570726759,1.8944855,11.215942,-1.4542847,-0.851593,0.36106873,0.4299469,1.0687592,1.5723085,-4.4020395
1570726759,-0.6948395,10.69281,2.1801147,-0.42016602,-0.101257324,0.49598694,0.38646507,0.08937931,1.0695153
1570726759,-1.5399933,10.8328705,1.4833984,-0.55970764,-0.25253296,0.40330505,-1.2155548,0.33532906,-0.88554335
1570726759,-0.7259674,12.045532,2.61586,-0.61190796,-0.18435669,0.61743164,-0.7180435,1.4169436,0.8318236
1570726759,-0.8444824,12.875122,1.4295349,-0.6087189,-0.21524048,0.7069092,-0.76486456,2.553522,-0.46331406
1570726759,-1.317337,12.018005,1.2308044,-0.6683655,-0.09593201,0.8603058,-1.531954,1.7087669,-1.138314
1570726759,-1.337677,14.323624,0.55085754,-0.5479889,-0.19607544,0.74632263,-1.991282,3.276123,-2.0243983
1570726760,-2.0343933,15.299255,1.9921722,0.013397217,-0.5923462,0.41183472,-2.745935,5.181567,-0.45056176
1570726760,-0.8049774,15.25856,-1.170578,0.6536255,-0.5507965,0.028335571,-1.9316572,5.088415,-3.3557298
1570726760,0.7297058,12.577057,-1.0496674,1.1905212,-0.40060425,-0.08457947,-0.31760716,2.503397,-3.264752
1570726760,0.46754456,11.102219,-1.7966614,2.1364746,-1.1942291,-0.7279968,-0.1693744,0.52736855,-3.2803378
1570726760,-2.0200348,12.428604,-1.6422272,2.52742,-0.90341187,-1.5397339,-2.1202397,1.5043306,-2.5620036
1570726760,-2.5539398,11.310516,-1.4411163,2.5561829,0.1906128,-1.6494598,-2.7100134,0.7859497,-1.261339
1570726760,-1.119812,11.475723,1.1685638,1.9628296,-0.37503052,-1.8678284,-0.610325,0.7291813,1.9785244
1570726760,1.7364655,12.2083435,2.1286316,1.5931854,-0.6392212,-1.9669037,2.717135,1.6203518,3.3252926
1570726760,3.410019,10.312134,1.1170807,1.4312744,0.041488647,-1.5418701,4.809887,0.54951286,3.2535367
1570726760,4.287491,8.905548,-4.9007416,1.221405,1.6180725,-0.88778687,6.3972034,-1.3332138,-2.399255
1570726760,4.000183,9.727951,0.069625854,1.649643,0.7168579,-0.5415802,6.2402697,-0.46271896,2.1898766
1570726760,2.3757172,9.138977,0.7651367,1.9191589,-0.6338959,-0.16235352,4.849639,-0.6773882,4.1471686
1570726760,0.9906769,8.534439,-0.26437378,1.5484467,-0.60832214,-0.19004822,3.5421019,-1.1837988,3.5056794
1570726760,-0.14057922,7.916733,-1.0017853,1.4919891,-1.0962219,-0.09843445,2.334349,-1.6415634,3.2293172
1570726760,0.45318604,7.3110046,-1.6206818,1.0041046,-1.6277924,0.017684937,3.011577,-1.9347048,2.6200833
1570726760,0.17066956,6.62027,-0.67497253,0.5534973,-1.1185913,0.3330078,2.9945035,-2.6102934,3.5084286
1570726760,-1.0216522,5.885254,0.7471771,-0.1250763,-0.88848877,0.69200134,1.8880649,-3.3440542,5.0184107
1570726760,-1.0396118,5.51416,-0.37928772,-0.9346771,-1.2677307,1.1287537,1.3769531,-3.8595037,3.9401493
1570726760,-0.40992737,5.656616,-1.5452728,-1.6718445,-1.3124695,1.5985413,1.878844,-3.998949,2.221052
1570726760,-1.0587616,6.549652,-3.5456238,-2.5155334,-0.69888306,1.9426117,1.2200822,-3.8688593,-0.34879804
1570726760,-2.2450867,15.369888,-10.177567,-3.1248627,0.55067444,1.9394226,-1.1513585,2.8817968,-7.085113
1570726760,-10.969559,23.535309,-5.7949677,-0.75465393,-3.0062408,-0.049423218,-10.010932,15.305235,-4.4416165
1570726760,-5.8854675,8.261505,-9.44014,-0.016418457,-3.167099,0.24139404,-5.8291087,-1.1988897,-6.656993
1570726760,0.94758606,13.87471,-7.7618103,-0.21350098,-2.3468323,-0.77593994,1.427031,1.9094267,-7.1891494
1570726760,2.2691803,15.129272,1.1278534,1.6911926,-0.056518555,-1.3597107,4.650879,4.6119795,2.8520594
1570726760,1.6000061,8.746323,8.56665,0.8091583,0.4611969,0.10397339,3.722722,-0.27292156,10.146908
1570726760,0.59443665,4.2548065,1.4594574,0.91567993,-2.7612305,0.6706848,2.6786518,-5.8475056,4.3494406
1570726760,0.68421936,9.543594,0.2515869,-0.019622803,-2.6227417,1.104248,2.3474975,-1.876154,2.0022297
1570726760,3.560852,17.713806,2.193283,-0.48406982,-0.5710449,1.7402191,4.493496,6.9131355,3.9261155
1570726760,4.632263,10.814911,1.4750214,-1.1125793,0.65400696,0.8049164,5.8928103,1.2327948,3.091919
1570726760,1.8621674,8.522476,3.371231,-2.0734558,0.05532837,-0.0206604,2.9722838,-2.0975704,3.7292087
1570726760,0.71414185,10.937027,4.3372803,-1.9392242,-1.7545471,-0.07392883,1.6805114,-0.17072105,4.5068984
1570726760,-1.6609039,13.343201,3.7447205,-1.4843597,-2.9582977,0.009155273,-0.4121763,2.8238363,3.4935641
1570726760,-3.8527985,10.860413,2.3812256,-1.0358887,-3.3364716,0.38519287,-3.1654952,0.7038832,1.587316
1570726761,-3.432602,9.833298,2.316574,-0.6886139,-2.7260742,0.16575623,-2.8518915,-0.94064236,0.90696526
1570726761,-3.2135468,10.680847,2.0316772,-0.33067322,-2.7963867,0.1327362,-2.9263096,0.059254646,0.68986464
1570726761,-2.603012,11.039978,1.1087036,-0.105911255,-3.072281,-0.15596008,-2.3911562,0.45444965,-0.32078862
1570726761,-3.2326965,10.8723755,0.9866028,0.029388428,-3.3300781,-0.41908264,-2.8494484,0.3649006,-0.47199547
1570726761,-2.8340607,10.787384,-0.0440979,-0.09844971,-3.4504547,-0.30082703,-2.904204,0.1687069,-1.415343
1570726761,-2.3396606,10.376785,-1.0795898,-0.56077576,-2.9231415,-0.32640076,-2.1898057,-0.042469025,-2.7321532
1570726761,-2.1349487,10.703583,-0.6426544,-0.75572205,-1.7534943,-0.1144104,-2.1582482,-0.009547234,-2.6225548
1570726761,-2.3252869,11.068695,-0.34457397,-0.75891113,-1.3103333,-4.272461E-4,-2.075997,0.4806404,-2.4372313
1570726761,-2.3252869,11.068695,-0.34457397,-0.75891113,-1.3103333,-4.272461E-4,-2.075997,0.4806404,-2.4372313
1570726761,-2.3252869,11.068695,-0.34457397,-0.75891113,-1.3103333,-4.272461E-4,-2.075997,0.4806404,-2.4372313
1570726761,-2.3252869,11.068695,-0.34457397,-0.75891113,-1.3103333,-4.272461E-4,-2.075997,0.4806404,-2.4372313
1570726761,-2.3252869,11.068695,-0.34457397,-0.75891113,-1.3103333,-4.272461E-4,-2.075997,0.4806404,-2.4372313
1570726761,-2.3252869,11.068695,-0.34457397,-0.75891113,-1.3103333,-4.272461E-4,-2.075997,0.4806404,-2.4372313
1570726761,-2.3252869,11.068695,-0.34457397,-0.75891113,-1.3103333,-4.272461E-4,-2.075997,0.4806404,-2.4372313
1570726761,-2.3252869,11.068695,-0.34457397,-0.75891113,-1.3103333,-4.272461E-4,-2.075997,0.4806404,-2.4372313
1570726761,-2.3252869,11.068695,-0.34457397,-0.75891113,-1.3103333,-4.272461E-4,-2.075997,0.4806404,-2.4372313
1570726761,-2.3252869,11.068695,-0.34457397,-0.75891113,-1.3103333,-4.272461E-4,-2.075997,0.4806404,-2.4372313
1570726761,-2.3252869,11.068695,-0.34457397,-0.75891113,-1.3103333,-4.272461E-4,-2.075997,0.4806404,-2.4372313
1570726761,-1.480133,11.2829895,-9.881882,3.4254456,-1.8706665,-0.8057709,0.35856533,2.1234846,-4.7588606
1570726761,1.4000854,8.773865,-1.992981,2.382553,0.6358948,-0.6960449,4.955153,-0.12844276,2.0552168
1570726761,-1.9410248,8.414734,-1.1190948,2.3963928,0.29821777,-0.5277405,1.1370525,0.07446194,5.060316
1570726761,-1.8009644,7.2164307,-2.9243317,2.2259521,0.82125854,-0.3327942,1.1591833,-0.63245916,3.9220104
1570726761,-1.950592,4.992218,-3.68927,1.7242126,0.3908844,-0.15275574,0.89556575,-2.2804494,3.4185543
1570726761,-1.1641083,2.806305,-3.7168121,1.0211487,0.34188843,-0.06967163,1.5530994,-4.166388,3.7100887
1570726761,-0.70202637,2.370575,-3.7802582,0.19450378,0.1043396,0.069885254,1.9730513,-4.716147,3.5822124
1570726761,-0.67329407,2.426834,-4.0651703,-0.6651764,-0.013916016,0.29252625,2.0756512,-4.709664,3.3742232
1570726761,-0.46499634,2.7081451,-5.3903503,-1.5812988,-0.81073,0.8634949,2.0881517,-4.7932644,1.929812
1570726761,2.4272003,6.00856,-12.85907,-1.8231201,-2.2637482,1.4600525,4.449497,-2.9116483,-3.7946095
1570726761,-13.697754,18.713394,-4.4266815,-1.5908813,-1.8738556,-0.361557,-4.5882444,8.080027,-5.4305396
1570726761,-4.712311,19.337082,-0.2679596,-1.2840881,-1.0269775,1.3695068,-1.8884525,10.601782,7.759733
1570726761,2.4726868,6.6705475,-3.3959808,-1.9903564,-0.0597229,0.64086914,5.566947,-0.6951122,-2.7019353
1570726761,-0.8887634,5.4136047,1.4522705,-2.1118011,-2.3276672,0.96043396,1.5432968,-4.4155245,6.4463444
1570726761,-1.4107056,14.470856,-0.47265625,-1.8902283,-2.740982,1.3663025,1.5730267,3.900611,3.1815355
1570726762,-1.5076752,15.434525,-0.36253357,-1.187149,-2.6483154,2.1194458,0.9541986,5.9850245,2.8204033
1570726762,-3.5834503,12.259811,-2.0731812,-1.3160553,-1.319931,1.5069275,-1.2233834,2.6008778,0.4920864
1570726762,-3.2733917,10.0811,-0.3182373,-1.4619904,-0.88848877,1.0041199,-1.7472801,-0.2038765,1.3150938
1570726762,-2.7035675,10.225937,-0.5456848,-1.2084503,-0.53163147,0.80703735,-1.1458954,-0.27944565,1.3935353
1570726762,-1.2490997,10.046371,-1.6027222,-1.203125,0.14375305,0.74632263,-0.27212548,-0.5101023,-0.543293
1570726762,0.36219788,10.527618,-0.29788208,-0.83029175,0.780777,0.71969604,1.2712464,-0.077739716,0.06644535
1570726762,-0.5499878,9.80098,-1.0233307,-0.6790161,0.8659973,0.97535706,0.22781062,-1.0673399,-0.9170133
1570726762,-2.1134033,9.645355,-0.67497253,-0.8089752,0.17677307,0.6376648,-1.2399156,-1.1606054,-0.48047146
1570726762,-3.2207184,6.6035156,6.0539246,-1.088089,-1.4722595,-0.24757385,-1.9107744,-4.0054655,4.1708503
1570726762,-3.930603,9.366425,-1.7272186,-1.5876923,-2.9732208,-0.7908478,-3.322873,-1.837924,-1.4656702
1570726762,1.1630554,11.057922,-0.56843567,-0.9463959,-0.38249207,0.15829468,1.426568,0.4565258,-1.8276114
1570726762,-0.843277,12.384323,0.51016235,-0.50538635,-0.13215637,0.7655029,-0.18736422,1.858365,-0.49871218
1570726762,-1.6680756,13.060684,-0.8090515,-0.7024536,-0.05758667,0.70158386,-1.2781962,2.1911907,-1.9031428
1570726762,-2.069107,15.361511,-1.6949005,-0.66090393,-0.04373169,0.75057983,-1.9243726,4.1287937,-3.17655
1570726762,-3.056717,16.487976,-0.01776123,0.025115967,-0.15559387,0.6365967,-3.45609,4.7201796,-2.029272
1570726762,-0.1489563,16.809998,-0.8090515,1.2363281,-0.6115265,-0.27952576,-0.6276765,6.8739643,-1.4165064
1570726762,0.86499023,14.127289,-3.4666138,2.0501862,-0.5518646,-0.6076355,1.186817,3.8212757,-3.8958848
1570726762,-1.7578583,12.308899,-1.7284241,3.547943,-1.2719879,-1.0454559,-1.2027766,1.6177912,-2.173771
1570726762,-2.783783,13.361145,-1.4842072,3.5064087,-1.5766602,-1.2318726,-2.212484,2.3196115,0.030869842
1570726762,-2.558731,12.099411,-0.4954071,2.2994537,-0.70314026,-1.3224182,-1.426571,2.1947794,1.8435614
1570726762,-0.8648224,9.717178,1.0895538,1.8211517,-0.08102417,-1.6515808,0.38282645,-0.29278278,4.0597286
1570726762,-0.3536682,9.443039,0.57240295,1.8019867,0.29927063,-1.8252258,1.6505325,-0.7301407,4.278429
1570726762,2.192566,9.52803,-5.9134827,2.335678,0.5336304,-1.716568,4.1465282,-0.24607086,-1.4110727
1570726762,0.7512512,9.835693,-0.2320404,2.1982574,2.502243,-1.5525208,3.923092,0.6246586,2.4352107
1570726762,0.9104767,8.459015,-1.3633118,2.3452606,0.34614563,-1.480072,3.615675,-0.28518867,4.8159394
1570726762,1.6993561,6.975815,-1.2112732,2.0810852,0.35147095,-1.2766113,5.0950685,-0.95620155,4.2065697
1570726762,-2.0116577,5.675766,-1.7918701,1.6262054,0.46652222,-0.9133606,2.1449692,-2.0857625,4.6424737
1570726762,-3.1967773,5.4171906,-3.3349304,1.3066406,0.9490814,-0.7588959,0.27552724,-2.0386229,3.7183127
1570726762,-0.71040344,4.15065,-3.1673431,0.21687317,1.3847809,-0.47021484,1.9924803,-2.754952,3.813601
1570726762,0.26522827,2.4352112,-3.0751648,-1.0326843,0.7264557,0.13912964,3.3235874,-4.526488,3.917294
1570726762,1.1307373,1.6331482,-2.388031,-2.5379028,-1.1143341,1.1756287,3.4785638,-5.912171,4.4901204
1570726762,1.6131744,8.809769,-27.64685,-1.5472107,0.13948059,1.7114563,7.4592953,-1.8020649,-33.033253
1570726762,-3.7187195,24.761139,4.0009003,-2.346161,-2.2562866,0.70158386,-5.107797,12.3150425,21.038532
1570726763,-2.2043762,19.006683,-13.57254,-0.9059143,-0.68821716,0.67282104,0.19118357,17.156599,-9.106928
1570726763,-2.9597473,3.5796356,1.580368,-1.7975464,-0.7201843,0.7069092,-0.065876484,-5.4852095,5.6086535
1570726763,-3.1501007,9.838089,-3.6126556,-1.3810272,-1.7641449,1.6411438,-0.26970506,-1.2619619,1.2354112
1570726763,-0.21600342,12.49205,-0.7264557,-1.5024719,-0.40911865,2.0384827,1.4845197,2.7474947,1.2487397
1570726763,-0.23275757,13.841187,-1.799057,-1.2947388,0.7967529,1.3226318,2.2209387,3.7459326,1.0960987
1570726763,-1.8775787,10.43663,0.12709045,-1.632431,0.16186523,1.1532593,-0.32464266,0.7902088,2.3512766
1570726763,-2.5216217,8.876816,0.09715271,-1.7783661,-0.1108551,0.8336792,-1.1813982,-1.6075344,1.6906662
1570726763,-3.0387573,9.818924,-0.03930664,-1.6175232,-0.41871643,0.6877289,-2.0317814,-0.97717285,1.5178748
1570726763,-1.5782928,9.791397,-2.320984,-1.3522644,-0.42829895,0.44911194,-0.6065485,-0.7622309,-0.6284595
1570726763,-0.6397705,9.100662,-2.182129,-1.0507965,0.72750854,0.19984436,-0.003174007,-1.5714817,-1.9436487
1570726763,-0.97377014,9.140167,-1.5081635,-0.9293518,1.0907745,0.34898376,-0.46832025,-1.4351978,-1.9866247
1570726763,-2.1134033,7.4414825,3.5160828,-1.296875,-2.0027618,-0.38711548,-0.94309986,-2.923645,6.6115274
1570726763,-0.73194885,11.223129,-2.8082123,-1.2595825,-1.2208557,-0.007888794,-1.221426,0.77232647,-3.4625485
1570726763,0.7728119,10.465363,-1.4483032,-0.9304199,-0.124694824,0.38839722,0.369489,0.6055126,-3.3016877
1570726763,0.7728119,10.465363,-1.4483032,-0.9304199,-0.124694824,0.38839722,0.369489,0.6055126,-3.3016877
1570726763,0.7728119,10.465363,-1.4483032,-0.9304199,-0.124694824,0.38839722,0.369489,0.6055126,-3.3016877
1570726763,0.7728119,10.465363,-1.4483032,-0.9304199,-0.124694824,0.38839722,0.369489,0.6055126,-3.3016877
1570726763,0.7728119,10.465363,-1.4483032,-0.9304199,-0.124694824,0.38839722,0.369489,0.6055126,-3.3016877
1570726763,0.7728119,10.465363,-1.4483032,-0.9304199,-0.124694824,0.38839722,0.369489,0.6055126,-3.3016877
1570726763,0.7728119,10.465363,-1.4483032,-0.9304199,-0.124694824,0.38839722,0.369489,0.6055126,-3.3016877
1570726763,0.7728119,10.465363,-1.4483032,-0.9304199,-0.124694824,0.38839722,0.369489,0.6055126,-3.3016877
1570726763,0.7728119,10.465363,-1.4483032,-0.9304199,-0.124694824,0.38839722,0.369489,0.6055126,-3.3016877
1570726763,-2.9405975,12.612961,-1.1849365,2.7852173,-1.0514832,-1.4694214,-2.371871,2.0774908,-0.08321965
1570726763,-3.060318,12.153275,0.27671814,2.5785522,-0.8714447,-1.5375977,-2.270106,1.8222227,0.663206
1570726763,-3.060318,12.153275,0.27671814,2.5785522,-0.8714447,-1.5375977,-2.270106,1.8222227,0.663206
1570726763,-3.060318,12.153275,0.27671814,2.5785522,-0.8714447,-1.5375977,-2.270106,1.8222227,0.663206
1570726763,-3.060318,12.153275,0.27671814,2.5785522,-0.8714447,-1.5375977,-2.270106,1.8222227,0.663206
1570726763,-3.060318,12.153275,0.27671814,2.5785522,-0.8714447,-1.5375977,-2.270106,1.8222227,0.663206
1570726763,-3.060318,12.153275,0.27671814,2.5785522,-0.8714447,-1.5375977,-2.270106,1.8222227,0.663206
1570726763,-3.060318,12.153275,0.27671814,2.5785522,-0.8714447,-1.5375977,-2.270106,1.8222227,0.663206
1570726763,-3.060318,12.153275,0.27671814,2.5785522,-0.8714447,-1.5375977,-2.270106,1.8222227,0.663206
1570726763,-3.060318,12.153275,0.27671814,2.5785522,-0.8714447,-1.5375977,-2.270106,1.8222227,0.663206
1570726763,-3.060318,12.153275,0.27671814,2.5785522,-0.8714447,-1.5375977,-2.270106,1.8222227,0.663206
1570726764,-3.060318,12.153275,0.27671814,2.5785522,-0.8714447,-1.5375977,-2.270106,1.8222227,0.663206
1570726764,-0.04840088,3.106781,-2.6549835,-0.7685089,1.1227264,-0.23158264,-2.270106,1.8222227,0.663206
1570726764,-12.720917,22.955917,13.517853,-2.380249,-2.4086304,0.34791565,-9.558817,12.732494,12.972532
1570726764,-1.0240479,20.468338,-10.976028,-1.3171082,-0.8171234,0.5119629,1.8793683,14.881419,-1.7479777
1570726764,0.4914856,5.3226166,-1.1346588,-1.9093933,-0.061843872,0.5364685,3.3878002,-2.0509777,3.1675029
1570726764,-2.021225,5.7380066,0.23721313,-1.4694519,-1.0227203,1.2022552,0.54653454,-5.2046194,4.1846232
1570726764,-1.6130219,13.231857,-2.3664703,-1.3895569,-1.3348389,1.8105164,0.38543868,2.9275427,0.445333
1570726764,0.1299591,16.136032,-1.9187622,-1.4119263,0.7733154,1.5196991,2.763059,5.3528786,0.94771695
1570726764,-2.361206,11.157288,-0.24880981,-1.648407,0.7072754,1.005188,-0.9742452,2.3644009,1.2140751
1570726764,-1.5519562,9.097076,-0.12550354,-1.3533325,-0.124694824,0.7069092,-0.42097378,-1.3684368,1.7923527
1570726764,-0.8337097,9.441849,-0.9862213,-1.2627869,0.06704712,0.59399414,0.1645801,-1.2664957,0.19796109
1570726764,0.08088684,10.157715,-0.88446045,-1.0294952,0.57943726,0.4342041,0.29004025,-0.6449852,-0.3564167
1570726764,-0.107055664,10.102646,-1.0544586,-0.8750305,0.35360718,0.49491882,0.3853649,-0.5048046,-0.6210851
1570726764,-1.0659332,9.530426,-1.0317078,-1.0465393,0.31526184,0.386261,0.013901591,-1.0010948,-0.6644417
1570726764,-1.0850983,8.0460205,1.8844299,-1.0806274,0.05000305,0.1870575,-0.8762269,-2.552555,1.1580497
1570726764,-2.45578,10.666473,-0.6713867,-1.5493469,-2.198761,-0.46168518,-1.9287448,-0.5105152,-0.6725764
1570726764,-0.6397705,10.623383,-0.9107971,-0.6523895,-0.34947205,0.21902466,-0.22964472,0.012676239,-2.0131881
1570726764,-1.7267456,10.787384,0.79267883,-0.56396484,0.16824341,0.688797,-1.2952796,0.1928339,-0.5116339
1570726764,-2.3899384,12.334045,1.1829224,-0.6971283,-0.061843872,0.5854645,-2.3416858,1.511157,0.13926566
1570726764,-1.3484497,14.170395,-0.7420044,-0.6981964,0.26731873,0.5098419,-1.3992794,3.38346,-1.9845829
1570726764,-2.7873688,14.551071,-0.87249756,-0.45318604,0.5954132,0.55670166,-2.497497,4.3165245,-2.8900318
1570726764,-2.309723,17.079346,1.0045624,0.40222168,0.06704712,0.32128906,-3.4665248,6.4891386,-0.54423416
1570726764,-0.09988403,15.731415,-2.1581879,1.1660156,0.41964722,-0.15808105,-0.9653269,5.4370174,-3.3829222
1570726764,-0.14656067,13.47966,-1.3513336,1.7071686,-0.24507141,-0.49577332,-0.22759219,3.00813,-2.5471087
1570726764,-0.1956482,11.971313,-1.0640259,2.9460754,-1.3582764,-0.90696716,-0.056980096,1.0321989,-0.9613904
1570726764,-1.8368683,13.860336,-2.897995,2.9279633,-1.0163269,-1.1147003,-1.1269054,2.9534588,-1.8153267
1570726764,-2.7789917,11.894699,-1.680542,2.1460571,-0.5678406,-1.2904663,-1.869853,1.6397581,-0.4635048
1570726764,-1.0108795,9.125809,1.4043884,2.587082,-0.33242798,-1.5802155,0.038324356,-1.296279,3.7442093
1570726764,-1.0419922,9.899139,2.0711823,1.8946533,0.9576111,-1.7868805,1.0097547,-0.41869736,4.857524
1570726764,0.3143158,9.0108795,-4.0699463,1.7423248,-0.39207458,-1.620697,2.026035,-0.7110748,0.6191783
1570726764,1.809494,9.598663,-2.5089264,2.17482,1.9099579,-1.9029846,4.9098806,-0.13336563,-0.15726995
1570726764,-1.1617126,9.417908,0.21806335,2.4880066,1.5136719,-1.556778,1.9633822,0.563303,5.4320292
1570726764,0.42803955,7.154175,-2.2862701,2.1418,0.3557434,-1.2105713,3.3971846,-1.1485033,3.2270465
1570726764,-0.66012573,5.5512695,-2.0911407,1.4728088,0.2811737,-0.8686218,2.982414,-2.5327415,3.9677672
1570726765,-2.0619354,5.2029114,-2.6681519,1.171341,0.9821167,-0.69285583,1.2719386,-2.6607814,3.8536363
1570726765,-1.8260956,4.822235,-3.9191132,0.3713379,1.2324524,-0.63105774,1.4590151,-2.7126222,2.678728
1570726765,-1.4418335,3.0996094,-2.9434814,-0.8420105,1.036438,-0.056884766,1.6554475,-4.19655,3.4066215
1570726765,-0.07594299,1.4847107,-2.7208252,-2.107544,0.06704712,0.6600342,2.6300328,-6.1840305,3.9151282
1570726765,-0.71040344,5.912796,-31.464401,-0.23693848,-1.5500183,1.2363434,2.6342168,-3.6003332,-15.528025
1570726765,-3.9449615,19.977524,11.561798,-2.9139404,-2.10289,0.88160706,-5.279089,10.336555,22.04599
1570726765,-2.0715027,18.066956,-9.453308,-0.7194977,-0.3697052,0.47680664,-0.14626122,14.900513,-3.8798237
1570726765,-2.436615,5.284317,-3.108673,-1.8731842,-0.34840393,0.4342041,1.001718,-3.8018942,-0.4928732
1570726765,-1.0360107,11.9114685,-1.4746399,-1.6366882,-1.8493652,1.42276,1.549226,0.52017593,3.2995903
1570726765,0.21136475,13.6041565,-1.3692932,-1.4438782,-1.4328461,2.105606,1.9386084,4.4279995,1.1650202
1570726765,-0.55358887,11.54155,-2.4538727,-1.2713013,0.3312378,1.6539307,1.781566,1.5506067,0.7161629
1570726765,-2.2175446,10.260666,-1.2005005,-1.695282,0.56985474,1.22995,-0.96508265,-0.02649498,0.61885405
1570726765,-2.838852,10.297775,-0.13388062,-1.5301666,0.11924744,1.0126343,-1.8880568,-0.1451912,1.8613074
1570726765,-2.1361542,9.859634,-1.2220459,-1.472641,0.16505432,0.8943939,-1.7029363,-0.6741133,0.2868756
1570726765,-0.54042053,9.138977,-0.85095215,-1.3394775,0.3088684,0.3553772,-0.37951484,-1.3524027,-0.23554134
1570726765,-0.32852173,8.977371,-1.4064026,-0.9623871,0.43243408,0.26908875,-0.26030225,-1.9217443,-1.1888684
1570726765,-1.7506866,9.629791,-2.2312012,-0.99220276,0.6476135,0.38519287,-0.8555182,-1.235363,-1.7247593
1570726765,-0.72117615,8.639786,2.4147491,-1.2223053,0.058532715,0.12953186,-0.8710408,-1.7536907,0.98968494
1570726765,-3.1249542,11.407486,-0.67378235,-1.5482788,-2.0720062,-0.47233582,-2.9692883,-0.20786667,-0.20931107
1570726765,0.26522827,10.879562,-0.64863586,-0.8196411,0.09901428,0.40330505,-0.26836166,0.8153162,-2.212885
1570726765,-1.8153229,11.254257,1.3062286,-0.7024536,0.27371216,0.72288513,-1.3722584,0.4689331,0.08217597
1570726765,-2.0655212,12.622543,0.90519714,-0.70777893,0.1906128,0.62701416,-2.2714393,1.6761465,-0.41894197
1570726765,-1.3975372,14.549866,-0.27633667,-0.582077,0.60713196,0.5726776,-1.7642188,3.5949821,-1.6630015
1570726765,-3.3751526,15.379456,-0.51934814,-0.29019165,0.6358948,0.49491882,-3.2181818,5.1423464,-2.7508135
1570726765,-0.8540497,17.398972,1.7180328,0.84324646,0.27264404,0.04324341,-3.0762224,6.413064,-0.17430449
1570726765,1.8286438,16.437698,-3.4295044,1.5750732,0.0031280518,-0.6204071,1.0969952,6.4565086,-3.819478
1570726765,-0.14057922,13.231857,-3.8209534,2.351654,0.079833984,-0.6534271,0.5669974,3.140483,-4.9187646
1570726765,-1.693222,13.06427,-1.4782257,3.6171875,-1.2655945,-0.9133606,-1.5593826,2.001072,-1.3174095
1570726765,-1.9972839,13.928574,-1.7248383,3.8121338,-1.8728027,-1.0379944,-1.6215855,2.3617754,-0.97297204
1570726765,-1.9972839,13.928574,-1.7248383,3.8121338,-1.8728027,-1.0379944,-1.6215855,2.3617754,-0.97297204
1570726765,-1.9972839,13.928574,-1.7248383,3.8121338,-1.8728027,-1.0379944,-1.6215855,2.3617754,-0.97297204
1570726765,-1.9972839,13.928574,-1.7248383,3.8121338,-1.8728027,-1.0379944,-1.6215855,2.3617754,-0.97297204
1570726765,-1.9972839,13.928574,-1.7248383,3.8121338,-1.8728027,-1.0379944,-1.6215855,2.3617754,-0.97297204
1570726766,-1.9972839,13.928574,-1.7248383,3.8121338,-1.8728027,-1.0379944,-1.6215855,2.3617754,-0.97297204
1570726766,-1.9972839,13.928574,-1.7248383,3.8121338,-1.8728027,-1.0379944,-1.6215855,2.3617754,-0.97297204
1570726766,-1.9972839,13.928574,-1.7248383,3.8121338,-1.8728027,-1.0379944,-1.6215855,2.3617754,-0.97297204
1570726766,-1.9972839,13.928574,-1.7248383,3.8121338,-1.8728027,-1.0379944,-1.6215855,2.3617754,-0.97297204
1570726766,-1.9972839,13.928574,-1.7248383,3.8121338,-1.8728027,-1.0379944,-1.6215855,2.3617754,-0.97297204
1570726766,-1.9972839,13.928574,-1.7248383,3.8121338,-1.8728027,-1.0379944,-1.6215855,2.3617754,-0.97297204
1570726766,-0.32733154,3.1989594,-3.7467346,-1.8199158,0.38449097,0.4576416,2.7381244,-4.5168066,3.0063972
1570726766,0.24128723,5.1885376,-6.7574463,-2.6135406,-1.5947571,1.8137207,2.3674014,-4.175988,1.4210057
1570726766,-2.5886536,14.820419,-19.063644,-1.5631866,-0.23335266,1.1660309,0.36548567,2.2139006,-21.235352
1570726766,-2.55513,25.175339,-3.325348,-1.582367,-1.1345673,0.0059661865,-0.47477722,14.589512,11.335525
1570726766,1.3893127,8.059189,-2.1581879,-1.8838348,0.3131256,0.5630951,3.712783,0.535409,-0.4392252
1570726766,-2.273819,4.5121765,0.3174286,-1.884903,-1.2815704,1.0041199,0.18601966,-5.6454372,4.048111
1570726766,-2.1229858,13.279755,-4.329727,-1.5045929,-2.3361816,2.3548737,-0.20400357,2.343979,-0.44629765
1570726766,3.0532837,15.731415,-1.0436859,-1.4577332,0.75627136,2.2078705,4.8005753,5.4043016,1.4677591
1570726766,-1.8572235,10.421066,-1.5536499,-1.8039398,1.6223297,1.1585846,-0.82263273,1.2252054,-0.12843585
1570726766,-1.0096741,8.012497,1.0440674,-1.7144623,0.6060791,0.7175598,-0.4556666,-2.6583576,2.2952204
1570726766,-1.9541931,8.746323,0.14743042,-1.3245697,0.26731873,0.71969604,-1.6763608,-1.9163342,1.3843608
1570726766,-1.9398193,9.480148,-1.0724182,-1.3224335,-0.37609863,0.41609192,-1.304053,-1.4210005,0.3029915
1570726766,-0.6385803,9.093491,-2.2240295,-1.4119263,-0.43681335,0.12953186,-0.13198864,-2.0350952,-1.5319265
1570726766,-0.5487976,9.464584,-1.8840485,-1.1413422,0.591156,0.1401825,-0.587732,-1.3728743,-2.138108
1570726766,-0.5176697,9.234741,4.679657,-1.2617188,0.12882996,-4.272461E-4,-0.61301315,-1.2648487,1.057492
1570726766,-2.8723602,11.67923,-2.0456543,-1.5227051,-1.880249,-0.58631897,-2.2520723,0.32454777,-2.7222638
1570726766,-0.71398926,10.37439,-0.13627625,-0.35198975,0.6284485,0.37879944,0.176544,0.011738777,-2.5797825
1570726766,-2.934616,11.050751,1.2846832,-0.45637512,0.039352417,0.22540283,-2.8353841,0.2774744,-0.20459819
1570726766,-1.0192566,11.8767395,1.6881104,-0.6236267,0.18955994,0.17959595,-1.3933519,1.0869942,-0.25606287
1570726766,0.94039917,11.110596,-2.1701508,-0.68966675,0.544281,0.1359253,0.78480417,1.7884121,-1.6360098
1570726766,-0.48414612,16.556213,1.461853,-0.76104736,1.4124756,0.04963684,0.123667315,4.431819,-1.0876439
1570726766,-3.3954926,14.789291,8.260193,1.1851959,-0.80859375,0.3958435,-2.7441347,1.6637592,4.502042
1570726766,-1.4202881,15.399811,-2.6549835,1.4397888,-1.275177,-0.361557,-1.9425976,5.00873,-4.8634114
1570726766,-1.1222076,15.6129,-1.9869995,1.4813385,-0.042678833,-0.41055298,-1.3058672,4.917651,-3.0609772
1570726766,-1.4921112,12.8871,-3.0356598,2.1332855,-0.20565796,-0.56288147,-1.1344686,2.7425108,-3.7636323
1570726766,-2.4294434,12.500427,-2.1186829,2.71492,-0.95240784,-0.90589905,-1.7433506,1.4823275,-1.8609866
1570726766,-4.313675,13.763382,-3.056015,2.4390106,0.054260254,-1.0507812,-3.2230954,3.0411243,-1.913738
1570726766,-3.4577484,11.163269,0.098358154,2.222763,1.833252,-1.2286835,-2.2691736,1.1438036,1.4559462
1570726767,-3.6037903,10.71077,3.8596497,2.3793488,2.6087646,-1.1818085,-1.8648084,-0.64196587,6.9203444
1570726767,0.8853302,9.489731,2.6254272,1.3332672,0.8596039,-0.45742798,-0.2307967,-0.3717947,3.2030165
1570726767,4.5460663,8.087921,-5.598648,2.4816132,-0.9928894,-2.0095215,7.36621,-2.5463123,0.7380929
1570726767,1.0289917,10.036804,-3.119461,1.8722839,2.0963745,-1.3160248,4.0861716,0.7214527,-0.41166878
1570726767,-0.4590149,8.166931,1.3086243,2.3037262,0.8361664,-0.8664856,1.741888,-0.59522533,6.2760983
1570726767,-0.3536682,6.9398956,-1.7918701,2.2515259,-0.5199127,-0.85902405,2.0135336,-1.7158394,4.6421337
1570726767,-0.46858215,6.7615356,-3.0596008,1.6709595,-0.8490753,-1.1040344,2.4980326,-1.6089926,3.3706923
1570726767,-2.6604767,6.1725616,-2.9375,1.5101013,0.5123291,-0.93466187,0.5268104,-1.0796752,2.307166
1570726767,-0.89953613,4.8114624,-3.440277,0.7878418,0.45161438,-0.72055054,1.9144893,-2.728819,3.443706
1570726767,-0.7163849,5.5033875,-3.234375,-0.30723572,0.4878235,-0.1889801,2.591775,-2.0320992,3.9617248
1570726767,0.0904541,3.65625,-4.238739,-1.4598541,0.6188507,0.30636597,3.084595,-3.4898257,2.6914668
1570726767,0.7344971,8.047226,-10.609711,-0.5916748,-1.4669342,1.022232,3.474015,-2.892129,-0.4627514
1570726767,-9.206223,15.464462,0.32699585,-2.4963684,-1.6789246,-0.11759949,-2.9639206,5.5721283,-5.765391
1570726767,0.9535675,12.741058,0.052856445,-2.505951,-0.86079407,0.41183472,2.755443,2.596034,8.841052
1570726767,-0.37042236,10.941803,-13.953217,-1.3522644,-0.6935425,0.8240814,1.314275,3.2958984,-6.6712193
1570726767,-5.7657623,12.592606,-0.05607605,-2.2662659,-0.24507141,0.85816956,-2.5663478,2.1439943,2.9762697
1570726767,-1.5651245,11.312912,-1.293869,-1.871048,-0.55293274,1.0477905,0.19920635,2.4412823,2.5855966
1570726767,-0.78222656,9.121017,-1.9044037,-1.4577332,-0.3622589,1.2107849,1.582422,-0.23667812,1.2970014
1570726767,-1.2826233,7.7419586,-1.5739899,-1.2979431,0.2705078,1.5250244,0.8711504,-2.5492783,0.95211077
1570726767,-1.0767212,9.52684,-1.0879669,-1.34375,0.5315094,1.7444763,0.4461441,-1.7852039,1.3942583
1570726767,-0.46380615,9.567535,-2.7148285,-1.6505432,-0.12683105,1.7178497,-0.15281802,0.8543844,0.08516276
1570726767,-1.7339172,16.775284,1.9155579,-2.3280487,0.5570679,0.7676239,-1.1213427,4.2889786,2.4960275
1570726767,0.6291504,7.771881,2.7379608,-1.8934174,-1.3508148,0.19984436,0.54394996,-2.6606207,3.1869183
1570726767,-2.6281586,11.548737,-5.037216,-2.4388428,-0.9151306,-0.49363708,-0.78010833,-1.752327,-6.6794877
1570726767,-2.7825775,7.753937,-4.962982,-1.234024,-0.1619873,0.16043091,-4.674446,-2.6661758,-6.2715783
1570726767,0.006668091,12.860764,0.2132721,-0.3019104,1.5339203,-0.42759705,0.16776076,2.7295713,-0.90937847
1570726767,1.5796509,11.3272705,1.7323914,-0.5437317,-0.20672607,-1.0262756,1.8153982,0.8790188,0.9419771
1570726767,0.9535675,10.678452,0.39283752,-0.8366852,-1.3699951,-0.7972412,2.058503,0.17601204,-0.7743566
1570726767,0.03300476,10.787384,0.5664215,-0.39779663,-1.1729126,-0.15489197,1.0418614,0.4203863,-0.8679894
1570726767,-0.8959503,11.773788,1.1889191,0.407547,-0.93855286,0.38093567,0.25582743,1.0302134,-0.35858285
1570726767,-1.159317,12.914627,-0.12670898,0.4118042,-1.3817139,1.118103,-0.4010802,2.0528793,-0.48616362
1570726767,-0.38479614,13.0499115,1.789856,0.21473694,-1.7545471,1.5782928,-0.38959137,2.26684,0.5890418
1570726767,-0.9330597,14.7821045,0.5855713,-0.53627014,-1.9537506,1.5196991,-0.82577705,3.7391605,-0.77224994
1570726768,0.3717804,12.930191,3.28862,-1.0092468,-3.0925293,1.6091919,-0.9211079,2.7073555,1.152214
1570726768,0.434021,12.277771,3.6944427,-0.30297852,-3.677353,0.48640442,-0.9814342,1.5810852,2.2350402
1570726768,0.14672852,13.163635,0.4012146,-0.4510498,-0.02243042,-0.30296326,-1.70637,2.3862429,-2.4746394
1570726768,-0.2926178,10.257065,6.1796265,-0.08673096,-0.07144165,-0.60549927,-2.3131113,0.3478279,4.4415913
1570726768,-1.5124664,12.554306,3.0480042,-0.16555786,-0.88423157,-2.0276184,-1.8641703,1.1244946,2.2977715
1570726768,1.1056061,11.115387,-7.0830536,-1.3394775,-6.403366,-2.1511993,1.5777885,1.0599566,-9.261619
1570726768,-0.17170715,10.1194,2.4626312,-0.20285034,-2.644043,-1.7879486,-0.09879118,0.29677296,-0.7234957
1570726768,-0.3368988,9.772247,7.1205444,0.17318726,-1.6118011,-2.6390839,2.5720115,-1.7380676,1.0354164
1570726768,1.1427155,9.656128,-1.1430359,-0.24545288,-1.176117,-1.5610352,1.2363186,-0.7323084,-2.566645
1570726768,-0.8097687,8.857651,5.4601746,-1.2979431,-2.452301,-0.8206787,0.8344002,-0.014245987,1.4824324
1570726768,-0.59069824,8.89238,6.0766754,-0.4180298,-0.6424103,-0.83665466,1.2099742,-1.4601917,3.1822171
1570726768,-0.01727295,8.279465,3.8069763,0.8443146,1.006607,-0.4446411,1.2866458,-1.7044554,1.7606466
1570726768,-0.020874023,8.131012,4.3779907,0.7516327,0.7157898,-0.34344482,2.0423188,-2.477954,1.5485895
1570726768,-1.2826233,9.316147,3.747116,0.64616394,-0.5976715,0.5961151,0.186252,-0.68457794,2.2927544
1570726768,2.548111,8.020889,-1.5692139,1.7689514,2.784546,2.1109314,3.6035008,-2.3568306,-3.5372767
1570726768,2.156662,9.129395,-0.047698975,1.4408569,0.8649292,3.1974945,3.0158112,-1.5268536,-1.152681
1570726768,4.1761627,7.118271,-1.5105438,0.33190918,-1.6139374,3.2859192,4.1953225,-3.986884,-2.6769295
1570726768,5.6749268,6.870468,-1.4363251,0.08584595,-1.5702667,3.4062958,2.7540088,-3.6050339,-1.8621707
1570726768,6.164551,4.059677,-2.8381348,-2.0340424,-7.783951,0.9497833,3.8425105,-5.8594923,-4.1098046
1570726768,6.2148285,5.4243774,-0.9874115,-1.9456177,-6.353302,-2.1735687,4.1007833,-5.229912,-2.6230865
1570726768,2.141098,10.207993,1.5121307,-1.4651794,-5.5064087,-2.289688,0.8720726,-1.2263975,0.6325773
1570726768,-2.8639832,17.419327,5.8432465,-1.8859711,-8.137619,-0.7514343,-3.7573414,6.455765,3.610145
1570726768,-1.8165283,15.043076,8.498413,-1.5514679,-9.133636,-1.3597107,-3.9535093,5.951997,6.341502
1570726768,-1.190445,10.25946,11.473206,-2.8596191,-9.062271,-4.821808,-1.6643227,-0.16923714,9.665563
1570726768,-2.1648865,10.764633,14.51384,-4.818634,-7.9725037,-7.29216,-1.2940906,0.023571014,11.039612
1570726768,-1.56633,8.783432,12.568558,-6.1779175,-7.272629,-7.390167,-0.29938495,-0.07060909,8.532335
1570726768,1.0756683,4.779129,11.29483,-7.92601,-6.676071,-7.086563,3.4438345,-2.5184636,4.5465307
1570726768,0.6423187,4.9024353,9.244202,-8.12735,-5.3221283,-6.3526,2.5348003,0.021507263,-1.3695068
1570726768,-0.27705383,0.36183167,7.9669037,-6.7350464,-2.5726776,-5.7049255,1.6957487,-1.4680059,-2.0639334
1570726768,-0.98812866,-1.336853,8.202728,-4.881485,-0.42297363,-5.876419,1.2772652,-1.7259934,-2.2564278
1570726768,-3.3667755,0.9268646,9.544678,-1.8540039,0.50593567,-4.874008,-2.0857344,1.0247736,-0.7514658
1570726768,-4.4704895,-0.26306152,10.159988,-0.43933105,-2.45549,-4.2092896,-3.3812985,1.8637196,-0.84293747
1570726768,-6.0351105,-0.06074524,9.61171,-1.2137756,-3.1127625,-3.5062103,-6.309064,1.8064523,0.40303898
1570726769,-1.6656952,-3.182785,7.857956,-1.4023285,2.0164795,-2.7285767,-2.2300406,-0.5375483,-3.368681
1570726769,-3.8025208,-0.64253235,11.990356,-0.71417236,2.7866669,-1.4768829,-3.3811839,1.4423697,1.7032833
1570726769,-3.3392334,-0.04159546,11.313995,0.30741882,1.1887665,-0.85583496,-2.18732,2.3778543,1.1594372
1570726769,-4.6584473,-0.2606659,9.220261,0.7665405,0.8319092,-0.7045746,-2.81007,1.8666232,-0.940588
1570726769,-4.381912,-0.07510376,9.387863,0.5151367,1.050293,-0.07606506,-2.9108896,1.795667,-1.0405512
1570726769,-2.8999023,-0.014053345,9.277725,0.1998291,0.7488251,0.2626953,-1.238718,1.933504,-0.82193756
1570726769,-1.6920319,0.112838745,8.438553,0.12738037,0.079833984,0.11036682,0.1475122,1.9954355,-1.5114708
1570726769,-1.7207489,-0.6485138,8.4014435,-0.12614441,-0.066101074,0.0070343018,0.34072137,1.1881559,-1.9869757
1570726769,-1.7028046,-0.9825134,9.100555,-0.29125977,0.12243652,0.04219055,0.2325387,0.7078371,-1.1625662
1570726769,-1.6716766,-0.41389465,9.010773,-0.38394165,-0.025634766,-0.023864746,0.5815718,1.4777799,-1.1397657
1570726769,-1.4142914,-0.9513855,8.229065,-0.5906067,-0.049057007,0.11994934,0.39614272,1.1007297,-1.9443007
1570726769,0.79315186,-2.0263824,8.3463745,-0.76423645,0.04574585,-0.0046844482,2.228345,0.68447185,-2.0989828
1570726769,-0.85046387,-1.2434845,9.25737,-0.8707733,0.24813843,-0.28910828,1.5170968,1.3419709,-0.8615246
1570726769,-0.9174957,-1.1453247,9.2274475,-0.7440033,0.26945496,-0.18684387,1.0842311,1.2649734,-0.35444546
1570726769,-1.6154175,-1.4817047,8.94014,-0.6044464,0.34402466,-0.25183105,0.9138782,1.4982843,-1.0460892
1570726769,-2.500061,-2.5602875,9.699097,-0.32641602,-0.17582703,-0.28910828,-0.14999127,0.9301648,-0.008316994
1570726769,-2.768219,-2.2215118,8.966476,-0.22096252,-0.40486145,0.07839966,-0.6718807,0.83547807,-0.67920303
1570726769,-2.2199402,-1.7582397,9.050278,-0.18048096,-0.39953613,0.4885254,-0.52758265,1.3794177,-0.92275715
1570726769,-1.9134827,-1.3260803,10.219833,0.030441284,-0.77664185,0.5343323,0.12655473,1.835706,0.32693195
1570726769,-1.356842,-1.8432312,9.505173,0.3990326,-0.77770996,0.7069092,0.17172098,1.5130177,-0.37753963
1570726769,-1.6980133,-2.0730743,8.791702,0.4043579,-0.9513397,0.9998627,-0.14559197,1.0141089,-1.068202
1570726769,-1.9206696,-1.6983795,8.485245,0.19769287,-0.6733093,1.4813538,-0.62244,0.94484115,-1.5441942
1570726769,-1.8620148,-1.6457062,8.430176,0.07624817,-0.079956055,1.914917,-0.49274158,1.1684945,-1.552763
1570726769,-1.72435,-2.2478485,8.78093,-0.02281189,0.23323059,1.9745789,-0.11796296,0.44063735,-1.4722471
1570726769,-1.3652191,-2.7218933,9.981613,0.27545166,0.17251587,1.6379547,0.50285864,-0.42576241,0.17312622
1570726769,-1.6836395,-1.7390747,9.506363,0.36494446,-0.12150574,1.1457977,0.17721963,0.39395285,-0.49537373
1570726769,-2.0631256,-1.743866,9.3220215,0.3106079,-0.124694824,0.8880005,-0.3028282,0.2866888,-0.5139017
1570726769,-1.4274597,-1.3021393,9.035904,0.22113037,-0.006454468,0.815567,0.457309,0.65866446,-1.0228891
1570726769,-1.7123718,-1.8168945,9.055069,0.17851257,0.5219116,0.80171204,0.45816422,0.26226997,-1.1891451
1570726769,-3.2051544,-1.5547333,9.865494,0.11779785,0.6657257,0.5300751,-0.6522856,0.0641371,-0.41928673
1570726769,-3.1943817,-0.87835693,10.010345,0.12205505,0.31526184,0.44804382,-0.8217571,0.69011676,0.06882763
1570726769,-3.1417084,-0.92025757,9.972046,0.12738037,0.29182434,0.45443726,-0.8217571,0.69011676,0.06882763
1570726769,-2.6856232,-1.1177826,9.460876,0.08584595,0.05532837,0.33406067,-0.12012744,0.34965026,-0.52588844
1570726769,-3.0243988,-1.079483,9.505173,0.049621582,0.12243652,0.28399658,-0.2946,0.48203003,-0.5041895
1570726770,-2.9693298,-1.1345367,9.319626,0.049621582,-0.0032653809,0.39372253,-0.3645439,0.19543695,-0.6071539
1570726770,-3.1381226,-0.71795654,9.768539,-0.030273438,0.1085968,0.5087738,-0.43711948,0.5785935,-0.33262634
1570726770,-3.1728363,-0.71795654,9.371094,-0.092056274,0.1362915,0.61743164,-0.38494158,0.7029798,-0.3292694
1570726770,-3.2997284,-1.0483551,9.280121,-0.23268127,0.117111206,0.97535706,-0.5699458,0.26173246,-0.68636703
1570726770,-3.0279846,-0.7047882,9.840363,-0.19006348,0.23323059,1.3258209,-0.34560347,0.6937567,-0.35995293
1570726770,-2.9202423,-0.9011078,9.682343,-0.13786316,0.15119934,1.3055878,0.10286069,0.31567717,-0.18745995
1570726770,-2.8903198,-0.48690796,9.379471,0.060272217,0.0340271,1.4312897,0.16489697,0.6035471,-0.41848373
1570726770,-3.1560822,-0.47494507,9.360321,0.06985474,-0.06716919,1.5868225,-0.017693996,0.52303267,-0.49164104
1570726770,-3.0148163,-0.31811523,9.818817,0.046432495,-0.07463074,1.593216,0.107624054,0.47822404,-0.13995075
1570726770,-3.1369324,-0.04638672,10.224625,0.1486969,-0.33029175,1.5857544,0.0062777996,0.5620836,0.32788467
1570726770,-3.132141,0.47676086,9.962463,0.21899414,-0.6296387,1.6794891,-0.09212208,0.81916445,0.24069118
1570726770,-3.0734863,0.4432373,9.978027,0.16467285,-0.78089905,1.9202423,-0.25352097,0.67425907,-0.1295929
1570726770,-3.3248749,0.6790619,9.688324,0.07518005,-0.9321747,2.2685852,-0.81006384,0.5798912,-0.37392044
1570726770,-2.8819427,1.10643,9.861908,0.07518005,-0.7446747,2.726654,-0.67637277,0.88968635,-0.43311977
1570726770,-2.021225,1.1674805,9.458481,0.10821533,-0.5401459,3.0249176,-0.023982048,0.6959748,-0.64289
1570726770,-1.4382324,1.4176788,8.791702,-0.040924072,0.3674469,3.187912,0.60910535,0.8846191,-1.5134249
1570726770,-2.029602,0.73054504,9.387863,0.27972412,1.0662689,3.4158783,0.23437786,-0.17745739,-0.73315334
1570726770,-2.1014404,1.1387482,9.233429,0.3479004,1.0886383,3.3061523,0.13318825,-0.38275886,-0.6859312
1570726770,-1.0108795,1.4308472,10.294067,0.22859192,0.27690125,2.9141388,1.1764367,-0.12467885,0.21162224
1570726770,-2.211563,1.9563751,9.134064,0.053878784,-0.9875641,2.346344,0.03349161,0.03156054,-0.6236849
1570726770,-1.7147675,2.4567566,7.964508,-0.45211792,-1.1494751,2.0757751,-0.19953609,0.57681644,-1.9507399
1570726770,-0.20043945,2.2592316,9.173569,-0.8792877,-0.90341187,1.6251678,0.8356619,0.5111408,-1.1917496
1570726770,0.40649414,2.141922,9.995987,-0.86224365,-1.1889038,0.8943939,1.4999181,0.5955335,0.21629143
1570726770,-0.4626007,1.7648315,10.249771,-0.73228455,-0.5124512,0.49172974,0.28551054,0.5006521,-0.11840248
1570726770,-0.89476013,1.4140778,10.283295,-0.5384064,0.021240234,0.37561035,-0.3921941,0.38787174,0.07383442
1570726770,-0.9438324,1.4380188,9.90979,-0.32322693,0.3173828,0.28186035,-0.379426,0.4294228,-0.27343845
1570726770,-0.9246826,1.6415405,9.931335,-0.20071411,0.5368347,0.16362,-0.21862781,0.6996499,-0.2762785
1570726770,-1.2454987,1.7408905,10.320404,-4.4250488E-4,0.30247498,0.011291504,-0.34095353,0.8633663,0.19187641
1570726770,-1.4681702,1.5074615,10.26413,0.17532349,0.14587402,-0.21560669,-0.5462264,0.6342763,-0.027563095
1570726770,-1.3041687,1.3278961,9.873886,0.15614319,-0.011779785,-0.2944336,-0.42646998,0.37807637,-0.33128262
1570726770,-1.1808624,1.5385895,9.683533,0.11886597,0.005264282,-0.281662,-0.2525617,0.5483727,-0.5588074
1570726770,-1.1916351,1.7648315,9.59375,0.056015015,-0.040542603,-0.29763794,-0.2082904,0.7361508,-0.66786194
1570726770,-1.1712799,1.7492676,9.319626,-0.0388031,-0.006454468,-0.2859192,-0.27498674,0.7540298,-0.86705875
1570726771,-1.1329803,1.5445709,9.252579,-0.17515564,0.1043396,-0.2539673,-0.027809918,0.6085505,-0.9377575
1570726771,-1.3436737,1.4631653,9.76973,-0.13040161,0.12031555,-0.13998413,-0.25969446,0.5126117,-0.43473244
1570726771,-1.1868439,1.6630859,9.924164,0.06452942,0.1831665,-0.12294006,-0.086357355,0.7285144,-0.30241585
1570726771,-1.3161316,1.5206299,9.75177,0.16360474,0.021240234,-0.13145447,-0.17006576,0.6338662,-0.4584093
1570726771,-1.5040741,1.2919769,9.772125,0.12844849,-0.3430786,-0.07925415,-0.49072528,0.40061158,-0.38849926
1570726771,-1.080307,1.066925,9.743393,0.26161194,-0.0043182373,-0.09736633,-0.09044516,0.107064486,-0.46252537
