time,ax,ay,az,gx,gy,gz,la_x,la_y,la_z,fox,foy,foz
1570726940,2.7216034,0.29388428,10.996567,0.43710327,-0.71380615,0.8679962,0.4922328,-2.5323412,1.2128458
1570726940,4.363434,3.0430298,10.891815,0.6277771,0.057434082,0.65174866,0.98688745,-0.18810582,1.5903435
1570726940,4.5166626,2.5121155,9.1332855,0.47331238,0.04359436,0.3193817,1.3891435,-0.09321451,-0.3431177
1570726940,4.525635,1.5059509,9.54628,0.46372986,-0.21740723,0.07437134,1.7576075,-1.3940234,-0.3195467
1570726940,4.525635,1.5059509,9.54628,0.46372986,-0.21740723,0.07437134,1.7576075,-1.3940234,-0.3195467
1570726940,4.525635,1.5059509,9.54628,0.46372986,-0.21740723,0.07437134,1.7576075,-1.3940234,-0.3195467
1570726940,4.525635,1.5059509,9.54628,0.46372986,-0.21740723,0.07437134,1.7576075,-1.3940234,-0.3195467
1570726940,4.3574524,3.3638458,8.435364,0.4275055,0.43241882,-0.24414062,0.8515668,-0.38761568,-0.45573235
1570726940,3.2507324,2.4690247,7.261017,0.22618103,0.27900696,0.081832886,-0.14920902,-0.9834714,-1.8279047
1570726940,3.5505981,2.6575623,7.786545,0.35932922,-0.39956665,0.2544098,-0.08343887,-1.3724871,-1.4434156
1570726940,3.57753,2.9700012,8.093597,0.41685486,-0.50076294,0.3140564,0.026708603,-1.0026801,-0.9645405
1570726940,3.57753,2.9700012,8.093597,0.41685486,-0.50076294,0.3140564,0.026708603,-1.0026801,-0.9645405
1570726940,3.57753,2.9700012,8.093597,0.41685486,-0.50076294,0.3140564,0.026708603,-1.0026801,-0.9645405
1570726940,3.57753,2.9700012,8.093597,0.41685486,-0.50076294,0.3140564,0.026708603,-1.0026801,-0.9645405
1570726941,6.2207336,3.9157104,9.219467,0.39022827,0.6720886,0.5558777,2.7416084,-0.1197238,0.5064163
1570726941,3.8175507,4.0072937,9.501389,0.14201355,0.5644989,0.39820862,0.26027465,-0.2998848,0.64952374
1570726941,4.2191772,4.197632,9.945511,0.112197876,0.42921448,0.53030396,0.38558412,0.15515375,1.2141724
1570726941,4.2191772,4.197632,9.945511,0.112197876,0.42921448,0.53030396,0.38558412,0.15515375,1.2141724
1570726941,4.2191772,4.197632,9.945511,0.112197876,0.42921448,0.53030396,0.38558412,0.15515375,1.2141724
1570726941,4.2191772,4.197632,9.945511,0.112197876,0.42921448,0.53030396,0.38558412,0.15515375,1.2141724
1570726941,4.2191772,4.197632,9.945511,0.112197876,0.42921448,0.53030396,0.38558412,0.15515375,1.2141724
1570726941,2.3271637,2.0524292,7.7015533,0.016326904,-0.17160034,0.30340576,-1.2687128,-1.5456824,-1.4467087
1570726941,2.8921967,4.2904053,8.175003,0.19102478,-0.22805786,0.1574707,-0.71543765,0.29944515,-1.0667715
1570726941,2.817978,3.6559448,8.135498,0.31565857,-0.2237854,0.061584473,-0.8239808,0.27843332,-0.66371155
1570726941,2.817978,3.6559448,8.135498,0.31565857,-0.2237854,0.061584473,-0.8239808,0.27843332,-0.66371155
1570726941,2.817978,3.6559448,8.135498,0.31565857,-0.2237854,0.061584473,-0.8239808,0.27843332,-0.66371155
1570726941,2.817978,3.6559448,8.135498,0.31565857,-0.2237854,0.061584473,-0.8239808,0.27843332,-0.66371155
1570726941,0.78289795,3.6541443,9.434357,0.49142456,1.2846222,-0.2611847,-1.7619855,-0.5564194,0.8752222
1570726941,1.233017,4.2838287,7.2873535,0.44454956,0.8542633,-0.26757812,-1.7027481,-0.34484196,-1.46943
1570726941,0.8852539,3.707428,6.866577,0.25706482,-0.35375977,-0.22709656,-1.898421,-0.8742347,-2.0971804
1570726941,1.8130035,3.9354706,7.205353,0.28050232,-0.7223358,-0.24095154,-1.7335408,-0.93427896,-1.9089489
1570726941,1.8130035,3.9354706,7.205353,0.28050232,-0.7223358,-0.24095154,-1.7335408,-0.93427896,-1.9089489
1570726941,1.8130035,3.9354706,7.205353,0.28050232,-0.7223358,-0.24095154,-1.7335408,-0.93427896,-1.9089489
1570726941,1.8130035,3.9354706,7.205353,0.28050232,-0.7223358,-0.24095154,-1.7335408,-0.93427896,-1.9089489
1570726941,4.0234528,5.771225,7.960724,0.16012573,-0.16093445,0.6815796,-0.4731412,1.0967326,0.64925957
1570726941,3.5081024,4.613022,7.3196716,-0.5035248,-0.503952,0.50579834,-0.73450994,0.8391118,-0.95714474
1570726941,2.4217377,1.0079651,16.522385,-0.4033966,-0.5923767,1.2749329,-2.2033372,-1.8290491,3.4932575
1570726941,2.4217377,1.0079651,16.522385,-0.4033966,-0.5923767,1.2749329,-2.2033372,-1.8290491,3.4932575
1570726941,2.4217377,1.0079651,16.522385,-0.4033966,-0.5923767,1.2749329,-2.2033372,-1.8290491,3.4932575
1570726941,2.4217377,1.0079651,16.522385,-0.4033966,-0.5923767,1.2749329,-2.2033372,-1.8290491,3.4932575
1570726941,3.1280212,5.961563,-2.9562378,5.467285,-2.6248932,-1.9411011,-3.1751328,0.062338352,-5.8451056
1570726941,3.1280212,5.961563,-2.9562378,5.467285,-2.6248932,-1.9411011,-3.1751328,0.062338352,-5.8451056
1570726941,6.1028137,8.315659,1.1959076,3.8054657,-6.7368164,-2.4396515,-0.21557522,0.8855982,1.6431828
1570726941,6.1028137,8.315659,1.1959076,3.8054657,-6.7368164,-2.4396515,-0.21557522,0.8855982,1.6431828
1570726941,7.9403687,8.077438,1.225235,3.4890747,-5.0025635,-3.306778,1.6553459,0.58744955,2.8587818
1570726941,11.522095,6.162079,2.3139954,1.4757385,-0.022460938,-0.47956848,6.541353,-2.4801135,6.02315
1570726941,11.522095,6.162079,2.3139954,1.4757385,-0.022460938,-0.47956848,6.541353,-2.4801135,6.02315
1570726942,11.009735,7.1999664,-9.882065,2.0317993,5.695877,-2.1690674,7.031952,-0.074100494,-4.1422234
1570726942,11.009735,7.1999664,-9.882065,2.0317993,5.695877,-2.1690674,6.266844,-0.45889187,-5.5038967
1570726942,8.285736,7.1526794,-11.616074,-0.15306091,4.105438,-1.1144562,3.355207,-0.74970055,-7.956681
1570726942,10.487793,8.482651,-7.858963,-3.6300812,1.376236,1.15242,2.747016,0.17884064,-5.217724
1570726942,10.487793,8.482651,-7.858963,-3.6300812,1.376236,1.15242,2.747016,0.17884064,-5.217724
1570726942,6.2195435,6.8085175,-5.677246,-0.54507446,1.2547913,-0.44866943,0.13632107,-1.9976168,-5.7486467
1570726942,6.2195435,6.8085175,-5.677246,-0.54507446,1.2547913,-0.44866943,0.13632107,-1.9976168,-5.7486467
1570726942,6.71933,8.24144,-3.4518433,-1.1181946,0.84999084,-0.103530884,0.042936325,-0.3369856,-3.178954
1570726942,7.368149,5.478531,-1.9315186,-1.1192474,-0.47839355,0.62405396,0.68594074,-3.3322067,-2.0916135
1570726942,7.368149,5.478531,-1.9315186,-1.1192474,-0.47839355,0.62405396,0.68594074,-3.3322067,-2.0916135
1570726942,7.411255,8.304291,3.652359,-0.22442627,0.047851562,0.17237854,1.6263013,0.057106018,2.2414165
1570726942,9.926361,5.5449677,2.4450836,0.6565399,0.040390015,1.3644104,2.3032084,-2.8439684,1.9036738
1570726942,9.728836,5.1128235,-1.5448608,0.83869934,0.21829224,2.5457916,3.545549,-3.5348291,-1.8342446
1570726942,9.728836,5.1128235,-1.5448608,0.83869934,0.21829224,2.5457916,3.545549,-3.5348291,-1.8342446
1570726942,7.4968414,2.98497,0.76374817,0.49035645,-0.09703064,2.5734863,0.118531704,-4.7316933,-1.4480343
1570726942,5.5162354,5.1966095,-0.93792725,-0.25,-0.70210266,1.982254,-1.6762285,-1.9120493,-0.703568
1570726942,1.367096,4.5166626,-1.8231812,-1.7573395,-1.7140961,1.1204681,-1.9729228,-0.39737415,-2.5504017
1570726942,4.1180267,3.5218658,2.3433228,-3.0111694,-3.514389,1.7596283,-5.839755,-1.6596828,-2.5092335
1570726942,4.241928,4.22876,8.385086,-2.1759949,-2.892273,1.7745361,-5.7478046,-1.9559503,8.023487
1570726942,9.076416,7.2640076,3.0735626,-0.21591187,0.23001099,-1.2188568,-0.23412609,2.099916,4.518746
1570726942,9.076416,7.2640076,3.0735626,-0.21591187,0.23001099,-1.2188568,-0.23412609,2.099916,4.518746
1570726942,8.522766,4.9745483,3.89357,-0.8018036,1.7437592,-2.3629456,0.18652868,-0.6124668,3.76081
1570726942,9.757568,2.4061737,3.4500427,-0.14134216,2.2082062,-1.9730682,1.9478183,-3.8474398,1.6251845
1570726942,13.557175,8.837006,-1.9907837,0.08769226,1.615921,-2.3885193,6.101923,0.8522005,-4.2804284
1570726942,13.557175,8.837006,-1.9907837,0.08769226,1.615921,-2.3885193,6.101923,0.8522005,-4.2804284
1570726942,6.6433105,7.300522,4.241928,-0.27449036,2.143219,0.37371826,0.36843824,0.33338594,2.100951
1570726942,6.6433105,7.300522,4.241928,-0.27449036,2.143219,0.37371826,0.36843824,0.33338594,2.100951
1570726942,8.237854,7.126343,1.4736328,0.1643982,2.4500275,-0.7458801,1.5764027,-0.17931938,-1.7586842
1570726942,5.2349243,7.337631,-3.3315277,0.8056793,-4.0768585,-3.1224823,3.7422128,-1.295289,-7.338133
1570726942,5.2349243,7.337631,-3.3315277,0.8056793,-4.0768585,-3.1224823,3.7422128,-1.295289,-7.338133
1570726942,8.0074005,12.206238,4.46698,-0.3096466,-4.037445,-2.7943878,0.8576541,3.1910782,0.9514208
1570726942,0.21487427,-1.1923065,1.2431946,-2.1088867,-1.9974518,-5.475662,-1.8707829,-10.426536,-0.6330608
1570726942,0.24002075,-0.933136,1.051651,-2.1653442,-1.8035736,-5.3840485,-2.1457067,-10.682716,-0.6330608
1570726943,0.37709045,-0.7176666,0.8714905,-2.5200806,-0.73191833,-4.6660614,-0.62512434,-10.386941,-2.005443
1570726943,1.3575134,19.612701,14.440033,4.5554047,-10.723038,-4.089752,3.100339,10.371129,13.476844
1570726943,-1.0205231,19.612701,13.633179,4.4073334,-10.733688,-4.7672577,3.100339,10.371129,13.476844
1570726943,-6.937195,-1.0414734,-4.7333374,2.4493866,4.386673,0.67944336,-7.31406,-12.06399,-5.2330327
1570726943,-6.937195,-1.0414734,-4.7333374,2.4493866,4.386673,0.67944336,-7.31406,-12.06399,-5.2330327
1570726943,-6.388336,6.637329,2.442093,0.4328308,1.3517303,0.32044983,-5.0347166,-3.2998142,1.2815576
1570726943,-6.388336,6.637329,2.442093,0.4328308,1.3517303,0.32044983,-5.0347166,-3.2998142,1.2815576
1570726943,1.5813751,13.259689,3.9456482,2.505844,4.086273,1.5455017,2.6657362,2.9612255,7.522143
1570726943,1.5813751,13.259689,3.9456482,2.505844,4.086273,1.5455017,2.6657362,2.9612255,7.522143
1570726943,-1.8674774,8.734055,-1.438324,2.6262207,-0.18969727,0.98091125,-1.8906896,-0.63414764,1.1333704
1570726943,-1.5137329,8.758591,-1.8531189,2.6091766,-0.20462036,0.9904938,-1.8906896,-0.63414764,1.1333704
1570726943,-0.6296692,9.195526,-1.4425049,2.4110413,-0.15774536,1.2046204,-0.30509937,-0.09849739,1.5569341
1570726943,-0.33758545,9.353546,-2.020111,2.1777344,-0.5391083,1.3516235,-0.28752607,0.58987045,1.3761125
1570726943,-0.18495178,7.1802063,-1.5514374,2.3247528,-1.1708069,1.0757141,-0.3235079,-1.12817,3.0193415
1570726943,-0.4878235,2.3918,-2.3726501,1.8144836,-1.9740143,0.5793152,0.07808328,-4.485833,3.3465528
1570726943,-3.1848907,-0.10774231,-3.3141785,-0.9594574,-0.25254822,0.24694824,-2.487704,-8.462371,2.8620014
1570726943,-3.3782196,-0.10774231,-3.3141785,-0.9594574,-0.25254822,0.24694824,-2.8538585,-8.360426,2.1390738
1570726943,-2.1296387,8.376709,-2.953247,-3.133667,0.9970093,-0.19833374,-2.8462427,-0.40998077,-0.8961477
1570726943,-2.1296387,8.376709,-2.953247,-3.133667,0.9970093,-0.19833374,-2.6741283,-0.44482613,-0.12539673
1570726943,-2.3062134,9.25119,5.81073,-4.044464,2.4510803,-0.8417511,-2.0608766,-0.07153034,9.34297
1570726943,-1.6496124,13.187256,-1.6286621,-2.8258057,2.1549377,-1.2987518,-1.7764874,6.2148457,-0.96476984
1570726943,-1.4323273,10.7739105,-0.39804077,-2.6692047,1.7213745,-1.3679962,-1.3744107,2.4242449,0.6598201
1570726943,-0.91996765,9.539093,3.14299,-1.1693268,-1.3210144,-0.8183136,-0.24233395,0.27089024,3.4061463
1570726943,-0.91996765,9.539093,3.14299,-1.1693268,-1.3210144,-0.8183136,-0.24233395,0.27089024,3.4061463
1570726943,0.933136,9.937729,1.5586243,-0.6036682,-1.50531,-0.6670532,1.8687878,0.46646214,1.8457891
1570726943,0.9289551,8.8016815,-1.6795349,-1.0862274,-0.23764038,0.12657166,2.4947817,-0.0884552,-2.6014576
1570726943,0.9289551,8.8016815,-1.6795349,-1.0862274,-0.23764038,0.12657166,2.4947817,-0.0884552,-2.6014576
1570726943,-0.29328918,7.487274,1.3760681,-0.76239014,-1.5010376,0.44082642,0.98248196,-2.018567,-0.35409188
1570726943,-0.29328918,7.487274,1.3760681,-0.76239014,-1.5010376,0.44082642,0.98248196,-2.018567,-0.35409188
1570726943,-0.26815796,7.07547,3.6463623,-1.0372314,0.89686584,0.912735,0.42820454,-2.2295542,2.2567515
1570726943,-1.6448212,8.799286,-0.87268066,-2.3730621,3.5525665,1.6019592,-0.062729776,-0.5757637,-2.3750172
1570726943,-1.6448212,8.799286,-0.87268066,-2.3730621,3.5525665,1.6019592,-0.062729776,-0.5757637,-2.3750172
1570726943,1.1019287,9.245804,0.037704468,-0.18501282,-0.2695923,-0.5136566,1.004592,0.32188034,-2.6821194
1570726943,1.1019287,9.245804,0.037704468,-0.18501282,-0.2695923,-0.5136566,1.004592,0.32188034,-2.6821194
1570726944,0.8487396,10.720642,1.1869202,-0.10618591,0.44200134,-0.22709656,1.6572669,1.473278,-1.5611839
1570726944,0.39923096,11.72261,1.4760284,-0.051864624,0.052108765,-0.24095154,1.1592295,2.5885544,-1.6334178
1570726944,-0.23942566,12.958023,0.9181824,-0.030548096,-0.9950409,-0.14933777,0.37651002,3.3497124,-2.2108135
1570726944,-1.1899109,15.334259,1.0480652,0.5723877,-1.2475128,-0.11418152,-0.3620724,6.234186,-1.9470251
1570726944,-1.074997,14.697403,1.5837708,0.9388428,-1.0035706,0.011520386,-0.6342838,5.8622084,-1.3875875
1570726944,-1.6675568,11.2916565,1.0624237,1.5375214,-0.31114197,0.1659851,-1.159267,2.3698711,-1.3095226
1570726944,-1.2156525,10.026321,0.5279236,1.9838562,-0.25468445,0.100997925,-1.0119709,0.61453056,-1.3887095
1570726944,-1.10672,10.195114,0.5991516,2.3524475,-0.42086792,-0.25585938,-0.5668485,0.7164364,-1.0406954
1570726944,-2.2391815,11.923126,1.1288605,2.9692383,0.1138916,-0.79382324,-1.1247222,2.2781591,0.22493988
1570726944,-5.4539948,10.2842865,-0.43154907,2.7646942,1.4795685,-0.46359253,-3.6422763,1.1154814,0.94415814
1570726944,-2.0296783,10.420166,0.48243713,2.1468506,1.4444122,0.4621277,-2.0448833,0.59757423,0.7548157
1570726944,2.9430695,9.354141,1.161789,2.4344635,0.6582489,1.3686676,2.722682,0.1199522,3.8130665
1570726944,3.1381989,9.305069,0.9104004,2.5250244,0.43347168,1.344162,2.8989863,0.04216671,3.400151
1570726944,1.9578552,7.4693146,-0.7852936,2.9383392,-0.61686707,1.1833191,2.4178786,-1.3608627,2.7698936
1570726944,-0.15441895,6.6445007,-1.7094574,2.391861,-0.99824524,1.2983551,-0.8636767,-2.1868944,1.538249
1570726944,-1.1456299,5.914276,-0.7805023,2.2555084,-1.9431305,1.4666748,-1.8382412,-2.5242262,3.6822352
1570726944,-0.3040619,3.6379852,-0.17297363,2.072281,-2.334076,1.2919769,-1.1504774,-4.150488,4.740574
1570726944,-1.3610992,0.46627808,-2.6312256,1.0134125,-2.0038452,0.467453,-1.1265495,-6.8893366,3.6352253
1570726944,-1.5263062,0.7410126,-3.4111328,0.50634766,-1.7567139,0.4152527,-1.7561325,-6.776464,2.6298084
1570726944,-1.4095917,0.6380615,-6.2602386,-1.5592041,-0.25149536,0.22669983,-1.221715,-6.851439,-1.1538434
1570726944,-4.853653,2.9993286,-3.8259277,-2.0630798,0.4824829,0.20965576,-4.115125,-5.809867,1.132771
1570726944,1.0348969,15.425842,2.2709045,-2.3783875,1.2547913,-0.5115204,1.8171314,6.782939,4.175687
1570726944,-5.012863,16.715714,-1.7549438,-2.3272552,2.635376,-1.0015411,-4.3868,7.7673664,5.2689533
1570726944,-2.8760376,9.30986,0.7086792,-2.116333,1.7053986,-1.1325684,-3.9444287,1.7738199,3.005748
1570726944,-0.18255615,7.0652924,-1.6795349,-2.3421783,2.4638672,-1.0835724,-0.5757074,-2.2544985,0.6591022
1570726944,0.32920837,8.3797,-0.71287537,-2.5019684,2.1954193,-1.1805115,-0.13857119,-1.351779,1.2802718
1570726944,1.5586243,12.163147,1.4335327,-2.765091,2.283844,-1.4702606,1.4123534,2.3773727,2.815377
1570726944,-2.379242,13.312363,5.590454,-1.7924957,1.1663818,-1.5075378,-0.34651947,3.6036606,5.6415105
1570726944,1.5544281,10.923538,-0.46627808,-0.87316895,-0.7351227,-0.89608765,2.2808905,1.800065,0.25032425
1570726944,1.7016754,8.470093,-0.42736816,-1.1533356,-1.6022491,-0.70965576,2.7685165,-0.7361412,-0.5097767
1570726944,1.2042847,7.9559326,-0.21907043,-1.0883636,-1.7002411,-0.62338257,2.590178,-1.1835842,-0.33869517
1570726944,-0.65600586,7.6638336,-0.08679199,-0.8721161,-1.8760223,-0.28355408,0.99861646,-1.5901184,-0.67563474
1570726945,0.52194214,7.234085,2.394806,-0.6057892,-0.9918518,0.100997925,1.8568844,-1.7486992,1.4577501
1570726945,0.27114868,5.5048676,-1.4329224,-1.9821167,2.5320435,1.3388367,0.83905303,-3.5880594,-1.5370703
1570726945,0.27114868,5.5048676,-1.4329224,-1.9821167,2.5320435,1.3388367,0.83905303,-3.5880594,-1.5370703
1570726945,-2.9245148,11.044449,-1.1156921,-1.0851593,1.0406799,0.30659485,-2.4329183,2.1385431,-3.7184765
1570726945,-2.9245148,11.044449,-1.1156921,-1.0851593,1.0406799,0.30659485,-2.4329183,2.1385431,-3.7184765
1570726945,2.323578,9.893433,2.276886,-0.40551758,-0.68717957,-0.41778564,2.595462,0.4133196,-0.8880842
1570726945,2.323578,9.893433,2.276886,-0.44067383,-0.61154175,-0.40286255,2.870882,0.65751076,-0.57185984
1570726945,-0.64224243,12.814972,1.1845245,-0.6761017,-0.40808105,-0.05558777,0.07764757,3.1859245,-1.5185921
1570726945,-0.64224243,12.814972,1.1845245,-0.6761017,-0.40808105,-0.05558777,0.07764757,3.1859245,-1.5185921
1570726945,-0.4513092,13.084305,0.94869995,1.1423035,-0.93218994,-0.15466309,-0.016351998,4.467435,-1.8374016
1570726945,-0.4513092,13.084305,0.94869995,1.1423035,-0.93218994,-0.15466309,-0.016351998,4.467435,-1.8374016
1570726945,-0.9534912,10.259155,-0.18734741,2.172409,-0.726593,0.026443481,-0.4013775,0.9297924,-1.8589593
1570726945,-0.9534912,10.259155,-0.18734741,2.172409,-0.726593,0.026443481,-0.4013775,0.9297924,-1.8589593
1570726945,-1.367096,11.201279,0.44891357,2.327942,-0.822464,-0.016174316,-0.90459895,1.5209484,-1.0932827
1570726945,-1.7675171,10.71405,2.9023743,2.3854675,1.1173706,0.10739136,-1.3540789,1.8262644,2.2433374
1570726945,-1.7872772,10.43573,2.3840332,2.3854675,1.1173706,0.10739136,-1.3540789,1.8262644,2.2433374
1570726945,-1.4233551,9.310455,1.450882,2.6421967,1.4390869,0.54841614,-1.4850842,-0.06856823,2.5205364
1570726945,1.398819,9.563644,0.9032135,2.5473938,0.2395935,1.3271179,0.7667306,0.6403246,3.1899135
1570726945,1.398819,9.563644,0.9032135,2.5473938,0.2395935,1.3271179,0.7667306,0.6403246,3.1899135
1570726945,0.0688324,6.5014496,-1.782486,2.551651,-0.50502014,1.5327148,-0.6391393,-2.1353703,2.103888
1570726945,0.0688324,6.5014496,-1.782486,2.551651,-0.50502014,1.5327148,-0.6391393,-2.1353703,2.103888
1570726945,1.1713562,4.0803223,0.01675415,2.1596375,-2.5929413,1.229126,0.2604431,-3.468388,4.941442
1570726945,1.1713562,4.0803223,0.01675415,2.1596375,-2.5929413,1.229126,0.2604431,-3.468388,4.941442
1570726945,-1.4520874,0.46746826,-3.6158447,0.60754395,-1.9154358,0.4152527,-2.1012073,-6.979543,2.459426
1570726945,-1.4520874,0.46746826,-3.6158447,0.60754395,-1.9154358,0.4152527,-2.1012073,-6.979543,2.459426
1570726945,-2.3965912,1.9099731,-3.9079285,-0.8635864,-0.4112854,0.42378235,-2.8558383,-5.476277,1.9351435
1570726945,-3.1597443,2.197876,-2.6677399,-2.144043,0.5836792,0.24906921,-3.6564517,-5.4183135,1.8451414
1570726945,-3.1597443,2.197876,-2.6677399,-2.144043,0.5836792,0.24906921,-3.6564517,-5.4183135,1.8451414
1570726945,-2.3289642,19.612106,-2.6785126,-2.3964996,3.017807,-1.3775787,-2.2403882,11.329086,1.0119674
1570726945,-2.3289642,19.612106,-2.6785126,-2.3964996,3.017807,-1.3775787,-2.2403882,11.329086,1.0119674
1570726945,-0.0975647,4.5507812,-0.6889343,-1.9043579,2.5128784,-1.3062134,-0.94715434,-4.121542,2.3521056
1570726945,-0.0975647,4.5507812,-0.6889343,-1.9043579,2.5128784,-1.3062134,-0.94715434,-4.121542,2.3521056
1570726945,1.5634155,11.763306,3.8397064,-3.2348633,2.347763,-1.9368439,1.7940047,1.5855827,3.7761168
1570726945,1.5322876,12.235565,4.5681305,-3.163498,2.347763,-1.968811,1.7923918,2.4433641,4.7515326
1570726946,3.1208344,10.71106,-2.1882935,-1.0148621,-1.5660248,-1.0750427,4.2487855,2.627306,-1.9723489
1570726946,3.1208344,10.71106,-2.1882935,-1.0148621,-1.5660248,-1.0750427,4.2487855,2.627306,-1.9723489
1570726946,0.24002075,6.521805,-0.62667847,-0.9296417,-2.6557922,-0.49554443,1.8447498,-2.7692175,-1.1435926
1570726946,0.24002075,6.521805,-0.62667847,-0.9296417,-2.6557922,-0.49554443,1.8447498,-2.7692175,-1.1435926
1570726946,0.013168335,7.3346405,4.3784027,-0.5780945,-0.90449524,0.46533203,0.89863,-1.7800913,2.2423098
1570726946,0.013168335,7.3346405,4.3784027,-0.5780945,-0.90449524,0.46533203,0.89863,-1.7800913,2.2423098
1570726946,-0.08798218,6.7175293,1.8567047,-2.5573578,2.5544128,1.9417877,1.3188761,-2.3873873,0.33140945
1570726946,-0.08798218,6.7175293,1.8567047,-2.5573578,2.5544128,1.9417877,1.3188761,-2.3873873,0.33140945
1570726946,-0.96725464,9.15184,0.8307953,-0.3884735,0.07235718,-0.9131317,-1.3294321,0.35893726,-1.4906268
1570726946,-0.96725464,9.15184,0.8307953,-0.3884735,0.07235718,-0.9131317,-1.3294321,0.35893726,-1.4906268
1570726946,2.7341766,11.1091,1.960846,0.014190674,-0.7031555,-0.59780884,3.4313416,2.0750885,-0.55439043
1570726946,2.7341766,11.1091,1.960846,0.014190674,-0.7031555,-0.59780884,3.4313416,2.0750885,-0.55439043
1570726946,1.7238312,12.182892,0.50457764,0.09088135,-0.6648102,-0.27290344,2.6306229,2.9135075,-1.5127387
1570726946,-0.98880005,15.203781,0.5626373,0.2155304,-1.2006378,0.23097229,-0.11979735,6.652092,-2.0149782
1570726946,-1.4634552,13.012482,0.5752106,0.8237915,-0.93644714,0.27677917,-0.9151386,4.459175,-1.6779828
1570726946,-2.110489,11.683105,0.6428375,2.074417,-0.44856262,0.15959167,-2.080904,2.2519016,-0.80612993
1570726946,-2.110489,11.683105,0.6428375,2.074417,-0.44856262,0.15959167,-2.080904,2.2519016,-0.80612993
1570726946,-3.186676,12.686874,4.2155914,3.1013184,-0.18011475,-0.72776794,-2.4520452,3.446025,2.6219802
1570726946,-3.581131,12.653961,4.26886,3.0736237,1.29953,-0.6425476,-2.8249602,3.4135532,4.4807816
1570726946,-2.0057373,11.134827,-0.7080841,2.232071,2.8228607,0.43443298,-3.8050926,1.3962088,0.45506257
1570726946,2.4678192,8.6909485,2.0859528,2.7732239,0.8862152,1.1854401,2.2276287,0.0944767,3.9147615
1570726946,2.4678192,8.6909485,2.0859528,2.7732239,0.8862152,1.1854401,2.2276287,0.0944767,3.9147615
1570726946,0.3321991,5.81192,-0.73501587,2.5271454,-1.1271362,1.295166,-0.7812488,-3.0024357,2.1584516
1570726946,0.46447754,5.889145,-0.46687317,2.536728,-1.2379303,1.3100739,-0.7812488,-3.0024357,2.1584516
1570726946,-0.14485168,5.4420166,-0.43814087,2.3535156,-1.6299438,1.5636139,-1.1831663,-2.6182976,3.3305807
1570726946,0.6829529,4.1677094,0.5883789,2.3045044,-2.461914,1.4485626,-0.5744448,-3.4371014,4.584945
1570726946,-1.8243866,-0.79367065,-3.126236,0.9431,-2.5449982,0.40992737,-2.0554054,-8.099503,2.8797235
1570726946,-1.9105682,-0.6649933,-3.4614105,0.8269806,-2.4693756,0.38330078,-2.0554054,-8.099503,2.8797235
1570726946,-4.3730164,2.8676605,-5.9238586,-1.6870422,0.4537201,-0.0012664795,-3.9712903,-5.033483,0.2202344
1570726946,-4.3730164,2.8676605,-5.9238586,-1.6870422,0.4537201,-0.0012664795,-3.9712903,-5.033483,0.2202344
1570726946,-2.5354614,8.877701,-8.28154,-2.033249,0.5229645,0.013656616,-3.4928315,0.027703285,-1.8610401
1570726946,-4.7303467,12.8849945,-3.237564,-2.3112793,2.127243,-1.1293793,-5.0428896,7.7114754,-1.7284503
1570726946,-4.759674,11.483185,-2.094925,-2.336853,2.0505524,-1.1357727,-5.0428896,7.7114754,-1.7284503
1570726947,-0.049682617,6.521805,-1.1749573,-2.6542969,3.1499023,-1.283844,-0.467321,-2.5210114,1.5653129
1570726947,0.5782013,9.187149,0.035308838,-2.957901,2.732315,-1.65242,0.1365126,-0.3690834,1.8002052
1570726947,-3.079544,15.685608,6.229706,-1.7509613,0.8563843,-1.9059601,-1.0636392,5.0914965,7.1973686
1570726947,-3.079544,15.685608,6.229706,-1.7509613,0.8563843,-1.9059601,-1.0636392,5.0914965,7.1973686
1570726947,4.059372,11.455063,-2.3612823,-0.8806305,-1.6118317,-1.2113953,4.5325093,3.1357412,-1.3639789
1570726947,1.1001282,6.5056458,-1.3341675,-0.92004395,-2.4086456,-0.582901,2.601457,-2.4759598,-1.3804046
1570726947,1.1001282,6.5056458,-1.3341675,-0.92004395,-2.4086456,-0.582901,2.601457,-2.4759598,-1.3804046
1570726947,1.8195953,7.088028,2.6042938,-0.7559967,-1.5457916,0.78596497,2.5603418,-2.0006838,0.82546103
1570726947,2.261322,7.2041473,3.3040009,-0.79008484,-1.3327332,0.8488159,2.5603418,-2.0006838,0.82546103
1570726947,-0.74220276,6.146515,1.5424652,-3.0026398,2.985855,2.3082275,2.5355163,-2.1498327,-4.4353237
1570726947,-1.9117737,5.6580963,1.1821442,-3.0101013,2.9815826,2.3092957,2.5355163,-2.1498327,-4.4353237
1570726947,-5.392334,10.3112335,1.446701,-0.8827667,-1.6139679,-0.4657135,-6.4511876,1.6314449,-0.32346535
1570726947,3.7864227,8.345581,2.1679535,-0.76452637,0.61883545,-0.07476807,3.7806935,-0.26950073,0.10449171
1570726947,3.7864227,8.345581,2.1679535,-0.76452637,0.61883545,-0.07476807,3.7806935,-0.26950073,0.10449171
1570726947,1.2910767,9.713272,1.8908234,-0.57276917,1.4199066,-0.35066223,2.0693858,0.5082102,-0.89514184
1570726947,1.5706024,10.246582,1.8399506,-0.7655792,-0.90663147,-0.55625916,2.0684655,1.6155338,-0.89807034
1570726947,0.917572,10.198105,1.5029602,-0.728302,-0.8735962,-0.62550354,1.8363805,1.479312,-1.3810759
1570726947,-1.0797882,13.818741,0.42018127,0.15267944,-0.7628174,-0.25904846,-0.5623991,5.737584,-2.4334822
1570726947,-1.0797882,13.818741,0.42018127,0.15267944,-0.7628174,-0.25904846,-0.5623991,5.737584,-2.4334822
1570726947,-0.038909912,10.152618,3.5523987,1.2882385,-1.2826691,-0.45932007,0.5357845,1.6749315,0.7660837
1570726947,-0.038909912,10.152618,3.5523987,1.2882385,-1.2826691,-0.45932007,0.5357845,1.6749315,0.7660837
1570726947,-0.0035858154,9.907806,1.3736725,2.6539154,-1.1473694,-0.6063385,0.869041,0.86697006,-0.17095649
1570726947,-0.0035858154,9.907806,1.3736725,2.6539154,-1.1473694,-0.6063385,0.869041,0.86697006,-0.17095649
1570726947,1.2054749,7.949951,-0.055664062,1.8080902,-0.65522766,-0.3400116,2.2046382,-1.0283451,-0.84209394
1570726947,1.1988983,7.890091,0.025741577,1.8049011,-0.5700073,-0.313385,2.2046382,-1.0283451,-0.84209394
1570726947,-0.7368164,8.297104,3.3339233,1.8485718,0.37168884,0.15959167,0.25697207,-0.8019781,3.6385293
1570726947,-0.7631531,8.209122,3.4919434,1.8464508,0.36743164,0.16279602,0.25697207,-0.8019781,3.6385293
1570726947,-0.16281128,6.980301,0.5506592,0.91433716,-1.540451,0.04560852,0.70995224,-2.1746187,2.132472
1570726947,0.04309082,7.100006,0.31243896,0.8216553,-1.6629639,0.04560852,0.70995224,-2.1746187,2.132472
1570726947,3.621231,8.495224,-0.126297,-0.2734375,-1.7226257,0.5324402,4.2987394,-0.75228024,-0.011568069
1570726947,3.5356445,8.966278,0.61650085,0.08129883,0.3748932,1.6807861,4.394525,-0.11349392,1.9277968
1570726947,-1.332367,7.999634,2.8634644,1.0475006,-2.972168,1.0671997,-0.36511546,-0.41765976,4.335508
1570726947,-1.332367,7.999634,2.8634644,1.0475006,-2.972168,1.0671997,-0.36511546,-0.41765976,4.335508
1570726948,-1.4718323,6.0465546,0.20649719,0.92819214,-1.6427307,1.4038239,-1.8527528,-2.633296,2.949389
1570726948,-1.5981293,5.9866943,-0.18315125,0.8983612,-1.6054382,1.3952942,-1.8527528,-2.633296,2.949389
1570726948,-0.29029846,6.7809753,-1.067215,0.11859131,-1.5117035,1.2664032,-1.4186282,-2.0264215,1.095623
1570726948,-0.29029846,6.7809753,-1.067215,0.11859131,-1.5117035,1.2664032,-1.4186282,-2.0264215,1.095623
1570726948,1.395813,6.9509735,-1.1282654,-0.71551514,-1.4286041,0.28955078,0.15879107,-1.835002,1.1033139
1570726948,1.395813,6.9509735,-1.1282654,-0.71551514,-1.4286041,0.28955078,0.15879107,-1.835002,1.1033139
1570726948,2.9550476,8.811264,-3.8031921,-0.9754486,-2.3298187,-0.5307007,1.8323532,-0.3054514,-1.4731783
1570726948,2.9550476,8.811264,-3.8031921,-0.9754486,-2.3298187,-0.5307007,1.8323532,-0.3054514,-1.4731783
1570726948,2.1625671,12.131424,-0.8086395,-0.45132446,-1.8429871,-0.11204529,2.6848903,3.937993,0.8454319
1570726948,2.1625671,12.131424,-0.8086395,-0.45132446,-1.8429871,-0.11204529,2.6848903,3.937993,0.8454319
1570726948,-2.3930054,5.3145294,5.158905,-0.28515625,-1.0376587,0.25334167,-2.876568,-3.887906,4.727916
1570726948,-2.1721344,5.628769,6.0148315,-0.3096466,-0.7723999,0.22351074,-2.876568,-3.887906,4.727916
1570726948,-12.7066345,12.61145,-14.188644,-0.5887451,0.3013916,-0.72457886,-13.369994,8.576874,-7.67634
1570726948,-10.685318,11.094131,-13.87619,-0.76664734,-0.33032227,-0.4337616,-13.369994,8.576874,-7.67634
1570726948,0.98461914,6.1052094,4.2120056,0.83018494,-1.6373901,-0.54667664,1.1271482,-3.0606441,5.2172494
1570726948,0.98461914,6.1052094,4.2120056,0.83018494,-1.6373901,-0.54667664,1.1271482,-3.0606441,5.2172494
1570726948,1.4844055,9.99939,-3.9115295,0.6970215,-3.0936127,-0.28675842,1.9311929,1.6409502,-2.0326636
1570726948,1.4844055,9.99939,-3.9115295,0.6970215,-3.0936127,-0.28675842,1.9311929,1.6409502,-2.0326636
1570726948,2.1517944,6.712738,1.672348,-1.0574646,-1.7204895,0.52072144,3.9250703,-1.5696554,3.519085
1570726948,2.1517944,6.712738,1.672348,-1.0574646,-1.7204895,0.52072144,3.9250703,-1.5696554,3.519085
1570726948,-0.05506897,10.06044,-1.2054749,-2.272934,0.5921936,1.5657501,0.4390707,0.30220795,0.031853378
1570726948,-0.05506897,10.06044,-1.2054749,-2.272934,0.5921936,1.5657501,0.4390707,0.30220795,0.031853378
1570726948,-0.030532837,10.17955,2.6509857,-0.16264343,-2.6962738,0.089279175,-0.8196759,1.5210333,2.6553626
1570726948,-0.030532837,10.17955,2.6509857,-0.16264343,-2.6962738,0.089279175,-0.8196759,1.5210333,2.6553626
1570726948,-0.9911957,7.8404083,2.0865479,-1.0425568,-2.2296906,0.25653076,-1.9555309,-1.369421,0.19968939
1570726948,-0.9732361,7.8056946,2.3696594,-0.97117615,-2.2467346,0.19688416,-1.8492861,-1.1627369,0.9619745
1570726948,0.885849,8.095993,3.2537231,-0.59407043,-0.76493835,-0.22923279,0.08134532,-0.9874182,2.032919
1570726948,0.8535309,8.243835,3.2225952,-0.58981323,-0.81288147,-0.24732971,0.08134532,-0.9874182,2.032919
1570726948,2.0093384,10.309433,1.1564026,-0.7059326,-0.80329895,-0.44015503,0.87342596,1.3728094,-0.06357539
1570726948,2.0093384,10.309433,1.1564026,-0.7059326,-0.80329895,-0.44015503,0.87342596,1.3728094,-0.06357539
1570726948,5.6784515,12.33194,2.9736023,-0.4310913,-0.90449524,-0.68089294,4.7894974,3.1123838,0.71579003
1570726948,5.914276,12.627014,3.348297,-0.39060974,-0.87786865,-0.65319824,4.7894974,3.1123838,0.71579003
1570726948,1.4891968,11.392212,1.0319061,1.1614838,-2.5758972,-0.093933105,0.85308343,3.0009193,-0.21771836
1570726948,1.4891968,11.392212,1.0319061,1.1614838,-2.5758972,-0.093933105,0.85308343,3.0009193,-0.21771836
1570726949,1.4341278,10.120285,-0.006576538,1.9625549,-4.292038,-0.44441223,0.8109112,0.6960249,-0.9779726
1570726949,1.34375,10.253174,0.21368408,2.0115662,-4.27713,-0.47210693,0.8109112,0.6960249,-0.9779726
1570726949,1.4634552,11.558014,3.846878,3.012909,1.4966125,-0.6755676,0.5413917,2.784689,5.697523
1570726949,1.5281067,11.465836,3.5446167,2.9937286,1.5999451,-0.65000916,0.96649164,2.4890985,5.056681
1570726949,2.5588074,9.490021,1.6513977,2.3066406,-0.8096924,-0.39753723,2.4356813,0.90000725,3.8580155
1570726949,2.5588074,9.490021,1.6513977,2.3066406,-0.8096924,-0.39753723,2.4356813,0.90000725,3.8580155
1570726949,4.6429596,8.238449,-0.12210083,1.118866,-0.098083496,0.55799866,4.3366456,-0.68959045,2.7445023
1570726949,4.6429596,8.238449,-0.12210083,1.118866,-0.098083496,0.55799866,4.3366456,-0.68959045,2.7445023
1570726949,1.4610596,11.006744,-0.97683716,1.0815887,-0.6232605,2.0866547,0.8786311,2.8109589,1.4802346
1570726949,1.5191193,10.857712,-0.41838074,1.149765,-0.83525085,2.0557709,0.32897305,2.6132507,2.2656126
1570726949,-0.20111084,9.831192,1.869278,2.2832031,-3.2001343,1.7723999,-1.2875798,1.8109131,5.8005533
1570726949,-0.5488739,6.4739227,-2.2319946,1.6664124,-1.9942627,1.8075562,-1.8108964,-0.7827163,3.3118234
1570726949,-0.63027954,6.336258,-2.513916,1.5982361,-1.9282074,1.820343,-1.8108964,-0.7827163,3.3118234
1570726949,0.40881348,5.2564697,-1.7076569,1.0315094,-1.9122314,1.6403046,-1.3392316,-1.7280245,3.7749863
1570726949,1.3814545,4.811142,-1.4311371,0.7726593,-2.63768,1.4187317,0.015433669,-1.9420662,4.650517
1570726949,1.3814545,4.811142,-1.4311371,0.7726593,-2.63768,1.4187317,0.015433669,-1.9420662,4.650517
1570726949,0.1663971,4.3347015,-3.248932,0.41152954,-2.5854797,1.264267,-1.0534056,-2.1749582,3.3310027
1570726949,0.053268433,2.7688904,-3.5865173,-0.2223053,-2.2296906,0.83070374,-0.8587076,-3.529489,2.5507135
1570726949,0.1592102,4.36882,-4.5400085,-0.7293701,-0.95243835,0.7391052,-0.8620649,-2.750505,1.9489708
1570726949,1.4496918,7.447769,-6.8647766,-0.8273773,-0.027786255,0.83070374,0.59159863,0.32410002,-0.4964652
1570726949,-3.0095062,7.9882507,-4.5400085,-1.4335022,-0.168396,0.4855652,-1.7088141,1.71274,0.88033485
1570726949,-1.2707214,11.18811,-3.4841614,-2.0151367,1.6830292,-0.34321594,-1.5406927,4.3218746,2.1768746
1570726949,-1.6442108,10.837357,-4.1216125,-2.0055542,1.6404266,-0.33361816,-1.5406927,4.3218746,2.1768746
1570726949,-2.577362,9.083008,-3.8558655,-2.2143402,1.0183105,-0.50193787,-3.6671233,1.5336137,-0.036425114
1570726949,-1.0378876,10.519531,-0.8439636,-2.6212769,2.2241821,-1.6044769,-2.080038,1.9779215,2.8423
1570726949,-1.8058319,11.263519,-0.3543396,-2.799179,2.2593384,-2.096634,-2.361863,2.71311,2.56034
1570726949,-4.0773315,9.620499,2.8251648,-2.3943787,1.3155212,-2.2798615,-3.8838513,0.81589127,4.1186438
1570726949,-1.5568237,11.360489,1.5035553,-0.53868103,-1.3966522,-0.934433,-4.271695,2.2416344,5.676028
1570726949,5.00029,9.254791,-0.14245605,-1.2012787,-3.1639252,-1.2273865,5.2786994,0.92499256,0.91728127
1570726949,4.791397,8.371323,0.44831848,-1.1309662,-3.001999,-1.2092743,5.8948436,0.011137962,1.3175939
1570726949,1.2928619,6.321289,-0.27952576,-0.7517395,-2.206253,-0.44866943,3.0608683,-2.10773,1.0663371
1570726949,0.85054016,7.1173706,0.42855835,-0.52056885,-2.41185,0.51646423,2.1011562,-1.9562197,0.70924276
1570726949,-1.8183899,7.061096,5.835266,-0.122161865,-0.5028839,1.3207397,-1.3388656,-1.980546,5.6463575
1570726950,0.8565216,8.28334,1.2276306,-0.9754486,2.4329834,1.501831,1.4929256,-0.44341755,2.7772908
1570726950,-2.6036987,7.0826416,5.4336395,-1.9789276,3.4428558,1.6925049,0.10074568,-1.0190554,3.195169
1570726950,-6.2309113,11.016922,-2.6856995,-3.307312,0.9139099,1.199295,-5.7483397,1.867568,-6.808906
1570726950,2.6330261,9.96228,1.4736328,-0.15518188,0.27581787,-0.7437439,2.540254,1.0458927,0.3173312
1570726950,2.6330261,9.96228,1.4736328,-0.15518188,0.27581787,-0.7437439,2.540254,1.0458927,0.3173312
1570726950,2.9299011,10.544067,1.8267822,-0.035873413,0.5506592,-0.5498657,3.2446413,1.5833149,0.5869833
1570726950,1.5131378,11.501144,-0.19871521,-0.044403076,-0.38145447,-0.29953003,1.8644335,2.4237795,-1.3324234
1570726950,0.39624023,15.51503,0.46627808,0.16651917,-1.0632172,-0.0854187,1.1109831,6.2513924,-0.75824094
1570726950,0.12449646,15.639526,0.30586243,0.23789978,-1.0003662,-0.044937134,1.1109831,6.2513924,-0.75824094
1570726950,-1.7884674,11.675919,-3.3016052,2.3822784,-1.1463165,0.11166382,-1.7772496,3.0277529,-2.9371195
1570726950,-1.004364,11.074387,-1.7369995,2.7316742,-1.5351257,-0.23348999,-1.00986,1.91119,-3.0838637
1570726950,-0.7146759,10.91217,3.3578644,3.1631165,-0.48265076,-0.55093384,-0.24649152,1.602025,2.8108907
1570726950,-5.054764,11.276093,2.724594,3.1343536,1.6521454,-0.7735748,-3.8884628,3.2960644,2.9416904
1570726950,-1.5753784,9.206299,1.225235,2.633667,1.648941,0.1894226,-2.3091245,0.04709816,2.6390388
1570726950,0.28790283,9.178772,0.104141235,2.2895966,0.6071167,0.15533447,0.17858365,0.33888245,3.3373306
1570726950,0.9109955,8.844772,-2.4756012,2.9404755,-0.30900574,1.2056885,2.1905062,0.6945038,1.7736347
1570726950,0.79307556,8.867523,-1.9458923,2.967102,-0.5433655,1.2344513,1.0599815,0.47733593,1.2581658
1570726950,-0.57580566,5.0780945,-0.7056885,2.1969147,-1.3551025,1.5827942,-0.8222246,-2.2045693,4.2208586
1570726950,-0.57580566,5.0780945,-0.7056885,2.1969147,-1.3551025,1.5827942,-0.8222246,-2.2045693,4.2208586
1570726950,0.7050934,4.4376526,-0.22265625,2.1479187,-1.9047852,1.3505554,-0.27377242,-2.6282601,5.7230844
1570726950,1.2994537,4.174286,-0.7799072,2.1159515,-2.6184998,1.0831757,0.73958284,-2.490137,5.128464
1570726950,-3.099289,0.09037781,-2.9736023,-0.0017852783,-1.4126282,0.41099548,-2.9050415,-6.252954,3.6290474
1570726950,-3.099289,0.09037781,-2.9736023,-0.0017852783,-1.4126282,0.41099548,-2.9050415,-6.252954,3.6290474
1570726950,-3.7696686,4.9392395,-6.3625946,-2.1866455,1.3155212,-0.009780884,-2.441262,-3.235475,-0.9149475
1570726950,-4.280838,5.6233826,-6.0064545,-2.2036896,1.3868866,-0.020431519,-3.433776,-2.1570582,-0.694458
1570726950,-0.41479492,17.839203,-12.022491,-1.7573395,1.153595,0.07543945,-3.051716,8.394922,-8.749275
1570726950,-1.0151367,14.632767,1.672348,-1.9118042,2.2348328,-0.9951477,0.31218368,8.254548,11.184581
1570726950,-2.5097198,4.660309,-0.91218567,-2.1291199,2.443634,-0.96533203,-3.3668609,-2.6178308,4.1925077
1570726950,0.6075287,9.248199,-0.5015869,-3.1230164,2.6481628,-1.3562775,0.21549603,0.38529873,2.2037137
1570726950,0.6075287,9.248199,-0.5015869,-3.1230164,2.6481628,-1.3562775,0.21549603,0.38529873,2.2037137
1570726950,0.41059875,12.98555,2.2284088,-3.0356598,2.6918335,-1.605545,0.51131773,2.9148407,4.409336
1570726950,1.2126617,11.313797,0.69132996,-1.0074005,0.62202454,-0.70539856,0.5810905,2.510192,3.0658345
1570726950,2.5210876,9.968262,-1.4634552,-0.8998108,-1.202774,-1.0068665,3.0338595,1.2574081,-0.17192805
1570726951,0.21128845,6.7151337,-0.54467773,-1.0052643,-1.8493805,-0.45187378,1.4232616,-1.7052193,0.30498934
1570726951,0.21128845,6.7151337,-0.54467773,-1.0052643,-1.8493805,-0.45187378,1.1629617,-1.9799309,0.37901038
1570726951,-0.34655762,7.2634125,1.0157471,-1.0457458,-1.3529663,0.08822632,0.6471547,-1.7385645,1.5633681
1570726951,1.7363892,7.965515,1.9147644,-0.79008484,-0.92367554,0.20327759,1.6532733,-1.0268545,2.0430408
1570726951,0.3866577,7.902664,0.27772522,-1.3994141,1.1450806,0.97239685,0.8846765,-1.1089363,0.38077435
1570726951,0.3866577,7.902664,0.27772522,-1.3994141,1.1450806,0.97239685,0.8846765,-1.1089363,0.38077435
1570726951,-2.6036987,11.229996,-1.901001,-1.3376312,1.8449554,0.7082062,-2.6806138,2.2693233,-2.7655656
1570726951,-2.442688,11.198883,-1.8644867,-1.2332306,1.6212463,0.5548096,-2.6806138,2.2693233,-2.7655656
1570726951,0.59317017,8.772949,0.6482239,-0.28727722,-0.046951294,-0.6372223,-0.24641149,0.32023716,-0.59693885
1570726951,2.4163513,8.295303,1.6962891,-0.53549194,-0.33883667,-0.5445404,2.2710776,-0.43583584,0.35629404
1570726951,0.26216125,10.460861,1.6651611,-0.54507446,0.15437317,-0.27503967,0.71764994,1.550931,0.2736305
1570726951,0.26216125,10.460861,1.6651611,-0.54507446,0.15437317,-0.27503967,0.71764994,1.550931,0.2736305
1570726951,-0.8487396,11.512512,0.64164734,-0.728302,-0.37080383,-0.07795715,-0.5442474,2.0596218,-1.006386
1570726951,-0.9756317,14.223358,1.0169373,-0.4300232,-0.4613495,-0.07795715,-0.6409313,4.8934984,-1.009882
1570726951,0.24182129,12.060791,-0.65122986,1.2861176,-1.3167572,-0.18128967,0.50541586,3.0072727,-2.5934098
1570726951,0.24182129,12.060791,-0.65122986,1.2861176,-1.3167572,-0.18128967,0.50541586,3.0072727,-2.5934098
1570726951,0.79907227,11.013321,2.6773224,2.2906647,-0.5817261,-0.14720154,1.1899652,2.099594,1.5985259
1570726951,0.8349762,10.954666,2.7880554,2.3343353,-0.4229889,-0.11418152,1.1899652,2.099594,1.5985259
1570726951,-0.4010315,12.212219,1.7848816,2.4802704,1.2888794,0.39820862,-0.3564725,2.7556171,2.218176
1570726951,-0.88645935,12.590515,-0.16160583,2.023285,1.2984772,0.2682495,-0.38472915,3.510088,1.1379639
1570726951,-2.5019379,9.098572,2.1452026,2.1404572,1.29953,0.55374146,-2.8203967,0.020992279,3.0155087
1570726951,-2.5019379,9.098572,2.1452026,2.1617584,1.3773041,0.57185364,-2.8203967,0.020992279,3.0155087
1570726951,-1.3293762,8.391083,-1.4951782,2.1138306,2.0271149,0.8445587,-2.0052776,-0.28910065,2.751415
1570726951,2.3894196,8.894455,2.004547,2.7615051,-0.13644409,1.3068848,1.0602741,0.5822573,4.8550153
1570726951,0.84036255,5.965149,-0.6434479,2.9702911,-0.3952942,1.0917053,0.7747994,-1.9453373,3.8675237
1570726951,1.5843658,6.4044952,-0.9038086,2.2714844,-2.030487,1.4720001,0.21675098,-1.0671711,3.5425673
1570726951,1.5843658,6.4044952,-0.9038086,2.2714844,-2.030487,1.4720001,0.21675098,-1.0671711,3.5425673
1570726951,0.9606781,3.5859222,-0.23043823,2.1756134,-3.0978699,0.7082062,0.7080692,-2.9097795,5.6858287
1570726951,-0.7164612,2.1230621,-1.2856903,1.8634949,-3.0147858,0.4631958,-1.0473626,-4.3969584,4.6908245
1570726951,-2.1092987,0.37948608,-2.9299011,0.5169983,-2.2840118,0.20753479,-2.48279,-5.997805,3.3381972
1570726951,-3.2435455,0.97624207,-5.9106903,-2.131256,0.47183228,-0.12376404,-2.8482523,-6.3554893,-0.2949891
1570726951,-0.65960693,15.111603,-14.716553,-2.213272,1.1408081,-0.20579529,-3.031936,6.0918074,-9.554362
1570726951,-0.65960693,15.111603,-14.716553,-2.213272,1.1408081,-0.20579529,-3.031936,6.0918074,-9.554362
1570726951,-0.52671814,14.106644,8.446747,-2.7533722,2.859085,-1.3818359,1.9318066,7.892675,14.172655
1570726952,-0.809845,6.1243744,-1.893219,-2.4774628,2.871872,-1.0665283,-1.5631948,-1.9111938,1.9003515
1570726952,1.2078705,8.101379,0.4447174,-2.6308594,2.3999481,-1.5128784,0.79166067,-1.0605583,2.345897
1570726952,0.6314697,12.000931,3.826538,-2.5307312,2.5203247,-2.2606812,0.88752866,2.675414,4.9985204
1570726952,-1.9919739,12.849686,-0.4507141,-0.728302,0.47183228,-1.6343079,-3.2159295,4.8195696,4.2922497
1570726952,0.54467773,12.62941,-2.5091248,-0.71765137,-0.517807,-1.3626709,-0.28005296,3.8473167,-0.26719928
1570726952,1.9985657,9.284714,-0.541687,-1.2449493,-2.2925415,-0.85240173,2.4904587,0.5806627,0.35105097
1570726952,2.7335815,7.936783,0.3531494,-1.4526825,-2.3074493,-0.6595917,4.5482826,-0.50543785,0.6766947
1570726952,0.025146484,6.645706,0.517746,-0.97010803,-1.0461731,0.2160492,1.0526768,-2.58103,0.63732046
1570726952,-0.08319092,7.7374573,2.4989471,-0.22975159,0.5613098,0.912735,0.7970742,-1.4881411,1.9995114
1570726952,0.5482788,7.930191,2.0069427,-0.2734375,0.7541199,0.97772217,0.7588624,-1.2638197,2.459047
1570726952,1.7926636,7.4256134,1.4059906,-2.3336487,2.4851837,2.074936,3.2103622,-1.052661,-1.0314689
1570726952,-1.4059906,7.5279694,-0.5895691,-2.4678802,2.9421692,2.1676178,-0.41758823,-1.5137987,0.17556787
1570726952,-2.988556,10.2789,-0.78230286,-0.9871521,0.7850189,0.13615417,-3.4737322,1.7198763,-2.3970912
1570726952,0.25378418,9.329605,0.25558472,-0.14134216,-0.31967163,-0.6926117,-0.6283842,0.8140373,-0.8023759
1570726952,1.4879913,10.763138,0.73501587,-0.26490784,-0.46028137,-0.5498657,2.2174237,1.646637,-0.6136389
1570726952,1.4879913,10.763138,0.73501587,-0.26490784,-0.46028137,-0.5498657,2.2174237,1.646637,-0.6136389
1570726952,-0.13407898,13.737335,-0.27233887,-0.4864807,-0.9460449,-0.2111206,0.057022005,4.2153816,-2.1308665
1570726952,0.6500244,15.963333,0.89123535,-0.48754883,-0.58384705,-0.14613342,0.92566955,7.086075,-0.90939677
1570726952,-1.398819,11.382034,-0.30047607,1.6152802,-0.093826294,0.26611328,-0.49354762,3.0431051,-1.3577818
1570726952,-1.8040314,11.058823,-0.65122986,1.6238098,-0.105545044,0.3108673,-1.4993742,2.1925583,-1.772829
1570726952,-2.127243,10.071808,-1.2066803,1.6696167,-0.85549927,0.17131042,-2.1177654,1.1027231,-2.0679212
1570726952,-1.0582428,10.67276,0.952301,2.1937256,-1.109024,-0.23135376,-1.069916,1.5434914,0.35817063
1570726952,-1.043869,10.895416,2.2116394,2.807312,-0.24615479,-0.2579956,-1.1436288,1.7518969,2.401909
1570726952,0.6961212,10.71225,2.9083557,2.1894531,0.57089233,0.2948761,-0.12268905,1.0669556,3.2542415
1570726952,0.22445679,8.69574,-0.11671448,1.7260742,1.2931519,0.68370056,0.48437905,0.099476814,2.2218635
1570726952,1.2749176,9.642654,-0.61231995,2.0200806,0.5879364,1.5167389,1.057363,0.98800755,2.084001
1570726952,1.1833344,9.675568,-0.37409973,2.1511078,0.3802185,1.5305939,1.057363,0.98800755,2.084001
1570726952,0.7296295,7.0078278,-0.39863586,2.3876038,-0.9226074,1.883194,-0.3908069,-0.8570652,4.12131
1570726952,0.7296295,7.0078278,-0.39863586,2.3876038,-0.9226074,1.883194,-0.3908069,-0.8570652,4.12131
1570726952,0.6787567,7.467514,-0.90560913,2.2395325,-1.2645569,1.886383,-0.66045654,-0.37634373,3.9129434
1570726952,2.1320343,4.158127,-1.2348022,1.9529724,-2.8027954,1.3462982,0.6049509,-2.0886412,4.143
1570726952,-1.1037292,0.292099,-2.9346924,0.71939087,-2.1945343,0.7454834,-2.4026525,-6.215453,3.1845741
1570726952,-1.1037292,0.292099,-2.9346924,0.71939087,-2.1945343,0.7454834,-2.4026525,-6.215453,3.1845741
1570726953,-1.4359283,0.8601227,-3.573944,-1.3589325,-0.38357544,0.3343048,-2.517964,-5.8106027,2.4727945
1570726953,-1.7238312,0.93792725,-4.4573975,-1.8425598,0.112838745,0.23202515,-2.7474303,-5.951033,1.5019622
1570726953,-3.0256653,4.4454346,-5.747284,-2.5658875,1.6500092,-0.4113922,-3.8226845,-3.5188322,-0.48559427
1570726953,-0.12390137,19.599533,0.47584534,-2.240982,2.4020844,-1.3690643,-0.2714032,11.844467,4.8827763
1570726953,-1.9159546,18.073227,-2.1416168,-1.9096832,2.3616028,-1.4798431,-2.616215,10.9767475,3.2081194
1570726953,0.7086792,4.831497,-1.8153992,-1.6252594,2.2305756,-1.252945,-0.71079993,-3.3420744,2.0491972
1570726953,0.91877747,4.8015747,-2.0919342,-1.6529541,2.203949,-1.2689209,-0.470232,-3.5377645,1.2925887
1570726953,1.8190002,8.860947,-0.56144714,-2.2771912,1.8343048,-1.682251,0.5978689,-0.7316637,0.94695306
1570726953,0.98101807,11.760315,-0.6542206,-0.5557251,-0.12472534,-1.3733215,-0.34571922,3.200924,1.9609376
1570726953,1.6478119,11.668137,-1.3365631,-0.5045929,-0.31114197,-1.33284,-0.34571922,3.200924,1.9609376
1570726953,2.4007874,10.562622,-1.5915527,-0.62283325,-1.650177,-1.3381653,2.7803655,2.0647526,-1.039169
1570726953,1.9285278,8.741226,-0.7523804,-0.7549286,-2.6131744,-1.1261749,2.7445881,0.11084747,0.15362287
1570726953,0.80145264,8.030151,-0.22685242,-1.0521393,-2.5673676,-0.7821045,1.7159871,-0.7722893,-0.033626556
1570726953,1.960846,8.213913,1.3144226,-0.9008789,-2.2818756,-0.37409973,2.85676,-0.5959425,1.0385511
1570726953,0.5027771,6.320694,2.5887299,-0.8113861,-0.963089,0.53456116,2.2439716,-2.2633953,1.333084
1570726953,2.5665894,6.250061,3.6780853,-1.0894318,1.948288,1.3335114,3.438669,-2.585452,3.9145992
1570726953,-0.31004333,6.218338,-2.3056183,-2.1717377,2.732315,2.0483093,1.0668739,-2.8059053,-3.350121
1570726953,-3.8355103,10.27652,0.21368408,-1.4729156,1.7693176,1.6925049,-3.6625173,0.7737665,-1.2747117
1570726953,-2.5779572,9.490021,-0.878067,-0.34480286,0.27474976,-0.6340332,-3.3293788,1.2938404,-2.4981833
1570726953,2.873642,8.219894,2.4378967,-0.7506714,-0.02458191,-0.48168945,2.6920106,-0.43657112,0.35995746
1570726953,2.0290833,9.563644,2.2547455,-0.6271057,0.42707825,-0.45399475,2.5345485,0.56221867,0.79883194
1570726953,0.5398865,12.45105,0.46028137,-0.3096466,-0.5721283,-0.5605316,1.0620515,3.3753757,-1.1590493
1570726953,1.6921082,14.882355,0.038909912,-0.19673157,-1.1335297,-0.44654846,1.7944415,5.6568327,-2.0998092
1570726953,1.4897919,14.868591,-0.06643677,0.24961853,-0.9183502,-0.047073364,2.1777997,6.6724586,-2.0546708
1570726953,-0.9941864,11.886017,-0.30107117,1.3755951,-0.8011627,0.35240173,-0.23755041,3.4683151,-1.9046693
1570726953,-1.6322479,10.481216,1.036087,1.8879852,-1.3220825,-0.1365509,-1.4046135,1.4908352,0.022830188
1570726953,-1.6322479,10.481216,1.036087,1.8879852,-1.3220825,-0.1365509,-1.4046135,1.4908352,0.022830188
1570726953,-1.0265198,11.240173,2.8951874,2.663498,0.13414001,-0.091812134,-1.1496328,2.1749344,2.8071754
1570726953,-1.0265198,11.240173,2.8951874,2.663498,0.13414001,-0.091812134,-1.1496328,2.1749344,2.8071754
1570726953,-0.65242004,9.163803,-0.084991455,1.787857,2.0068665,0.5665283,-0.6743031,0.52932644,1.870164
1570726953,0.2639618,8.981247,-0.5087738,1.7590942,1.965332,0.5590668,-0.24189425,0.042386055,1.0552475
1570726953,1.5711975,9.125504,0.24659729,1.6738739,0.2353363,1.3079529,0.96268594,0.08188915,0.016373873
1570726953,2.5013428,9.200317,2.9753876,2.3843994,-0.3729248,1.5966339,1.997571,0.57587147,5.827245
1570726954,-0.5051727,6.9593506,-1.0738068,2.5878754,-0.55615234,1.9439087,-1.5851686,-1.0300798,2.426141
1570726954,0.794281,7.268799,-1.051651,2.32901,-1.3263397,2.0738678,-1.2968028,-1.0963669,1.9473808
1570726954,1.9027863,6.8168945,-0.6787567,2.217163,-1.7918549,1.9556274,0.099916816,-0.72398186,3.789463
1570726954,0.4698639,1.8620911,-1.2425842,1.8379211,-2.9359589,0.78489685,-0.5017767,-4.7221413,4.3203216
1570726954,-0.23703003,0.65182495,-1.5741882,1.3798523,-2.7367554,0.5153961,-1.3663315,-5.729592,3.9630527
1570726954,-2.2780762,-0.35194397,-3.3063965,-0.29899597,-1.171875,0.2362976,-3.3141775,-7.164407,2.9087057
1570726954,-2.94487,6.6463013,-5.885544,-2.3933105,1.2217712,-0.1322937,-4.729946,-2.4879446,0.4702096
1570726954,-2.94487,6.6463013,-5.885544,-2.3933105,1.2217712,-0.1322937,-4.729946,-2.4879446,0.4702096
1570726954,-2.513916,18.418,-5.9436035,-1.9118042,2.2668,-1.1027374,-3.7940838,10.248776,0.3480115
1570726954,-2.513916,18.418,-5.9436035,-1.9118042,2.2668,-1.1027374,-3.7940838,10.248776,0.3480115
1570726954,-0.5973511,6.0501404,0.27114868,-1.5038147,2.0015411,-1.1773071,-1.6991888,-1.049613,4.035939
1570726954,0.90141296,11.1970825,1.1414337,-2.3315277,2.8654785,-2.0114136,0.31483674,1.270752,2.9122798
1570726954,0.90141296,11.1970825,1.1414337,-2.3315277,2.8654785,-2.0114136,0.31483674,1.270752,2.9122798
1570726954,-5.5994415,15.3276825,3.7499237,-0.79434204,1.297409,-2.0753326,-4.206703,6.352907,7.4210663
1570726954,2.5097198,13.605057,-4.72316,-0.69207764,-1.6714783,-1.4691925,2.3777392,5.3658857,-3.6502306
1570726954,0.873291,8.823227,1.9913788,-1.2172546,-2.0177002,-0.7821045,2.3802552,0.13495827,2.7521896
1570726954,0.5087738,8.652054,1.9207458,-1.1895599,-1.9207611,-0.7394867,2.3802552,0.13495827,2.7521896
1570726954,-0.09875488,8.023575,0.31962585,-0.9828949,-1.2134247,-0.32617188,0.919973,-0.806015,0.749686
1570726954,2.4414825,6.937805,1.1486206,-0.86572266,-0.5412445,0.10845947,2.900701,-1.8475513,0.70225435
1570726954,2.795227,5.2361145,3.36026,-1.1863708,1.6201782,1.0917053,3.9467742,-3.416298,2.7577057
1570726954,2.795227,5.2361145,3.36026,-1.1863708,1.6201782,1.0917053,3.9467742,-3.416298,2.7577057
1570726954,-3.3040009,10.560226,-2.3373413,-1.2683868,1.0470734,1.1726532,-3.4992201,0.5206156,-3.9110456
1570726954,-3.3040009,10.560226,-2.3373413,-1.2683868,1.0470734,1.1726532,-3.4992201,0.5206156,-3.9110456
1570726954,-2.3115997,9.856323,-1.0247192,-0.18821716,-0.039505005,-0.758667,-2.9262376,1.3637266,-2.9324336
1570726954,2.8125916,8.211517,1.7752991,-0.35438538,0.08407593,-0.63508606,2.5553527,-0.33239365,-0.35740757
1570726954,2.2092438,10.660187,3.383606,-0.6217804,0.073410034,-0.61698914,3.072781,1.5952997,1.3165127
1570726954,1.5179291,11.235397,3.9318848,-0.5844879,-0.27812195,-0.5818329,2.1154704,2.4436598,2.1783826
1570726954,-1.8411407,16.518799,-0.12928772,-1.0020752,-1.460556,-0.23988342,-1.1359813,7.326458,-2.7670197
1570726954,-1.8411407,16.518799,-0.12928772,-1.0020752,-1.460556,-0.23988342,-1.1359813,7.326458,-2.7670197
1570726954,-0.91877747,12.253525,0.57281494,1.7527008,-1.4360657,-0.6329651,-0.25326675,3.7176466,-1.4823351
1570726954,-0.91877747,12.253525,0.57281494,1.7527008,-1.4360657,-0.6329651,-0.25326675,3.7176466,-1.4823351
1570726954,0.5381012,10.399216,-0.06285095,2.2714844,-1.999588,-0.8129883,1.1280179,1.3316059,-1.0455296
1570726954,0.43933105,10.65419,-1.3467407,2.5079803,-2.3894806,-0.82577515,1.153834,1.5692778,-2.1558342
1570726954,0.82180786,10.848724,1.0187378,2.724228,-2.269104,-0.569046,1.5760437,1.8892212,-0.63061106
1570726955,2.0147247,9.286514,1.4083862,2.5591125,0.13414001,-0.1088562,3.1316578,0.9113951,2.0339274
1570726955,1.4437103,6.147705,1.411377,2.155365,0.64227295,0.25013733,2.1685658,-2.6737108,2.8091521
1570726955,1.3700867,5.7269287,1.4784241,1.9614868,0.17355347,0.15319824,2.262177,-2.91185,2.7199953
1570726955,1.8387451,4.3891754,0.6871338,0.9665375,-3.8861694,0.09248352,2.7156057,-4.423395,2.9099147
1570726955,1.8387451,4.3891754,0.6871338,0.9665375,-3.8861694,0.09248352,2.7156057,-4.423395,2.9099147
1570726955,3.8528748,7.435791,0.94810486,-0.67503357,-3.447281,0.23202515,5.4982595,-1.4486599,1.910872
1570726955,1.5741882,8.494034,1.7765045,-0.09020996,0.45265198,1.9513702,2.279065,-0.5032444,3.474944
1570726955,0.017364502,10.575195,0.12928772,0.123916626,-0.3260498,1.564682,0.7641214,1.733077,2.1657395
1570726955,-2.6677399,7.3932953,1.0241241,0.511673,-2.3223572,1.1289825,-3.1329935,-0.9081192,2.5093882
1570726955,-2.6725311,7.300522,1.3090363,0.47758484,-2.2445984,1.1087494,-2.8062139,-1.22363,2.8098168
1570726955,-1.9871826,6.748062,-1.7136536,0.10687256,-1.8685608,0.8424225,-2.3349023,-1.684453,0.46427763
1570726955,-1.9871826,6.748062,-1.7136536,0.10687256,-1.8685608,0.8424225,-2.3349023,-1.684453,0.46427763
1570726955,0.32081604,7.859558,-2.9358826,-0.19993591,-1.3870544,0.49195862,-0.48060554,-1.2926998,-0.5178528
1570726955,0.32081604,7.859558,-2.9358826,-0.19993591,-1.3870544,0.49195862,-0.48060554,-1.2926998,-0.5178528
1570726955,2.881424,10.313019,-4.645355,-0.1796875,-1.4914551,0.20220947,1.8389926,1.3752699,-2.3022914
1570726955,3.8588562,10.764923,-3.6625366,0.31991577,-2.1061096,0.04774475,3.6159458,2.4249058,-1.0316043
1570726955,0.38426208,8.923187,-3.0705566,0.2794342,-1.6736145,0.70713806,0.30358517,0.3877926,-1.047662
1570726955,0.38426208,8.923187,-3.0705566,0.2794342,-1.6736145,0.70713806,0.30358517,0.3877926,-1.047662
1570726955,0.6081238,7.665634,-2.5282745,-0.6633148,-1.2901154,0.42378235,-0.37374324,-1.3469601,-1.0423753
1570726955,0.6081238,7.665634,-2.5282745,-0.6633148,-1.2901154,0.42378235,-0.37374324,-1.3469601,-1.0423753
1570726955,-9.278137,19.320602,-4.9428253,-0.9062042,1.9919586,-1.1996765,-6.8295903,10.854003,-0.7980815
1570726955,-9.278137,19.320602,-4.9428253,-0.9062042,1.9919586,-1.1996765,-6.8295903,10.854003,-0.7980815
1570726955,-1.351532,4.7901917,2.9011688,0.46266174,0.92562866,0.35986328,-2.541108,-3.6499786,3.6506743
1570726955,0.0018005371,5.027817,3.5308533,0.21765137,2.4159393,-0.8705139,-0.38233018,-4.139599,5.7178154
1570726955,-1.0223236,11.2838745,1.3467407,1.1881104,-0.2898407,-0.32510376,-1.3933972,2.476121,4.1763844
1570726955,-1.0223236,11.2838745,1.3467407,1.1881104,-0.2898407,-0.32510376,-1.3933972,2.476121,4.1763844
1570726955,7.166443,10.275909,-5.4617767,-2.0417786,-4.933319,-0.42416382,7.321347,1.8362169,-4.9684753
1570726955,7.166443,10.275909,-5.4617767,-2.0417786,-4.933319,-0.42416382,7.321347,1.8362169,-4.9684753
1570726955,1.4832153,6.743866,4.8602295,-2.8897247,-1.5756073,0.09248352,2.5462286,-2.1401873,6.372184
1570726955,-1.2036896,7.316086,-0.089782715,-0.857193,0.7828827,0.77319336,-0.34652966,-1.6322966,1.8979468
1570726955,1.3760681,9.292496,-4.2473145,0.2240448,-1.5979767,0.75720215,1.1892757,0.2197113,-3.8583515
1570726955,1.4610596,9.025543,0.7296295,0.3912964,-3.7881622,0.26078796,1.90215,0.3757887,1.1733441
1570726955,3.4332886,8.971069,0.38845825,-0.68463135,-2.347931,0.77319336,3.5050886,0.13146687,1.1650374
1570726956,-0.59376526,8.6358795,4.3179474,-0.7464142,-0.66267395,1.328186,-0.5352759,-0.48095036,6.110988
1570726956,-1.525711,8.891464,1.4850006,-0.8071289,-0.14389038,1.3068848,-1.0447346,-0.19555855,3.7804
1570726956,-0.9911957,8.216904,0.957077,-1.0542755,-1.8291473,-0.04812622,-2.1449847,-0.62755394,0.35850447
1570726956,-0.075424194,8.143875,1.2892761,-1.0074005,-1.6906586,-0.054519653,-1.1753217,-0.6364641,0.52683544
1570726956,3.040039,9.385269,4.9320526,-1.046814,0.08833313,-0.503006,2.803704,0.35229015,3.7072248
1570726956,3.040039,9.385269,4.9320526,-1.046814,0.08833313,-0.503006,2.803704,0.35229015,3.7072248
1570726956,3.0561981,10.500366,3.838501,-1.2417603,-0.14389038,-0.38156128,2.8745804,1.5521574,3.2051437
1570726956,4.115631,10.175949,2.2565308,-1.3376312,-0.40168762,-0.37730408,3.5503516,1.6949606,0.8481668
1570726956,3.8007965,11.079163,1.537674,-1.0872955,-1.4371338,-0.5583954,4.0205426,2.118659,-0.7836387
1570726956,3.97258,13.31955,3.9833527,0.31246948,-1.9292755,-0.90885925,3.6840596,4.047676,1.2370331
1570726956,3.97258,13.31955,3.9833527,0.31246948,-1.9292755,-0.90885925,3.6840596,4.047676,1.2370331
1570726956,0.8421631,13.275848,0.15441895,1.165741,-1.9836121,-0.18554688,0.63980883,5.0294065,-1.7044175
1570726956,0.8421631,13.275848,0.15441895,1.165741,-1.9836121,-0.18554688,0.63980883,5.0294065,-1.7044175
1570726956,3.4925385,10.429138,3.2393494,2.5122375,-2.813446,-0.36238098,3.362505,2.2531824,1.9909886
1570726956,2.1056976,8.862137,3.6397858,2.8648376,-1.8163605,0.25546265,1.6185938,-0.39309597,3.581507
1570726956,3.0328522,10.838547,0.85113525,2.026474,-1.0834656,-0.028961182,1.8836159,1.9865818,2.0831962
1570726956,3.0328522,10.838547,0.85113525,2.026474,-1.0834656,-0.028961182,1.8836159,1.9865818,2.0831962
1570726956,3.633194,9.3511505,2.8909912,2.3172913,-0.5859833,0.5132599,3.383266,0.6072216,5.302566
1570726956,3.4763794,9.212296,2.4516602,2.3545685,-0.49223328,0.57185364,3.383266,0.6072216,5.302566
1570726956,1.0636292,10.31662,0.11730957,1.5918427,0.1565094,1.3100739,0.21334428,1.3989601,4.011732
1570726956,1.0636292,10.31662,0.11730957,1.5918427,0.1565094,1.3100739,0.21334428,1.3989601,4.011732
1570726956,2.8305511,10.987595,-1.1534119,2.4632263,-2.7782898,2.6192932,1.2696807,2.921421,1.9950349
1570726956,2.4055786,10.893021,-0.7260437,2.5101013,-2.9039917,2.5894623,1.2696807,2.921421,1.9950349
1570726956,-0.38606262,6.5289917,0.4632721,1.5279236,-2.3575134,2.2613678,-2.625759,-0.7309313,5.175237
1570726956,-0.44172668,6.3194885,0.3537445,1.4959717,-2.3607178,2.2091675,-2.625759,-0.7309313,5.175237
1570726956,0.04788208,3.288437,-1.8602905,0.9910431,-2.9380798,1.5263214,-1.8887984,-3.004952,4.298834
1570726956,0.05986023,3.288437,-1.8602905,0.9910431,-2.9380798,1.5263214,-1.8887984,-3.004952,4.298834
1570726956,1.2108612,2.0847473,-4.2084045,-0.4864807,-2.2243652,1.1321869,-0.43896794,-4.2051735,1.7838554
1570726956,1.2108612,2.0847473,-4.2084045,-0.4864807,-2.2243652,1.1321869,-0.43896794,-4.2051735,1.7838554
1570726956,-2.011734,1.7854767,1.2653351,-2.2335205,0.3141632,0.2959442,-2.275035,-4.872013,5.535972
1570726956,-4.3616333,8.306686,-8.79689,-3.6631012,0.92137146,0.20646667,-6.874073,-1.6588411,-1.6879506
1570726956,-1.9045868,19.612701,-5.5168457,-2.5797272,3.1243286,-0.92271423,-3.3078842,11.771313,-1.7553794
1570726956,-1.9045868,19.612701,-5.5168457,-2.5797272,3.1243286,-0.92271423,-3.3078842,11.771313,-1.7553794
1570726957,1.4574738,6.3224945,0.4159851,-1.3610687,1.758667,-1.2912903,0.09786856,-2.3675852,3.1957624
1570726957,1.4574738,6.3224945,0.4159851,-1.3610687,1.758667,-1.2912903,0.09786856,-2.3675852,3.1957624
1570726957,-2.039856,11.112686,1.9177551,-1.1075287,0.74346924,-2.319275,-2.7033,2.144291,3.8935606
1570726957,0.87568665,11.625046,-1.0971375,-0.83270264,-3.547409,-1.429779,0.63032824,3.8271046,0.4065957
1570726957,0.87568665,11.625046,-1.0971375,-0.83270264,-3.547409,-1.429779,0.63032824,3.8271046,0.4065957
1570726957,1.5388794,8.501816,1.383255,-1.4356384,-3.0275726,-0.62231445,1.8949854,0.06534672,2.7161603
1570726957,0.9750366,7.6596527,2.2559357,-1.3536072,-1.9953308,-0.24307251,1.6585292,-0.95154667,3.5918012
1570726957,1.4610596,8.373718,1.6047211,-0.8209839,-1.0525665,0.15533447,1.7832152,-0.63587666,3.044031
1570726957,1.1761475,8.333618,-0.9816284,-1.4409637,1.4326935,0.9042206,2.0765066,-0.18240929,0.92743933
1570726957,1.1761475,8.333618,-0.9816284,-1.4409637,1.4326935,0.9042206,1.7029369,-0.4360714,0.19888055
1570726957,-0.7044983,10.94809,-1.3078308,-2.036438,2.36586,1.3771973,-0.97312677,0.6173334,-0.638708
1570726957,-0.7044983,10.94809,-1.3078308,-2.036438,2.36586,1.3771973,-0.97312677,0.6173334,-0.638708
1570726957,0.40582275,8.951324,-1.1773529,0.013122559,0.042526245,-0.805542,-0.3289265,0.5401039,-2.0300074
1570726957,0.40582275,8.951324,-1.1773529,0.013122559,0.042526245,-0.805542,-0.3289265,0.5401039,-2.0300074
1570726957,3.1729126,9.683945,0.3256073,-0.29473877,-0.4656067,-0.6414795,3.1710503,0.60827065,-0.5520165
1570726957,1.9698334,9.877884,-0.54766846,-0.025222778,-0.87680054,-0.44760132,2.3868139,1.0315475,-1.282748
1570726957,1.2090759,13.036423,-0.91996765,-0.2542572,-1.0941162,-0.12376404,1.5136325,3.369176,-1.9935141
1570726957,-1.0247192,11.844711,-0.8846588,1.834732,-0.9950409,0.45361328,-0.82183975,3.1925297,-1.3109264
1570726957,-1.7776947,12.031464,-2.205658,2.1745453,-1.3050385,0.500473,-1.5146477,2.8805218,-2.4613667
1570726957,-2.9987335,11.490967,-0.046691895,2.2224884,-1.3103638,0.22457886,-3.196838,2.8155031,-0.8182309
1570726957,1.0845795,10.742783,2.360077,2.6624298,1.9802399,8.69751E-4,1.0760963,1.8928986,3.5675693
1570726957,0.90200806,10.45488,2.019516,2.6230164,2.0654602,-0.0055236816,1.0760963,1.8928986,3.5675693
1570726957,2.260727,7.428009,0.11791992,1.3265991,-0.15028381,0.86053467,1.2499584,-1.3837738,1.5100436
1570726957,2.260727,7.428009,0.11791992,1.3265991,-0.15028381,0.86053467,1.2499584,-1.3837738,1.5100436
1570726957,-2.024292,8.385696,-1.7292175,2.583603,-1.4520416,1.6158142,-3.1196334,0.07539272,1.5602646
1570726957,-2.024292,8.385696,-1.7292175,2.583603,-1.4520416,1.6158142,-3.1196334,0.07539272,1.5602646
1570726957,-0.14724731,5.811325,-1.4257507,1.8187408,-0.9353943,1.9119568,-1.631971,-1.8205142,3.38233
1570726957,-0.14724731,5.811325,-1.4257507,1.8187408,-0.9353943,1.9119568,-1.631971,-1.8205142,3.38233
1570726957,0.8457489,5.7287292,-2.032074,1.4863892,-0.93644714,1.9034271,-1.3372761,-1.6147056,2.8452692
1570726957,1.2120667,4.0228577,-2.2858582,1.1721344,-1.8216858,0.9606781,-0.3465271,-2.2267346,3.6442642
1570726957,1.2120667,4.0228577,-2.2858582,1.1721344,-1.8216858,0.9606781,-0.3465271,-2.2267346,3.6442642
1570726957,-0.35134888,2.0063477,-3.624817,-0.43641663,-0.9439087,0.36412048,-2.3561764,-4.552971,2.374958
1570726957,-0.15681458,2.3110046,-3.941452,-0.7698517,-0.5540161,0.2086029,-2.2077975,-4.4088745,1.9693141
1570726958,-2.261917,6.9671326,-3.2477417,-1.9778595,1.6500092,-0.77464294,-3.7074451,-0.59521055,1.7117295
1570726958,-2.3271637,8.854355,-4.6818542,-2.3123474,1.6329651,-0.80766296,-4.6426964,0.8346386,0.7558608
1570726958,1.0582428,13.99231,-2.198471,-2.7757416,2.1368408,-1.3711853,-2.0224667,4.866892,0.17198372
1570726958,0.66978455,5.972931,-0.4794464,-1.1778412,2.0249786,-1.2050171,-1.1213863,-1.683445,2.517894
1570726958,0.66978455,5.972931,-0.4794464,-1.1778412,2.0249786,-1.2050171,-1.1213863,-1.683445,2.517894
1570726958,2.126648,8.476669,0.54766846,-2.080124,2.363739,-1.5831757,0.4263966,-0.877264,1.8230207
1570726958,0.7727356,11.343735,2.9813843,-2.0620117,2.7866516,-2.1264648,0.2979282,2.1640663,4.051283
1570726958,3.9294891,13.869614,-2.573761,-0.64094543,-1.2901154,-1.6641388,2.814455,5.0999603,-0.98790944
1570726958,3.9294891,13.869614,-2.573761,-0.64094543,-1.2901154,-1.6641388,2.814455,5.0999603,-0.98790944
1570726958,2.5791473,7.530365,0.6081238,-1.4047394,-2.2296906,-1.0111389,3.1447845,-1.0205736,0.97798705
1570726958,2.5791473,7.530365,0.6081238,-1.4047394,-2.2296906,-1.0111389,3.1447845,-1.0205736,0.97798705
1570726958,1.7920532,6.6834106,0.8200073,-0.88916016,-1.1260681,-0.05239868,2.5756164,-2.2943125,1.2733405
1570726958,0.45729065,7.123352,1.7639313,-0.5418854,1.3911438,1.0022125,0.102714896,-1.8662767,2.3426433
1570726958,0.45729065,7.123352,1.7639313,-0.5418854,1.3911438,1.0022125,0.102714896,-1.8662767,2.3426433
1570726958,-1.6603851,7.9876556,-0.4219818,-1.5272522,3.732605,1.5455017,-1.9446915,-1.5601435,-0.44676983
1570726958,-1.6914978,8.383301,-1.2336121,-1.5549469,3.702774,1.4890442,-1.9446915,-1.5601435,-0.44676983
1570726958,-1.0426788,8.939346,0.8062439,-0.37677002,-0.01713562,-0.6468048,-1.9596723,0.58142185,-0.86139953
1570726958,4.522644,7.8930817,2.143402,-0.5312195,-0.5721283,-0.8193817,3.4773018,-0.9696436,0.28680575
1570726958,3.8061829,8.829819,1.2856903,-0.59194946,-0.4112854,-0.77890015,4.3198166,-0.2542057,-0.022328377
1570726958,2.15419,10.213669,0.7463989,-0.5610504,-0.37825012,-0.6670532,2.7065601,1.2716398,-0.82611036
1570726958,0.75057983,14.29039,1.3156128,-0.63243103,-0.41340637,-0.313385,0.6957884,4.6897135,-0.85716116
1570726958,-0.20111084,15.273209,1.6831207,0.0791626,-0.67652893,-0.13334656,0.12908053,6.8958254,-0.15189779
1570726958,-0.8523407,13.6792755,0.90859985,1.0027618,-0.90982056,0.12124634,-0.6666421,5.1455336,-0.868847
1570726958,-0.878067,10.7026825,-2.1404114,1.693039,-1.6075745,0.20753479,-0.86652046,1.9804525,-3.1999283
1570726958,-0.878067,10.7026825,-2.1404114,1.693039,-1.6075745,0.20753479,-0.86652046,1.9804525,-3.1999283
1570726958,-0.12269592,11.478409,2.755127,2.2256775,-1.0131531,0.15533447,-0.40718436,2.355442,1.4344245
1570726958,2.040451,11.372452,1.9572601,2.4334106,1.313385,0.69862366,1.796227,2.5279741,3.8393068
1570726958,2.040451,11.372452,1.9572601,2.4334106,1.313385,0.69862366,1.796227,2.5279741,3.8393068
1570726958,-0.723053,7.276581,-0.4812317,1.6866608,0.9512024,1.3952942,-1.330411,-1.5918283,2.4682798
1570726958,-0.723053,7.276581,-0.4812317,1.6866608,0.9512024,1.3952942,-1.330411,-1.5918283,2.4682798
1570726958,1.1186981,7.1042023,-1.0971375,2.5995789,-1.0791931,1.7500305,-0.5493803,-0.98344135,2.1809592
1570726958,1.1186981,7.1042023,-1.0971375,2.5995789,-1.0791931,1.7500305,-0.5493803,-0.98344135,2.1809592
1570726958,0.7954712,6.7534485,-1.0157471,1.9433899,-1.5798798,1.8640137,-1.7835817,-0.9494448,3.6241827
1570726958,0.7954712,6.7534485,-1.0157471,1.9433899,-1.5798798,1.8640137,-1.7835817,-0.9494448,3.6241827
1570726959,2.7335815,4.8991394,-0.85772705,1.6323242,-2.4395447,1.2451019,0.32004046,-1.7032228,3.7845974
1570726959,-0.95947266,1.3215942,-1.8315582,0.27731323,-1.6629639,0.18409729,-2.6903067,-5.148032,3.558446
1570726959,-1.0839691,1.2790985,-1.8662872,0.18888855,-1.5862579,0.15852356,-2.8526597,-5.345413,3.6107593
1570726959,-2.198471,2.8455048,-2.8173828,-2.3123474,1.202591,-0.49554443,-3.582512,-4.7499695,1.9705715
1570726959,-2.198471,2.8455048,-2.8173828,-2.3123474,1.202591,-0.49554443,-3.582512,-4.7499695,1.9705715
1570726959,0.17118835,12.083542,-16.152481,-2.2335205,1.6617279,-0.22709656,-4.57972,1.2380948,-5.6112723
1570726959,1.3952179,12.864044,-3.0687714,-1.8937073,2.4191284,-1.2284393,-0.7025573,7.7058697,-1.5640299
1570726959,1.3952179,12.864044,-3.0687714,-1.8937073,2.4191284,-1.2284393,-0.7025573,7.7058697,-1.5640299
1570726959,1.2677307,5.4611816,-0.084991455,-1.6476288,2.1304474,-1.1709137,-0.7225847,-2.3182478,2.447603
1570726959,0.06225586,11.881226,3.7732544,-2.54245,2.04628,-2.1850586,-1.11502,1.4523983,2.8801932
1570726959,-0.030532837,12.5563965,4.455017,-2.4529572,2.0761108,-2.223404,-1.11502,1.4523983,2.8801932
1570726959,1.3425446,11.812393,-5.0020905,0.058929443,-0.072525024,-1.3988953,0.80852693,3.2334318,-3.8552191
1570726959,1.5029602,11.812393,-5.0020905,0.058929443,-0.072525024,-1.3988953,0.80852693,3.2334318,-3.8552191
1570726959,0.92774963,8.328827,-0.44532776,-0.51737976,-1.8845367,-1.1134033,0.76890916,-0.36507225,-0.26747093
1570726959,-0.45310974,6.6187744,-0.54408264,-0.9232483,-2.4320831,-0.72032166,0.029824436,-2.285283,-0.5459298
1570726959,0.7451935,7.7344666,2.8676605,-0.28408813,-1.3167572,-0.37942505,1.309151,-1.0447092,2.8791294
1570726959,0.7451935,7.7344666,2.8676605,-0.28408813,-1.3167572,-0.37942505,1.309151,-1.0447092,2.8791294
1570726959,2.3139954,8.061279,1.5227051,-0.0060577393,-0.2472229,-0.2569275,3.6271043,-0.51909924,2.5701666
1570726959,3.4667969,8.687958,0.32800293,-1.9245911,1.9823761,1.3292542,3.3540092,0.06856823,-1.400852
1570726959,3.4667969,8.687958,0.32800293,-1.9245911,1.9823761,1.3292542,3.3540092,0.06856823,-1.400852
1570726959,-0.9870148,10.762543,-1.4604645,-0.9775696,1.7352295,0.88397217,-0.8599046,1.3295603,-2.4676304
1570726959,0.63327026,9.241623,-0.4806366,-0.34268188,-0.13323975,-0.44973755,-0.021700144,0.58075714,-1.7024359
1570726959,0.63327026,9.241623,-0.4806366,-0.34268188,-0.13323975,-0.44973755,-0.021700144,0.58075714,-1.7024359
1570726959,1.9464874,9.999985,0.8882446,-0.22549438,-0.98332214,-0.49768066,1.9035096,1.1317873,-0.90371835
1570726959,0.7775116,11.551422,-1.0348969,0.16651917,-0.81074524,-0.2846222,0.79308087,2.5588799,-2.455511
1570726959,1.7932587,15.472534,-0.3070526,0.18676758,-1.027008,-0.20046997,1.7561957,6.8206835,-2.2215858
1570726959,1.7363892,15.297745,-0.15742493,0.29115295,-1.076004,-0.20365906,1.7561957,6.8206835,-2.2215858
1570726959,2.0021515,13.624207,0.83976746,1.3127441,-1.3124847,-0.09713745,1.9540857,5.330016,-0.9011886
1570726959,-0.57281494,10.344147,-0.008972168,1.897583,-0.56147766,0.420578,-0.46525353,1.807869,-0.48517627
1570726959,-1.5723877,11.566986,-0.96606445,1.9273987,-0.20674133,0.13082886,-1.8863338,2.2344236,-1.5825186
1570726959,-1.5723877,11.566986,-0.96606445,1.9273987,-0.20674133,0.13082886,-1.8863338,2.2344236,-1.5825186
1570726959,-1.4401093,11.820175,1.0474701,2.4515076,0.8638458,0.38009644,-1.7662233,2.8727283,0.21423727
1570726959,0.9618683,10.927734,3.4141388,2.2203522,0.94799805,0.73483276,-0.243747,2.5271769,4.2027273
1570726959,0.88645935,8.543106,-1.1953125,2.0978394,-0.029907227,0.7422943,0.12912923,-0.64663315,1.2539431
1570726960,4.194641,9.84436,1.7346039,1.8794708,0.34506226,1.5455017,2.5223246,1.189107,4.4767566
1570726960,2.7096405,9.493011,-0.8882446,2.4600372,0.02973938,1.5114136,1.9176869,1.1739082,1.9586058
1570726960,-1.4472961,7.001251,-1.4598694,2.2459106,-0.9151459,1.6743927,-3.2202835,-1.0524225,2.2522786
1570726960,0.9421234,5.898117,-1.1911163,1.6003723,-1.1420441,1.8427124,-1.5745735,-1.3785706,3.315116
1570726960,1.1372528,5.843048,-1.7046661,1.5577545,-1.187851,1.8139496,-1.4551833,-1.4823651,3.3071575
1570726960,1.0091553,2.3756409,-1.4706421,1.2541504,-2.3436737,0.8434906,-1.267694,-3.9448462,3.829957
1570726960,-0.17837524,0.88645935,-2.7024536,0.4051361,-1.9484558,0.22564697,-2.3164709,-5.711404,2.9376416
1570726960,-0.17837524,0.88645935,-2.7024536,0.4051361,-1.9484558,0.22564697,-2.3164709,-5.711404,2.9376416
1570726960,-1.0414734,1.2509766,-4.9470215,-1.3621368,-0.5902405,-0.30592346,-2.8832135,-5.603022,1.0987258
1570726960,-2.072174,4.0857086,-6.1483154,-2.163208,1.0129852,-0.72032166,-3.4119377,-3.649251,-0.89760065
1570726960,1.8327637,19.612701,2.992752,-2.4774628,1.7608032,-0.9141998,0.83180237,11.980303,5.1948895
1570726960,1.8327637,19.612701,2.992752,-2.4774628,1.7608032,-0.9141998,0.83180237,11.980303,5.1948895
1570726960,-1.3628998,8.831604,-1.7022705,-1.5847778,2.125122,-1.0569305,-3.2769227,2.1156693,0.78319526
1570726960,0.92655945,5.383362,-2.118866,-1.7680054,2.5618744,-1.4691925,-0.9810941,-3.465806,0.791543
1570726960,1.5155334,8.316254,0.025146484,-2.25589,2.4372406,-1.8058167,0.14958787,-0.66302395,1.9459052
1570726960,1.2503662,13.034637,3.7762604,-2.161087,2.1517487,-2.3054352,0.47133547,3.8803196,3.955381
1570726960,3.6224213,12.861649,-1.8201904,-0.27876282,-0.34629822,-1.5043488,0.4875631,4.9466486,2.305736
1570726960,3.3494873,8.610748,-0.35194397,-0.35333252,-2.1774902,-1.3296509,4.206756,0.1663351,0.18710923
1570726960,2.5210876,7.960129,0.13287354,-0.39486694,-2.2840118,-1.2337646,2.9308357,-0.60332394,0.5881791
1570726960,1.5550385,7.569275,0.89842224,-0.7517395,-2.3958588,-0.19726562,2.0554664,-1.2951031,0.7797415
1570726960,1.5550385,7.569275,0.89842224,-0.7517395,-2.3958588,-0.19726562,2.0554664,-1.2951031,0.7797415
1570726960,0.15742493,7.222107,1.3132172,-0.65159607,-0.9971771,0.54522705,0.7887517,-1.6929045,1.6135145
1570726960,0.97862244,7.9158325,3.3937836,-0.8028717,0.57196045,1.1801147,0.81332314,-1.3001156,2.760945
1570726960,-3.4225159,7.9547424,2.2870636,-0.93496704,1.16745,1.1204681,-3.1309876,-0.7691355,0.6575937
1570726960,-3.4225159,7.9547424,2.2870636,-0.93496704,1.16745,1.1204681,-3.1309876,-0.7691355,0.6575937
1570726960,-1.9494781,10.035889,-0.7882843,-0.1519928,1.1440125,-0.37409973,-2.2981122,1.6743765,-1.6164136
1570726960,2.521698,7.9709015,1.0462646,-0.9328308,-0.26853943,-0.4188385,1.5135713,-0.6989155,-1.1204311
1570726960,3.8013916,8.473679,1.7052765,-0.9104614,9.765625E-4,-0.42311096,3.3833444,-0.4212799,0.46218848
1570726960,2.4163513,10.127472,1.4538727,-0.32136536,0.43347168,-0.62657166,2.5982816,1.2757664,-0.027120471
1570726960,1.3114166,11.029495,0.46447754,-0.458786,-1.089859,-0.4188385,1.435921,1.8958454,-1.3163772
1570726960,1.3114166,11.029495,0.46447754,-0.458786,-1.089859,-0.4188385,1.435921,1.8958454,-1.3163772
1570726960,0.6655884,15.321091,1.8860321,-0.3469391,-0.65415955,-0.14401245,1.0960561,5.3623056,-0.17806566
1570726960,-1.9225464,14.178467,-0.9582825,0.5223236,-1.1260681,0.2863617,-1.5172445,5.8976097,-2.2140498
1570726961,-0.38546753,10.962448,-0.85173035,1.2711945,-1.0003662,-0.45506287,-0.6165473,2.461092,-2.3147025
1570726961,-0.38546753,10.962448,-0.85173035,1.2711945,-1.0003662,-0.45506287,-0.6165473,2.461092,-2.3147025
1570726961,-0.32980347,10.3315735,0.88645935,2.138321,-0.3963623,-0.4859619,-0.12739469,1.4036942,-0.488639
1570726961,-0.51416016,11.368866,-0.13168335,2.8520508,0.29925537,-0.002319336,-0.017181426,2.172495,-1.1210113
1570726961,-1.1372528,7.3035126,1.4000092,2.218216,1.0225677,0.32896423,-1.0101058,-1.4157372,2.9404726
1570726961,-1.1019287,7.2430573,1.2264252,2.1766815,1.0609131,0.3374939,-1.0101058,-1.4157372,2.9404726
1570726961,0.16160583,6.728897,-0.01914978,1.6078186,0.65504456,0.41419983,-0.15868089,-1.9344912,2.0064998
1570726961,3.0980988,7.0623016,1.1258698,1.4533539,0.30776978,0.87013245,2.6263301,-1.9258928,3.3005037
1570726961,3.6661224,8.554489,-0.3040619,2.8616333,-0.44537354,1.2163391,3.3371844,-0.10405731,2.6654956
1570726961,-0.7481842,7.1999664,-2.1882935,2.487732,-1.6267395,1.4357758,-1.333128,-0.73974323,2.3695252
1570726961,-0.54348755,7.9170227,0.96784973,2.0222168,-2.4352875,1.850174,-2.1657004,-0.13117266,4.8010044
1570726961,-0.54348755,7.9170227,0.96784973,2.0222168,-2.4352875,1.850174,-2.1657004,-0.13117266,4.8010044
1570726961,-2.3469238,3.9067383,-2.78685,1.3905182,-2.1050415,1.1183319,-3.086122,-2.601941,2.6917915
1570726961,-2.3469238,3.9067383,-2.78685,1.3905182,-2.1050415,1.1183319,-3.086122,-2.601941,2.6917915
1570726961,-0.37887573,2.8119965,-4.5902863,0.40194702,-1.2507019,0.8413696,-1.3065937,-3.7700877,1.4382095
1570726961,-0.37887573,2.8119965,-4.5902863,0.40194702,-1.2507019,0.8413696,-1.3065937,-3.7700877,1.4382095
1570726961,1.7112579,3.423706,-6.22612,-0.2808838,-1.0142212,0.69862366,0.5992288,-3.1268368,-0.6177645
1570726961,1.7112579,3.423706,-6.22612,-0.2808838,-1.0142212,0.69862366,0.5992288,-3.1268368,-0.6177645
1570726961,0.5680237,3.3171692,-5.4934998,-0.6729126,-0.81181335,0.643219,0.2112807,-3.2531672,0.6164899
1570726961,-1.1683655,8.285736,-6.3033295,-1.046814,-0.3952942,0.5366974,-1.7941308,1.2091136,-3.5803046
1570726961,3.6266174,13.685257,-5.546173,-1.2982178,0.44093323,-0.13548279,2.6195862,6.933412,-3.036387
1570726961,3.6266174,13.685257,-5.546173,-1.2982178,0.44093323,-0.13548279,2.6195862,6.933412,-3.036387
1570726961,-0.029327393,7.625534,-2.4606476,-2.3272552,1.9227142,-0.4412079,-0.8245425,-0.31158638,2.2196002
1570726961,-0.30944824,7.78714,-2.6180573,-2.3709412,2.0335083,-0.49447632,-0.8245425,-0.31158638,2.2196002
1570726961,0.90501404,11.726807,-1.1599884,-2.6372528,2.4649353,-1.2817078,-0.9244158,3.477562,1.8432257
1570726961,0.90501404,11.726807,-1.1599884,-2.6372528,2.4649353,-1.2817078,-0.9244158,3.477562,1.8432257
1570726961,1.4269409,9.017761,2.478592,-1.797821,0.92456055,-2.017807,0.81088567,0.02041626,4.09777
1570726961,1.4269409,9.017761,2.478592,-1.797821,0.92456055,-2.017807,0.81088567,0.02041626,4.09777
1570726961,2.3337555,8.235458,-4.1748962,-0.98609924,-3.0041351,-1.4287109,2.8305075,0.23011589,-4.478797
1570726961,2.3337555,8.235458,-4.1748962,-0.98609924,-3.0041351,-1.4287109,2.8305075,0.23011589,-4.478797
1570726961,2.5629883,6.9479675,-0.5105591,-1.050003,-3.3908234,-0.95254517,3.3269167,-1.7156086,0.22391033
1570726961,-0.0975647,6.1578827,-0.0909729,-1.1235199,-1.5830688,0.06690979,0.8672788,-2.721077,0.3809971
1570726962,-0.14604187,8.14328,-0.21907043,-1.2705231,-0.503952,0.6581421,0.6309401,-0.62586117,-0.39344296
1570726962,-0.14604187,8.14328,-0.21907043,-1.2705231,-0.503952,0.6581421,0.6309401,-0.62586117,-0.39344296
1570726962,0.20770264,8.273758,0.053863525,-1.0319061,-0.40808105,0.50686646,0.6509231,-0.5910692,-0.37553498
1570726962,-0.26515198,8.268372,0.73143005,-0.5610504,-0.6520233,0.34495544,0.07325989,-0.68601704,-2.014637E-5
1570726962,-0.14006042,8.998001,1.327591,-0.23402405,-0.73298645,0.02217102,0.12666976,0.19357204,0.31914294
1570726962,-0.056869507,9.067444,1.4820099,-0.22123718,-0.72340393,0.014724731,0.12666976,0.19357204,0.31914294
1570726962,0.76194763,8.863937,1.7322083,-0.13601685,-0.5071564,-0.09713745,1.0394837,0.13490772,0.96524984
1570726962,0.7254486,8.385086,1.3605042,-0.37677002,-0.31114197,0.06265259,1.0145487,-0.48507118,0.50035655
1570726962,1.1258698,8.488647,1.960846,-0.8316345,0.16183472,0.16065979,1.3088098,-0.28367805,0.75327563
1570726962,1.0384827,8.54071,1.6460114,-0.871048,0.20550537,0.042419434,1.1834178,-0.12314224,0.25552702
1570726962,0.68414307,8.728058,1.7465668,-0.9381561,-0.36227417,-0.082214355,0.791947,0.14180183,-0.43416476
1570726962,0.68414307,8.728058,1.7465668,-0.9381561,-0.36227417,-0.082214355,0.791947,0.14180183,-0.43416476
1570726962,0.28071594,9.003998,2.795227,-0.775177,-0.4197998,-0.14613342,0.49217612,0.28746414,0.7184843
1570726962,-0.08380127,10.800247,1.6490021,-0.5301666,-0.40382385,-0.2707672,0.25289726,1.8682289,-0.121810436
1570726962,0.32681274,10.208878,1.2210388,-0.8667908,-1.2272644,-0.3314972,0.4878638,1.860385,-1.5313692
1570726962,0.32681274,10.208878,1.2210388,-0.8667908,-1.2272644,-0.3314972,0.4878638,1.860385,-1.5313692
1570726962,1.6472168,10.524307,2.198471,-0.6036682,-0.8011627,-0.49554443,1.6310192,1.6649055,-0.6662853
1570726962,2.6569672,11.486786,2.7664948,0.66186523,-0.58277893,-0.7618561,2.8088317,3.2359467,0.14524937
1570726962,4.055771,9.70549,-0.6673889,2.2725525,-2.7282257,-0.13441467,4.5050445,1.48946,-2.0356965
1570726962,4.055771,9.70549,-0.6673889,2.2725525,-2.7282257,-0.13441467,4.5050445,1.48946,-2.0356965
1570726962,-0.20350647,9.121902,5.6718597,2.3641663,-2.446991,0.05519104,-0.4111808,-0.46846867,5.0728154
1570726962,-0.20350647,9.121902,5.6718597,2.3641663,-2.446991,0.05519104,-0.4111808,-0.46846867,5.0728154
1570726962,-2.2601318,11.355698,3.312378,2.4802704,1.8300323,-0.1322937,-2.2270455,2.141757,4.668727
1570726962,1.115097,11.32518,-0.38487244,1.819809,1.6414795,0.17451477,0.804598,2.625535,0.5736998
1570726962,6.8809357,8.458115,4.4771576,1.3340454,-1.9953308,0.85414124,6.518107,-0.02670288,4.69685
1570726962,6.8809357,8.458115,4.4771576,1.3340454,-1.9953308,0.85414124,6.518107,-0.02670288,4.69685
1570726962,4.328125,11.625641,-0.8319855,0.123916626,-1.2155457,2.5947876,3.8872445,2.5190792,0.89634633
1570726962,4.328125,11.625641,-0.8319855,0.123916626,-1.2155457,2.5947876,3.8872445,2.5190792,0.89634633
1570726962,5.173874,10.168777,-0.51116943,0.8248596,-4.9567566,2.7865295,2.9911575,1.9981823,2.2598407
1570726962,5.786194,9.609131,-0.46865845,0.58943176,-5.030258,2.7556458,3.2040951,1.6875238,2.0416768
1570726962,8.538925,9.227249,1.5670013,0.30819702,-4.8257294,2.2283325,6.227618,1.0956125,4.6464815
1570726962,4.3586426,11.170746,3.7229767,0.3209839,-4.674469,1.5209961,2.5927403,2.9155998,7.2894516
1570726962,4.3586426,11.170746,3.7229767,0.3209839,-4.674469,1.5209961,2.5927403,2.9155998,7.2894516
1570726962,-0.9397278,8.777145,0.59317017,0.8035431,-4.2973633,1.2323151,-2.1909103,1.5704432,5.9741144
1570726962,-0.9397278,8.777145,0.59317017,0.8035431,-4.2973633,1.2323151,-2.1909103,1.5704432,5.9741144
1570726963,-1.1420288,7.337631,-2.5001526,0.45414734,-4.1279907,1.3633423,-2.8113575,0.10438299,2.6162295
1570726963,0.53689575,6.6145782,-3.0657806,0.17398071,-3.4845734,1.5657501,-1.0068914,-0.40030527,2.167767
1570726963,1.735199,5.032608,-2.5887299,-0.06037903,-2.9018707,1.3825226,0.6450739,-1.9748211,2.5811973
1570726963,2.8018188,4.2275543,-4.5962677,-0.64627075,-2.5940094,0.6378937,2.0045395,-3.0147157,0.5227742
1570726963,2.8018188,4.2275543,-4.5962677,-0.64627075,-2.5940094,0.6378937,2.0045395,-3.0147157,0.5227742
1570726963,2.9736023,4.660309,-4.091095,-1.0596008,-2.4714966,0.5132599,2.69885,-2.9479666,0.94638824
1570726963,3.0807343,9.575012,-3.75531,-1.3546753,-1.617157,0.62831116,2.6017861,-0.79192543,0.8158455
1570726963,-4.3861847,19.612701,-0.53570557,-1.3227234,-0.070388794,0.021102905,-2.0520554,11.891926,4.531144
1570726963,-5.420471,0.423172,-4.423889,-0.32136536,-1.0770721,0.8530884,-6.0345407,-5.7155967,1.7864599
1570726963,0.41299438,8.605957,4.320938,-2.511551,3.1264648,-1.1943512,0.22225311,0.012499809,7.913376
1570726963,0.41299438,8.605957,4.320938,-2.511551,3.1264648,-1.1943512,0.22225311,0.012499809,7.913376
1570726963,-1.6112976,13.961792,5.668869,-2.2367096,1.6777039,-1.2401581,-2.685064,3.2054281,6.34657
1570726963,6.613983,9.953293,-4.1413727,-0.332016,-0.07998657,-0.4571991,7.3221908,1.7743778,-2.4916391
1570726963,6.613983,9.953293,-4.1413727,-0.332016,-0.07998657,-0.4571991,7.3221908,1.7743778,-2.4916391
1570726963,0.44172668,8.304291,-1.4095917,0.1643982,-1.2421875,-0.47636414,1.8175819,-0.1474266,0.12294531
1570726963,-0.6506195,8.50061,0.6326752,-0.112579346,-1.9143677,-0.22816467,-0.4474185,-0.25378036,2.249492
1570726963,1.1294708,9.686935,0.8559265,-0.5280304,-1.41156,-0.52749634,1.5777351,0.92048645,2.436553
1570726963,1.1294708,9.686935,0.8559265,-0.5280304,-1.41156,-0.52749634,1.5777351,0.92048645,2.436553
1570726963,1.2575531,9.23204,0.008377075,-0.26490784,-1.5617676,-0.23348999,1.6251878,0.5950031,1.4370115
1570726963,1.0815735,8.968079,-1.6945038,-0.22869873,-1.9463196,0.030700684,2.1641023,0.24070168,-0.1771009
1570726963,2.0189056,8.111557,1.498764,-0.83270264,-1.5298004,0.9319153,2.6289823,-0.19304657,2.1391532
1570726963,1.4496918,8.3797,-0.6542206,-1.6092682,5.2591248,1.8991699,1.803786,-0.89250565,1.682347
1570726963,1.4496918,8.3797,-0.6542206,-1.6092682,5.2591248,1.8991699,1.803786,-0.89250565,1.682347
1570726963,-0.61650085,9.847351,0.40283203,-1.7253876,-1.2698822,0.54841614,-2.2428365,1.073617,-2.0884197
1570726963,-0.61650085,9.847351,0.40283203,-1.7253876,-1.2698822,0.54841614,-2.2428365,1.073617,-2.0884197
1570726963,3.4266968,9.135681,1.9853973,-0.2457428,-0.79904175,-0.52856445,3.0361872,0.16816998,1.1462286
1570726963,3.4266968,9.135681,1.9853973,-0.2457428,-0.79904175,-0.52856445,3.0361872,0.16816998,1.1462286
1570726963,3.249527,9.876678,1.1091156,-0.25,-0.035232544,-0.3123169,3.0810664,0.8770857,0.6094845
1570726963,2.3307495,11.034271,0.16281128,0.049346924,-0.58810425,-0.20259094,2.0934987,1.9471874,-0.43256575
1570726963,2.7593231,15.552139,0.42915344,0.17184448,-1.5606995,-0.19726562,2.6916518,5.31703,-0.58795255
1570726963,-0.52433777,17.393875,0.028137207,0.7353668,-1.9303436,0.023239136,0.5178686,9.21324,-0.264364
1570726963,0.45310974,13.033432,-1.8351593,0.9580078,-2.1615143,0.0594635,0.19009075,4.872341,-2.4211652
1570726963,1.2270355,10.858902,-0.9612732,1.4267273,-2.1700287,-0.40925598,0.7704066,2.2930346,-1.2996953
1570726964,0.19093323,10.4578705,-0.06404114,2.8147736,-0.45069885,-0.62231445,0.4656281,1.1724157,0.97505045
1570726964,-3.3632507,10.315414,-0.3728943,3.0320892,1.0236359,-0.47210693,-2.537317,2.1043377,0.61532295
1570726964,3.134613,9.375687,2.8676605,1.6738739,0.4824829,0.7667999,2.1425498,0.7618828,5.834789
1570726964,3.134613,9.375687,2.8676605,1.6738739,0.4824829,0.7667999,2.1425498,0.7618828,5.834789
1570726964,0.6212921,10.301056,-2.4995422,1.6738739,0.17248535,1.4283295,0.39775229,1.3552513,0.21255445
1570726964,-0.45968628,9.683945,-3.6427765,2.2214203,-0.5273895,1.6339264,-0.9038381,1.7270393,0.70461893
1570726964,0.31962585,5.4108887,-0.8750763,2.029663,-1.441391,1.3803864,-1.0445601,-2.3454266,3.6239548
1570726964,0.31962585,5.4108887,-0.8750763,2.029663,-1.441391,1.3803864,-1.0445601,-2.3454266,3.6239548
1570726964,1.3222046,3.3542786,-0.79248047,1.5747986,-2.7197113,1.0373688,0.14247692,-3.4976616,4.8260694
1570726964,1.3222046,3.3542786,-0.79248047,1.5747986,-2.7197113,1.0373688,0.14247692,-3.4976616,4.8260694
1570726964,-1.6130981,1.7711182,-1.1887207,0.800354,-2.574829,0.48449707,-1.1918116,-4.540192,5.291729
1570726964,-2.3409271,0.55784607,-3.9348755,-0.9136505,-1.1175537,0.31192017,-2.5611148,-5.839371,2.1805668
1570726964,-2.9245148,0.20170593,-3.7936096,-1.5432281,-0.45707703,0.21072388,-2.890172,-6.485088,1.8946738
1570726964,-5.412689,7.1413116,-6.593033,-2.4348602,1.1972656,0.14787292,-6.2134047,-2.041747,-0.4545927
1570726964,1.4868011,17.596191,2.379242,-2.7799988,1.5168457,-0.34321594,-0.032799035,8.074141,-0.08055925
1570726964,-3.3530731,18.36473,-2.8455048,-2.5467072,3.542984,-1.1837006,-3.4209254,10.268608,5.0408964
1570726964,0.8451538,8.99501,-1.2473755,-1.8031464,2.2454987,-0.7948761,-0.38970572,2.4954062,1.7451885
1570726964,1.525711,7.250839,-0.8822632,-1.9469604,1.9440155,-1.2422943,0.95940405,-1.2828007,1.7252944
1570726964,1.5502472,9.038116,1.0845795,-1.921402,1.6553345,-1.9400482,1.3903718,0.06868172,3.3252993
1570726964,1.154602,12.673111,-3.573349,-0.76239014,-1.6597748,-1.4446869,0.7099493,4.129569,-1.126916
1570726964,3.4991302,8.691544,1.3994141,-1.54216,-2.0358124,-0.5967407,4.472848,0.096001625,2.3259373
1570726964,3.4991302,8.691544,1.3994141,-1.54216,-2.0358124,-0.5967407,4.472848,0.096001625,2.3259373
1570726964,0.05027771,7.481888,0.38905334,-0.95840454,-1.2645569,0.31298828,1.143681,-1.4297838,0.7019776
1570726964,0.2861023,7.587219,0.77871704,-0.9104614,-1.1761322,0.3896942,1.2094303,-1.2913027,0.81720227
1570726964,0.292099,7.5291595,1.7956543,-0.64733887,-0.2674713,0.92977905,1.0272441,-1.4779291,2.2933474
1570726964,0.81044006,7.6003876,1.7765045,-1.1650543,2.5288544,1.6168823,1.4251065,-1.2821198,3.5087078
1570726964,-2.1302338,8.686768,-3.7612915,-2.1887817,3.1094208,1.930069,-1.5868274,-1.1826105,-3.1245317
1570726964,-2.7210083,10.433929,-0.7194519,-1.1309662,0.6827545,0.5739746,-3.0545661,1.5693245,-2.2209878
1570726964,1.5328827,8.81366,-0.47644043,-0.2585144,-0.42938232,-0.5115204,0.76116985,0.16386795,-1.5724541
1570726964,3.633194,8.93396,0.9145813,-0.3522644,0.06703186,-0.32403564,3.5857286,0.014294624,-0.41634333
1570726964,1.8435364,10.099335,-0.6613922,0.27624512,-0.22485352,-0.39860535,2.2364125,1.1354551,-1.5178287
1570726964,1.790863,10.162186,-0.7517853,0.28157043,-0.29942322,-0.39007568,2.0371952,1.2797403,-1.7441748
1570726965,1.1390381,14.815323,-0.6877289,0.5542755,-1.4211426,0.09674072,1.3993475,6.047187,-2.046516
1570726965,1.1390381,14.815323,-0.6877289,0.5542755,-1.4211426,0.09674072,1.3993475,6.047187,-2.046516
1570726965,-4.2239685,12.3433075,0.31004333,2.6730957,-0.2695923,0.061584473,-3.7944524,3.4495754,0.3371167
1570726965,-4.585495,12.235565,0.26875305,2.6794739,-0.22059631,0.02217102,-3.7944524,3.4495754,0.3371167
1570726965,-0.4632721,11.264725,0.4112091,2.7220917,-0.074661255,-0.6510773,-0.13442948,2.5341673,2.8949265
1570726965,-0.4632721,11.264725,0.4112091,2.7220917,-0.074661255,-0.6510773,-0.13442948,2.5341673,2.8949265
1570726965,2.2744904,8.614929,-0.8445587,2.1319275,1.1056519,0.14361572,2.7549918,0.51301575,2.5417187
1570726965,2.482193,8.54071,-0.82240295,1.9902496,1.1727753,0.32151794,2.5827277,0.044181824,1.8632991
1570726965,-0.59077454,8.571838,-1.1959076,2.2363281,-0.25042725,1.324997,-0.8814543,0.0458107,1.1679142
1570726965,-0.7661438,8.197754,0.26037598,2.4770813,-1.1804047,1.1439056,-1.4537896,-0.0785017,3.5258174
1570726965,-0.6314697,6.0507507,0.01675415,2.4472504,-1.1313934,1.262146,-1.4437381,-1.6586213,4.4817104
1570726965,0.4590912,5.095459,-0.86550903,1.9838562,-0.85975647,1.4624176,-0.10982156,-2.3067374,3.8732562
1570726965,0.7080841,3.7559052,-0.84935,1.4064941,-2.093338,1.1513519,-0.3289063,-3.044343,4.1243324
1570726965,0.7080841,3.7559052,-0.84935,1.4064941,-2.093338,1.1513519,-0.3289063,-3.044343,4.1243324
1570726965,-0.35554504,1.9231415,-1.9279327,0.83551025,-1.9378052,0.641098,-1.0465161,-4.707051,4.046348
1570726965,-2.0895386,1.6555939,-4.3903656,-1.8244629,0.43241882,-0.2579956,-2.7411163,-5.515558,1.0606399
1570726965,-2.0895386,1.6555939,-4.3903656,-1.8244629,0.43241882,-0.2579956,-2.7411163,-5.515558,1.0606399
1570726965,0.99897766,19.612701,-13.634979,-0.9552002,0.4025879,-0.24946594,-1.9856133,7.0765433,-12.286363
1570726965,-2.4247284,10.25856,-4.2461243,-0.9413605,0.7424011,-1.1144562,-2.9887466,3.894566,0.76464176
1570726965,-2.4247284,10.25856,-4.2461243,-0.9413605,0.7424011,-1.1144562,-2.9887466,3.894566,0.76464176
1570726965,-0.4237671,5.040985,-4.01268,-2.338974,2.3999481,-0.92378235,-1.1708456,-3.8180885,-0.8701458
1570726965,-0.4237671,5.040985,-4.01268,-2.338974,2.3999481,-0.92378235,-1.1708456,-3.8180885,-0.8701458
1570726965,1.5310974,12.681488,1.7890625,-2.5307312,1.7874298,-0.967453,1.3473525,5.8219566,3.2958317
1570726965,1.5310974,12.681488,1.7890625,-2.5307312,1.7874298,-0.967453,1.3473525,5.8219566,3.2958317
1570726965,2.1649628,9.812637,2.7216034,-1.8329773,1.4103241,-1.0718536,1.9319535,0.83883286,4.424432
1570726965,2.4247284,10.693695,0.8894501,-1.1970215,1.1386871,-1.1421661,2.4480627,1.8509579,2.7319188
1570726965,0.5422821,8.276154,-1.8429413,-0.64627075,-2.2499237,-0.8279114,0.9824099,-0.41494656,-1.2463758
1570726965,0.5422821,8.276154,-1.8429413,-0.64627075,-2.2499237,-0.8279114,0.9824099,-0.41494656,-1.2463758
1570726965,1.3251953,7.827835,-0.13825989,-0.6036682,-3.2448883,-0.7693176,2.388529,-0.6155329,0.42618352
1570726965,1.7286072,7.681198,1.3078308,-0.7187195,-2.2296906,-0.44015503,2.4664397,-1.1094198,1.6842546
1570726965,0.85173035,6.1602783,1.8668823,-1.0372314,0.40151978,0.5558777,2.0320375,-2.622056,2.3565216
1570726965,1.7130585,7.1095886,2.5426483,-1.1661224,2.442566,1.391037,2.4084425,-1.9373617,2.9074948
1570726965,1.6921082,8.634094,-5.6245728,-2.066269,2.74617,1.9481659,1.6990433,-0.4704666,-5.6670814
1570726965,-1.0025787,8.77655,-0.8379669,-0.43322754,-0.37825012,-0.59461975,-1.7366667,0.52224064,-2.3587713
1570726965,-1.0025787,8.77655,-0.8379669,-0.43322754,-0.37825012,-0.59461975,-1.7366667,0.52224064,-2.3587713
1570726966,2.2649078,8.854355,1.4724274,-0.47903442,-0.52952576,-0.3922119,1.9641347,0.071406364,-0.10892606
1570726966,1.9542694,9.346359,2.6078796,-0.32243347,0.37382507,-0.3687744,2.2427332,0.4681549,1.4777756
1570726966,1.1551971,11.427521,1.028305,-0.8018036,-0.9194031,-0.41671753,1.3354677,2.2863083,-0.4186746
1570726966,0.68833923,16.413452,1.6065063,-0.44599915,-1.3923798,-0.13973999,1.3536674,7.3628616,0.06310403
1570726966,0.68833923,16.413452,1.6065063,-0.44599915,-1.3923798,-0.13973999,1.3536674,7.3628616,0.06310403
1570726966,-0.76075745,12.230774,-0.96725464,0.6842346,-1.361496,0.1425476,-0.2035443,4.457719,-2.0576754
1570726966,-1.0109558,10.418961,0.05267334,1.215805,-1.1963806,-0.06304932,-0.9122975,1.6735191,-1.5323915
1570726966,-1.1988983,11.242569,1.5706024,2.378006,-0.3367157,-0.38475037,-1.003236,2.2843294,0.68742555
1570726966,-1.1988983,11.242569,1.5706024,2.378006,-0.3367157,-0.38475037,-1.003236,2.2843294,0.68742555
1570726966,-0.6033325,10.114899,1.987793,2.6667023,0.57302856,-0.031082153,-0.40279144,1.1462288,2.0437934
1570726966,0.11671448,8.526947,1.6059113,1.7740021,0.91604614,0.24694824,0.41193658,-0.06662464,3.0555146
1570726966,-0.3531494,7.4645233,0.8816681,1.4011688,0.83721924,0.43017578,-0.15906815,-1.4490919,1.8355756
1570726966,1.0235138,9.005188,-1.7693176,1.5833282,0.29925537,0.27357483,0.48665106,0.06990337,0.17211378
1570726966,1.0235138,9.005188,-1.7693176,1.5833282,0.29925537,0.27357483,0.48665106,0.06990337,0.17211378
1570726966,0.1550293,9.759369,-0.7266388,2.5580444,-0.68717957,1.3345795,-0.6725784,1.2818699,1.5120347
1570726966,0.1550293,9.759369,-0.7266388,2.5580444,-0.68717957,1.3345795,-0.6725784,1.2818699,1.5120347
1570726966,-0.6488342,7.292145,-0.7882843,2.0935822,-0.26107788,1.3878479,-1.9007113,-0.31557465,3.4632874
1570726966,-0.6488342,7.292145,-0.7882843,2.0935822,-0.26107788,1.3878479,-1.9007113,-0.31557465,3.4632874
1570726966,2.3433228,5.842453,-1.9913788,1.8560333,-1.3380585,1.2589417,0.5126126,-1.2260265,2.8161697
1570726966,2.3433228,5.842453,-1.9913788,1.8560333,-1.3380585,1.2589417,0.5126126,-1.2260265,2.8161697
1570726966,0.68533325,1.1863251,-3.111267,0.7960968,-1.7258148,0.43336487,-0.5450405,-5.123935,2.4472108
1570726966,0.68533325,1.1863251,-3.111267,0.7960968,-1.7258148,0.43336487,-0.5450405,-5.123935,2.4472108
1570726966,-0.8625183,0.6895294,-2.7210083,-0.4630432,-0.8246002,0.082901,-2.1183958,-5.922011,2.9193964
1570726966,-1.2078705,1.1360474,-2.5917206,-1.1874237,-0.41661072,0.0030059814,-2.1763172,-5.5025024,3.163938
1570726966,-0.76075745,3.7331543,-4.9470215,-2.0098114,0.8404083,-0.5083313,-1.6294818,-3.7119555,0.94426584
1570726966,-0.42556763,11.932709,-9.60733,-1.9458923,1.6255035,-0.37303162,-2.4035118,2.3648715,-4.019837
1570726966,2.794632,16.715118,-2.3367462,-1.8734589,1.8566742,-0.6340332,0.746297,10.044202,1.2417853
1570726966,3.0663757,15.375565,-2.1966858,-1.7381744,1.9663849,-0.6052704,1.3832383,9.1845665,1.4525578
1570726966,0.98820496,5.779007,-1.6849213,-1.7200623,2.2923584,-0.7725067,-0.15352082,-1.7213173,1.878233
1570726966,0.6721649,5.49469,-2.557602,-2.223938,2.1592102,-1.3839722,-0.8279288,-3.4790754,-0.2082684
1570726966,1.4993744,9.299072,-0.1879425,-2.625534,2.0377655,-1.9315186,0.30953825,-0.029640198,1.1527544
1570726966,-2.952652,11.70047,3.5679626,-2.3645477,2.585312,-2.4311218,-2.2183166,3.5258904,3.3748784
1570726967,3.0885162,11.982986,-2.1122894,-0.53549194,-1.9005127,-1.0888977,2.891619,3.3832417,-1.2303948
1570726967,3.0885162,11.982986,-2.1122894,-0.53549194,-1.9005127,-1.0888977,2.891619,3.3832417,-1.2303948
1570726967,0.41659546,8.541916,1.2958679,-0.99887085,-1.5287476,-0.37623596,1.1867716,-0.2877369,1.016975
1570726967,0.41659546,8.541916,1.2958679,-0.99887085,-1.5287476,-0.37623596,1.1867716,-0.2877369,1.016975
1570726967,0.64164734,7.9906464,1.6819305,-0.64733887,-1.1644135,0.09994507,0.9839355,-0.6141529,0.39022776
1570726967,0.64164734,7.9906464,1.6819305,-0.64733887,-1.1644135,0.09994507,0.9839355,-0.6141529,0.39022776
1570726967,0.97024536,6.1896057,2.5480347,-0.94773865,1.489151,0.83070374,1.3854184,-2.317171,1.5752738
1570726967,1.9782104,6.1171875,2.494751,-1.1192474,2.6417694,1.2536163,2.0156174,-2.7036123,2.247366
1570726967,1.2090759,6.027405,0.0095825195,-1.2779694,2.616211,1.8054352,2.1387138,-2.6879873,-1.2789222
1570726967,-1.2575531,9.4852295,-1.356308,-1.0585327,1.5083313,0.7689209,-1.4134426,0.4638996,-2.4040158
1570726967,2.5570068,8.988434,1.6974945,-0.5653076,0.096847534,-0.46891785,2.3412216,0.11512947,-0.22295022
1570726967,2.5570068,8.988434,1.6974945,-0.5653076,0.096847534,-0.46891785,2.3412216,0.11512947,-0.22295022
1570726967,-0.053268433,12.002731,1.2563629,-0.3245697,-0.17372131,-0.59461975,0.07208909,3.416832,-0.88237906
1570726967,-0.053268433,12.002731,1.2563629,-0.3245697,-0.17372131,-0.59461975,0.07208909,3.416832,-0.88237906
1570726967,0.5464783,14.663284,1.7890625,0.3028717,-0.9194031,0.08076477,1.0048144,6.4682665,-0.2226026
1570726967,0.5464783,14.663284,1.7890625,0.3028717,-0.9194031,0.08076477,1.0048144,6.4682665,-0.2226026
1570726967,-1.5406647,11.076172,-0.4219818,1.1508331,-1.1143494,0.009399414,-1.6649275,2.2922525,-2.145768
1570726967,-1.5406647,11.076172,-0.4219818,1.1508331,-1.1143494,0.009399414,-1.6649275,2.2922525,-2.145768
1570726967,-0.76135254,11.071381,0.024536133,2.0136871,-0.9439087,-0.46359253,-0.59833306,2.203249,-1.4046857
1570726967,-0.814621,10.680527,1.1390381,2.664566,-0.4943695,-0.47210693,-0.6153723,1.7054214,0.3574162
1570726967,-1.2431946,10.260956,1.6376343,2.1873322,2.0239105,0.39608765,-1.0426047,1.4968319,2.5925
1570726967,-1.2431946,10.260956,1.6376343,2.1873322,2.0239105,0.39608765,-1.0426047,1.4968319,2.5925
1570726967,0.49978638,9.345169,-0.5506592,2.043518,0.8595886,0.68263245,-0.23577714,0.22102165,1.0252527
1570726967,0.49978638,9.345169,-0.5506592,2.043518,0.8595886,0.68263245,-0.23577714,0.22102165,1.0252527
1570726967,1.6112976,7.98407,-2.111679,2.7785492,0.01802063,1.4283295,0.9961488,-0.31499004,1.0385413
1570726967,1.6112976,7.98407,-2.111679,2.7529907,0.004180908,1.4123383,0.9961488,-0.31499004,1.0385413
1570726967,-0.5009918,6.2841797,-0.89064026,1.9806671,-0.92367554,1.6126099,-2.1439688,-1.5482097,3.2812667
1570726967,-0.1478424,5.680847,-0.52671814,1.8879852,-1.1644135,1.6509705,-1.7881781,-1.7906599,3.5473914
1570726967,1.5634155,2.533661,-1.0426788,1.4416504,-2.126358,0.77319336,0.10361123,-4.310094,4.105634
1570726967,1.2958679,2.217636,-1.2228394,1.3894501,-2.110382,0.70181274,0.10361123,-4.310094,4.105634
1570726967,-1.403595,0.08319092,-2.494751,0.13031006,-1.3220825,-0.0044555664,-2.5739064,-6.646824,3.4214654
1570726967,-1.6621704,-0.517746,-4.968567,-1.0553436,-0.46774292,-0.26971436,-2.787908,-7.387811,0.5608983
1570726967,-2.8484955,2.8568878,-5.1140137,-1.9480286,0.74028015,-0.4657135,-3.4720607,-5.736348,0.112773895
1570726967,2.2481537,14.767441,-4.531021,-2.2484283,1.0278931,-0.18661499,-0.20462167,4.310029,-2.2579074
1570726968,0.7559662,7.494446,0.0077819824,-1.3791809,1.6127319,-0.65000916,-0.65528727,0.54891396,3.1789446
1570726968,0.7577667,6.855194,-0.034713745,-1.3876953,1.7107239,-0.6606598,-0.65528727,0.54891396,3.1789446
1570726968,1.4454956,5.404907,-2.2900543,-1.8031464,2.3232574,-0.87371826,-0.22877276,-3.407917,0.34727526
1570726968,2.1757355,10.037689,-1.1324615,-2.2718658,1.934433,-1.3914337,0.93966246,0.71111965,0.7423496
1570726968,1.1869202,11.735779,1.06781,-2.2154083,1.9440155,-1.7525482,1.0458972,3.4776154,2.2446272
1570726968,2.5522156,11.444885,-3.621231,0.021652222,-1.4701538,-1.3488159,2.2116914,2.6917229,-2.0799088
1570726968,2.6467896,11.395798,-3.7427368,-0.028427124,-1.5947876,-1.349884,2.2116914,2.6917229,-2.0799088
1570726968,2.0183105,9.402023,-1.4341278,-0.4768982,-2.4065247,-1.1666565,2.4106143,0.9052305,-1.0195503
1570726968,0.78230286,7.9900513,1.0037689,-0.7783661,-2.5982666,-0.57969666,1.6733315,-0.8333826,1.6362711
1570726968,0.8355713,7.961914,1.051651,-0.76452637,-2.5918732,-0.5626526,1.6733315,-0.8333826,1.6362711
1570726968,0.888855,7.116165,0.73083496,-0.9275055,-0.68292236,0.27890015,2.1256742,-1.608304,1.0334544
1570726968,0.8960266,7.0096283,0.8708954,-0.9605255,-0.56147766,0.27890015,1.9033916,-1.668766,0.7092066
1570726968,1.2228394,7.4016724,-0.9720459,-1.7221985,3.2468414,1.5124817,1.8372214,-1.8646555,-0.108368516
1570726968,1.3497314,7.9900513,-2.1547852,-1.907547,3.271347,1.5902405,1.827959,-1.5118389,-1.2033056
1570726968,-2.621048,9.985016,-0.53570557,-0.8529358,-0.44110107,-0.40179443,-3.5190442,2.0942087,-2.2459393
1570726968,-2.621048,9.985016,-0.53570557,-0.8529358,-0.44110107,-0.40179443,-3.1595063,1.7239208,-2.1209445
1570726968,3.3871918,9.139267,1.5963287,-0.34906006,-0.10235596,-0.43588257,3.1559527,0.5328827,-0.70937264
1570726968,2.008728,9.021347,1.5711975,0.12817383,0.4313507,-0.38156128,2.4608376,0.293705,-0.27930415
1570726968,1.8483276,9.573807,2.000351,0.121780396,0.42282104,-0.32722473,2.1456935,0.6277466,-0.0030459166
1570726968,1.1797485,11.447876,1.8591003,-0.2808838,-0.19929504,-0.21858215,1.6530302,2.0830479,0.23294055
1570726968,-1.2635345,13.841476,1.3048401,0.056793213,-0.6094208,0.14894104,-0.9235277,5.7448587,-0.33650374
1570726968,-1.1276703,13.269272,1.0726013,0.16333008,-0.5859833,0.1617279,-0.95523465,5.25811,-0.5788399
1570726968,-1.2240295,10.41777,0.6111145,0.91007996,-0.6392517,-0.19940186,-0.9409,1.8510103,-1.1001691
1570726968,-1.2240295,10.41777,0.6111145,0.91007996,-0.6392517,-0.19940186,-0.9409,1.8510103,-1.1001691
1570726968,0.1304779,11.274887,0.5464783,1.3180695,-1.521286,-0.35066223,0.37256128,2.1211567,-0.66060495
1570726968,0.1304779,11.274887,0.5464783,1.3180695,-1.521286,-0.35066223,0.37256128,2.1211567,-0.66060495
1570726968,0.5051727,9.575607,2.348709,1.817688,-0.19076538,0.02217102,0.83505785,1.1752129,1.2495849
1570726968,0.7655487,9.890442,1.9901733,1.9529724,0.9895477,0.16065979,1.0811827,0.7472601,2.1392574
1570726968,-1.711853,9.867706,0.34776306,1.8357849,0.28007507,-0.04812622,-1.5073383,0.92042065,1.0205511
1570726968,-1.6597748,9.832382,0.5805969,1.8592224,0.30244446,-0.06411743,-1.4242527,0.92042065,1.0205511
1570726968,0.12031555,8.901642,-1.0803833,2.203308,0.57196045,0.9873047,0.10188116,0.23686123,1.9547732
1570726968,0.4734497,8.901642,-1.0803833,2.203308,0.57196045,0.9873047,0.10188116,0.23686123,1.9547732
1570726968,0.21966553,6.687607,-1.0408783,2.3428497,0.00630188,1.15242,0.29445842,-1.2557783,2.2836053
1570726968,-0.08319092,6.439209,-1.2054749,2.3087616,0.0393219,1.1854401,-0.16617852,-1.569437,2.3319514
1570726969,0.7380066,6.3709717,-1.6442108,2.026474,-0.8054199,1.4538879,-0.344939,-1.3264604,2.7184901
1570726969,0.69192505,6.225525,-1.7836761,2.00943,-0.7958374,1.4421692,-0.344939,-1.3264604,2.7184901
1570726969,0.754776,4.462799,-1.8782501,1.6238098,-1.6523132,1.2301788,-0.5278883,-2.5350857,3.2470107
1570726969,0.8918457,4.106659,-1.9662323,1.5407104,-1.7471161,1.135376,-0.52218413,-2.8498878,3.1326818
1570726969,0.0909729,2.0667877,-3.0759583,0.16758728,-1.1569672,0.5388336,-1.0585293,-4.3552356,2.5343428
1570726969,-0.5883789,2.652176,-4.282028,-0.6057892,-0.66374207,0.3417511,-1.8694551,-4.726487,1.3516192
1570726969,-0.1771698,4.7417145,-5.993881,-0.9552002,-0.35908508,0.22776794,-1.3962557,-2.81879,-0.3232913
1570726969,3.6786957,11.544846,-16.269196,-0.6047363,0.06703186,0.2671814,1.3596582,2.8197784,-7.4038134
1570726969,-4.3981476,6.46434,-2.7742767,-1.9181976,-0.07145691,-0.3826294,-5.5118084,-0.9185529,4.067104
1570726969,-0.7182617,8.8759,-7.7111206,-1.9448395,0.20870972,-0.615921,-3.1171389,0.6359978,-3.1363368
1570726969,-1.1264648,9.570816,-4.3418884,-2.7459106,1.9376373,-0.88116455,-1.6083169,0.9852829,-1.499321
1570726969,-1.1264648,9.570816,-4.3418884,-2.7459106,1.9376373,-0.88116455,-1.6083169,0.9852829,-1.499321
1570726969,1.067215,10.556641,-2.0183105,-2.623413,1.1109924,-0.99835205,-0.1238032,2.093831,0.49071932
1570726969,1.0791931,9.081802,0.061050415,-1.6060791,0.20550537,-2.1168823,1.1860628,0.16363811,2.05242
1570726969,1.1007385,9.254791,-0.28431702,-1.5666656,0.15118408,-2.1626892,1.1860628,0.16363811,2.05242
1570726969,-2.7922363,7.7308807,0.7164612,0.5084686,-2.9668427,-2.2532349,0.22197604,-0.0049152374,1.5330309
1570726969,-2.7922363,7.7308807,0.7164612,0.5084686,-2.9668427,-2.2532349,0.22197604,-0.0049152374,1.5330309
1570726969,2.245163,8.783127,-8.641876,-0.54081726,-3.1042633,-0.14401245,2.1443825,0.9142027,-5.6081743
1570726969,2.245163,8.783127,-8.641876,-0.54081726,-3.1042633,-0.14401245,3.1821275,0.8249054,-6.707387
1570726969,-1.6621704,5.5737,-1.6741486,-2.3709412,-3.513321,0.24588013,3.145234,-3.2291298,-4.2294436
1570726969,-3.905548,6.4374084,-0.5704193,-1.2896881,-0.22485352,1.5252686,-0.5504352,-3.066061,-8.442736
1570726969,-3.905548,6.4374084,-0.5704193,-1.2896881,-0.22485352,1.5252686,-0.5504352,-3.066061,-8.442736
1570726969,-0.15083313,9.18895,2.7138214,-0.9306946,-0.4474945,1.9172821,-0.3897372,-0.5684223,1.9564433
1570726969,-2.8754425,8.177399,3.6768951,-0.332016,0.1650238,0.79875183,-2.2474658,-0.43252563,1.9554523
1570726969,-2.8754425,8.177399,3.6768951,-0.332016,0.1650238,0.79875183,-2.2474658,-0.43252563,1.9554523
1570726969,-1.3114166,8.893265,4.4717712,0.322052,2.445755,1.0671997,-1.8169527,1.1519089,5.677297
1570726969,-0.95588684,8.798691,-0.86968994,-0.51631165,1.0822296,1.0767822,-0.94664943,0.19757748,-2.3924272
1570726969,-1.0007782,8.850174,-0.76434326,-0.552536,0.9181671,1.1098175,-0.94664943,0.19757748,-2.3924272
1570726969,2.05542,10.205887,-1.0456696,-1.3184509,-0.5966339,1.0224609,0.5038903,1.1231365,-3.0612512
1570726969,3.012497,10.108322,4.4562073,-1.398346,-1.4488525,-0.7575989,2.20726,1.3733063,2.1362257
1570726969,-0.55545044,10.716446,0.30825806,-0.69633484,1.0694427,-1.649231,0.11190945,1.9570227,-2.0249662
1570726969,-0.55545044,10.716446,0.30825806,-0.69633484,1.0694427,-1.649231,0.11190945,1.9570227,-2.0249662
1570726970,0.8062439,11.477203,0.9690552,1.0283203,1.648941,-1.2923584,1.6373909,3.0092278,-0.9105394
1570726970,-0.9044037,12.487564,-1.577179,1.0006256,2.0026093,-1.0121918,0.6759394,3.6334848,-1.2853951
1570726970,2.2044678,14.878174,3.3381195,1.6706696,0.7562561,0.27357483,2.4760718,6.0180798,2.1482952
1570726970,2.379837,14.632156,2.656372,1.7154236,0.66571045,0.258667,2.4760718,6.0180798,2.1482952
1570726970,1.122879,10.353134,1.9542694,1.5076904,1.3112488,0.45361328,1.6276652,0.49404335,0.9429168
1570726970,-1.6280518,6.870163,1.9045868,1.0613403,0.5847473,1.0629425,-0.6337088,-0.38093853,-0.413791
1570726970,-2.4923706,7.1700287,2.01651,1.9007721,-0.8799896,3.986023,-3.429943,-2.8670502,2.0442443
1570726970,-2.4923706,7.1700287,2.01651,1.9007721,-0.8799896,3.986023,-3.429943,-2.8670502,2.0442443
1570726970,0.06463623,9.955093,2.4360962,0.9707947,0.23640442,3.3862762,-1.5032033,0.659564,1.9014528
1570726970,2.1122894,12.206833,2.6455994,-0.296875,1.6809082,2.3167572,-0.3522334,1.5111513,4.0341344
1570726970,7.4022675,9.609726,-0.5351105,-1.0990143,-0.14176941,1.8459015,4.4776964,0.9479952,-0.5218684
1570726970,7.6554565,10.432739,1.3862457,-0.6590576,0.56877136,-1.5363007,4.7348433,2.095602,-1.1469129
1570726970,7.4070587,10.029907,1.743576,-0.63668823,0.6358795,-1.6289825,4.711547,1.9941626,0.36853474
1570726970,4.431076,8.076843,1.9273376,-1.1565399,1.2590637,-2.4779968,2.5748844,0.29710197,-0.7855357
1570726970,4.431076,8.076843,1.9273376,-1.1565399,1.2590637,-2.4779968,2.5748844,0.29710197,-0.7855357
1570726970,1.9901733,6.74028,0.58717346,-0.66651917,1.5583954,-2.7773438,1.1506139,-1.8450098,1.1509305
1570726970,2.2894592,6.3177032,1.2150574,-0.81565857,-0.62220764,-2.574936,1.1989839,-2.3449736,-0.48055494
1570726970,0.5404968,5.938217,4.1796722,-1.2353668,-1.5244751,-2.110489,1.0751934,-2.9896393,2.0936322
1570726970,0.5404968,5.938217,4.1796722,-1.2353668,-1.5244751,-2.110489,1.0751934,-2.9896393,2.0936322
1570726970,0.5680237,5.239105,3.6080627,-0.8018036,-4.374069,-1.4734497,1.3834219,-3.2429838,0.5781021
1570726970,-0.89004517,7.720108,8.696335,-1.0489502,-4.527466,-0.83110046,-0.845236,-0.64022255,4.8035717
1570726970,0.5009918,7.6464844,7.967911,-1.478241,-1.872818,-0.9536133,0.7096301,-0.6180172,5.09869
1570726970,-1.7770996,6.3344574,3.7223816,-1.4409637,0.88301086,-1.1368256,-0.4267156,-1.0055542,-0.12574601
1570726970,-1.036087,5.976532,5.107437,-0.8316345,-0.1492157,-0.7639923,-0.2336489,-1.9457226,0.57795
1570726970,-1.2755127,8.934555,5.693405,-0.1519928,-0.055480957,1.7351227,-0.7193137,0.8459101,1.6759663
1570726970,-1.2755127,8.934555,5.693405,-0.1519928,-0.055480957,1.7351227,-0.7193137,0.8459101,1.6759663
1570726970,-1.9841919,8.341995,5.6658783,-1.1629333,0.49313354,2.3423157,-1.4981889,0.6403346,1.2751045
1570726970,-1.0336914,7.629715,6.34523,-2.2942352,-1.1782684,2.491455,-2.1301093,0.6153712,1.2912092
1570726970,-1.0336914,7.629715,6.34523,-2.2942352,-1.1782684,2.491455,-2.1301093,0.6153712,1.2912092
1570726970,0.6218872,6.2758026,7.8559723,-3.5746918,-0.3633423,2.5745544,-1.3879229,-0.04544115,1.7319331
1570726970,0.6967163,6.1956024,7.510605,-3.626892,-0.7308502,2.0376587,-1.631283,1.0411015,1.1791654
1570726970,0.4405365,4.660919,7.1131744,-3.8548584,-1.1036987,1.8491058,-2.3596206,0.036155224,0.044897556
1570726970,1.0055695,3.878601,8.826828,-3.5054474,0.18527222,0.103134155,-2.115801,0.9752135,0.95541525
1570726970,0.952301,3.7762604,8.757385,-3.4308777,0.16929626,0.013656616,-2.115801,0.9752135,0.95541525
1570726971,0.8140259,2.3097992,9.58519,-2.558426,0.2076416,-0.6521301,-2.3599684,0.150285,1.2843494
1570726971,1.1324615,2.0620117,9.7773285,-0.64733887,1.6105957,-1.3243256,-1.4057598,0.28057528,1.5407028
1570726971,0.30465698,4.5675354,11.807602,-2.0705261,0.8627777,-1.220993,-3.6997554,1.1908772,-2.5130405
1570726971,0.30465698,4.5675354,11.807602,-2.0705261,0.8627777,-1.220993,-3.6997554,1.1908772,-2.5130405
1570726971,-0.37887573,0.66259766,10.150223,-1.9299164,1.9866333,-0.87690735,-2.1739798,-0.46392536,1.9139919
1570726971,-0.0143585205,0.24720764,10.321411,-0.7986145,1.7490845,-0.19940186,-0.48505592,-0.5516651,1.3829441
1570726971,-0.0143585205,0.24720764,10.321411,-0.7986145,1.7490845,-0.19940186,-0.48505592,-0.5516651,1.3829441
1570726971,-0.53689575,-0.21548462,10.463852,-0.59513855,1.0928802,-0.15039062,-0.7299823,-0.7076877,1.2931471
1570726971,-0.636261,-1.0450745,10.75116,-0.06996155,0.1842041,-0.24414062,-0.75666326,-1.5787169,1.8450451
1570726971,-1.1551971,-0.94869995,11.525085,-0.032684326,-0.05227661,-0.15039062,-1.2904034,-1.863116,3.2268076
1570726971,-1.1551971,-0.94869995,11.525085,-0.032684326,-0.05227661,-0.15039062,-1.2904034,-1.863116,3.2268076
1570726971,-1.6298523,-0.90141296,9.983215,0.20167542,-0.27812195,-0.084350586,-1.5970669,-1.3777405,1.0930367
1570726971,-0.7302246,-0.36691284,10.2005005,0.33802795,-0.5114136,0.10952759,-0.9772831,-1.0439168,1.1115017
1570726971,0.28370667,0.29508972,9.962875,0.28475952,-0.41766357,0.30873108,-0.29137298,-0.55623466,0.8677254
1570726971,0.28370667,0.29508972,9.962875,0.28475952,-0.41766357,0.30873108,-0.29137298,-0.55623466,0.8677254
1570726971,-0.40881348,0.029922485,10.462067,0.17077637,-0.23124695,0.5366974,-1.020083,-0.93067753,1.2660408
1570726971,-0.40881348,0.029922485,10.462067,0.17077637,-0.23124695,0.5366974,-1.020083,-0.93067753,1.2660408
1570726971,-0.0688324,0.47644043,10.59375,0.09941101,0.10217285,0.77319336,-0.6942446,-0.33178782,1.6803131
1570726971,-0.7805023,0.97743225,10.198105,0.006729126,0.23640442,0.8157959,-0.2652272,0.2861712,1.2943573
1570726971,-0.7805023,0.97743225,10.198105,0.006729126,0.23640442,0.8157959,-0.2652272,0.2861712,1.2943573
1570726971,0.33518982,0.81163025,10.265732,0.020584106,0.3003235,1.0267181,-0.7356715,-0.17445123,1.0794649
1570726971,-0.0023956299,0.885849,10.429749,0.013122559,0.33547974,1.0277863,-0.46539038,0.16946703,1.229455
1570726971,0.3657074,0.8852539,10.266342,0.031234741,0.3557129,1.1204681,-0.09665319,0.3554867,1.6286068
1570726971,1.6932983,0.59794617,10.942703,-0.028427124,0.46437073,1.2898407,0.8140643,0.25339383,1.8609457
1570726971,1.6932983,0.59794617,10.942703,-0.028427124,0.46437073,1.2898407,-0.016444117,-0.20946449,1.6216955
1570726971,0.6877289,-0.19871521,10.976212,-0.13175964,0.7029877,1.3058167,0.080944896,-0.14633381,2.005928
1570726971,1.1402435,0.5919647,10.810425,-0.013504028,0.52508545,1.3782501,0.89105964,0.114234865,1.5027914
1570726971,1.1180878,0.69911194,10.955872,-0.063568115,0.356781,1.3761292,1.2898203,-0.10328984,1.6805592
1570726971,1.1180878,0.69911194,10.955872,-0.063568115,0.356781,1.3761292,1.2898203,-0.10328984,1.6805592
1570726971,0.78948975,0.53271484,10.994171,-0.11683655,0.07447815,1.3675995,1.001389,-0.17315543,1.5954733
1570726971,0.78948975,0.53271484,10.994171,-0.11683655,0.07447815,1.3675995,1.001389,-0.17315543,1.5954733
1570726971,0.4303589,0.41479492,12.328339,-0.09660339,-0.082107544,1.278122,0.5882764,-0.21856558,2.871954
1570726971,-0.017959595,0.044296265,12.445053,-0.03375244,0.0819397,1.2333832,0.14456248,-0.5901594,3.1138449
1570726972,-0.6111145,0.13586426,11.415558,0.17823792,0.019088745,1.1417694,-0.3545195,-0.71848875,0.8002901
1570726972,-0.6111145,0.13586426,11.415558,0.17823792,0.019088745,1.1417694,-0.3545195,-0.71848875,0.8002901
1570726972,0.03831482,0.7661438,10.053253,0.38383484,-0.47306824,1.1790466,-0.41312057,0.049906254,0.9097395
1570726972,-0.43634033,0.053268433,10.587158,0.2155304,-0.25042725,1.1012878,-0.5039007,-0.82327974,1.2280493
1570726972,-0.47883606,0.30586243,10.181946,-0.0028533936,0.26942444,0.9894409,-0.64959925,-0.69722587,0.8376589
1570726972,-0.47883606,0.30586243,10.181946,-0.0028533936,0.26942444,0.9894409,-0.64959925,-0.69722587,0.8376589
1570726972,-0.77871704,0.15382385,10.441711,-0.13708496,0.5858154,0.92871094,-0.62762403,-0.7355078,1.0357103
1570726972,-0.85772705,0.19392395,10.481812,-0.14346313,0.61351013,0.9425659,-0.6995766,-0.70500916,1.1157198
1570726972,-1.0031738,0.22865295,10.53569,-0.08488464,0.5921936,0.98197937,-0.65412223,-0.64559764,1.2100716
1570726972,-1.1725616,0.5404968,10.465057,-0.022033691,0.46011353,1.0501556,-0.5756259,-0.38971704,1.1995811
1570726972,-1.1725616,0.5404968,10.465057,-0.022033691,0.46011353,1.0501556,-0.5756259,-0.38971704,1.1995811
1570726972,-1.1450195,0.5817871,10.077789,-0.08488464,0.37275696,1.0160675,-0.44815284,-0.26797992,0.7383995
1570726972,-1.1905212,0.37709045,10.961853,-0.13708496,0.3642273,0.9681244,-0.36059088,-0.26611644,1.6818457
1570726972,-1.1905212,0.37709045,10.961853,-0.13708496,0.3642273,0.9681244,-0.36059088,-0.26611644,1.6818457
1570726972,-1.2952576,0.0071868896,10.488403,-0.058242798,0.28753662,0.9361725,-0.39986795,-0.6746108,1.2168598
1570726972,-0.90979004,0.28431702,10.887634,-0.03694153,0.07128906,0.83709717,0.05141121,-0.53025347,1.5360041
1570726972,-0.7757263,0.5321045,10.863693,0.12924194,0.07022095,0.81900024,-0.035062432,-0.39152592,1.7045002
1570726972,-0.7757263,0.5321045,10.863693,0.12924194,0.07022095,0.81900024,-0.035062432,-0.39152592,1.7045002
1570726972,-0.86849976,0.6655884,10.548859,0.35507202,-0.38996887,0.80940247,-0.09074986,-0.41266906,1.2073622
1570726972,-0.7194519,0.76374817,10.726028,0.40408325,-0.5188751,0.79981995,0.016047537,-0.20874691,1.2155647
1570726972,-0.5213318,0.6787567,10.846329,0.3816986,-0.42832947,0.7689209,0.043181777,-0.41490555,1.4699097
1570726972,-0.20709229,0.7841034,10.757141,0.33589172,-0.2110138,0.723114,0.28219342,-0.40050864,1.4440241
1570726972,0.026931763,0.6823425,10.57399,0.045074463,0.20550537,0.6858368,0.18035775,-0.6602527,1.1420975
1570726972,0.026931763,0.6823425,10.57399,0.045074463,0.20550537,0.6858368,0.18035775,-0.6602527,1.1420975
1570726972,0.16400146,0.6943207,10.652405,-0.12109375,0.098983765,0.6389618,0.59663403,-0.94530463,1.235918
1570726972,0.022750854,0.76734924,10.625473,-0.122161865,0.087265015,0.6176605,0.59663403,-0.94530463,1.235918
1570726972,0.47105408,0.57341003,10.308243,-0.16264343,0.0393219,0.6219177,0.86270404,-0.8759675,0.82847786
1570726972,0.47105408,0.57341003,10.308243,-0.16264343,0.0393219,0.6219177,0.86270404,-0.8759675,0.82847786
1570726972,0.43455505,0.27114868,10.542267,-0.1328125,-0.11193848,0.3886261,0.9135033,-0.69549584,1.1544533
1570726972,0.43455505,0.27114868,10.542267,-0.1328125,-0.11193848,0.3886261,0.9135033,-0.69549584,1.1544533
1570726972,0.6392517,0.20889282,10.727814,-0.07102966,-0.27279663,0.34388733,1.0152974,-0.7605523,1.1634302
1570726972,0.6392517,0.20889282,10.727814,-0.07102966,-0.27279663,0.34388733,1.0152974,-0.7605523,1.1634302
1570726972,0.885849,0.4914093,10.1532135,-0.04119873,-0.3494873,0.19049072,0.99463254,-0.47694534,0.5481281
1570726972,0.8930359,0.5303192,10.144226,-0.04333496,-0.36013794,0.18409729,0.99463254,-0.47694534,0.5481281
1570726973,0.92774963,0.43634033,10.77211,-0.2265625,-0.08531189,0.030700684,0.90576464,-0.3961873,1.2204981
1570726973,0.92774963,0.43634033,10.77211,-0.2265625,-0.08531189,0.030700684,0.90576464,-0.3961873,1.2204981
1570726973,0.94750977,0.8044586,9.887451,-0.5035248,0.13626099,-0.28781128,1.0556529,0.012104869,0.2673025
1570726973,0.8313904,0.62249756,9.958084,-0.51524353,0.08407593,-0.33894348,0.95294845,0.07889801,0.27504253
1570726973,0.7110748,0.028137207,10.87027,-0.47903442,0.23426819,-0.69581604,0.83243704,-0.50906616,1.3210201
1570726973,-0.6218872,0.30166626,10.407593,-0.40446472,0.060638428,-0.6713104,0.15259808,-0.27440256,0.51155186
1570726973,0.47584534,-0.2639618,10.406403,0.22297668,-0.53804016,-0.23242188,0.62029386,-0.26735163,1.620367
1570726973,0.8128357,-0.19093323,10.687119,-0.15945435,-0.32818604,0.24055481,0.69387996,-0.5001924,0.7829628
1570726973,1.2563629,-0.20649719,10.555435,-0.6675873,0.9330902,0.32363892,1.2720947,-0.5607829,0.85482407
1570726973,0.60572815,0.022750854,11.122269,-0.7805023,1.3858185,0.20433044,1.1125486,0.07810859,1.2853928
1570726973,-0.07841492,-0.82958984,10.79306,-0.35972595,0.9362793,0.19793701,0.6065549,-0.5435655,1.364604
1570726973,-0.2232666,-0.77093506,11.458649,0.27304077,-0.24403381,0.29382324,0.456859,-0.7987696,1.6427536
1570726973,0.20889282,-0.45968628,11.569382,0.78437805,-1.1548309,0.44508362,0.6315571,-0.6638033,1.747675
1570726973,0.75357056,0.57341003,11.551422,1.0741272,-1.0397797,0.42803955,0.7842932,0.06487143,1.8600883
1570726973,0.8601227,0.5351105,9.194336,1.1241913,-0.6211395,0.20753479,0.94048905,-0.02759391,-0.1842804
1570726973,1.2402039,0.7440033,10.129272,0.7268524,-0.597702,0.35134888,0.93237627,-0.21766794,0.51643085
1570726973,1.869278,1.0097504,11.32756,0.33802795,-0.19076538,0.40353394,1.3579369,-0.123737216,1.4945803
1570726973,1.7878723,1.2186432,10.861893,0.2709198,0.4111023,0.24481201,1.4239435,0.033723593,1.2312298
1570726973,1.3156128,0.9906006,10.412979,0.20593262,0.6720886,0.1894226,1.0856318,-0.16377234,0.7654686
1570726973,1.3269806,0.9534912,10.59314,0.17398071,0.76690674,0.20433044,1.2937039,-0.2478894,0.8916254
1570726973,0.8439636,1.1318665,10.342346,0.23895264,0.66996765,0.15640259,1.0624008,-0.27107978,0.684885
1570726973,0.6278839,1.2054749,10.028717,0.26133728,0.3802185,0.13722229,0.95880044,-0.1498977,0.38590717
1570726973,0.48182678,1.0606384,10.248383,0.19421387,0.25663757,0.15107727,1.0182345,-0.25504386,0.5831251
1570726973,-0.099365234,1.4299316,10.264542,-0.18501282,0.20018005,0.16065979,0.6743624,0.08994949,-0.5928459
1570726973,0.32800293,1.1564026,11.610687,-0.06677246,0.28433228,0.24694824,0.8674535,-0.30819976,1.974906
1570726973,0.13168335,0.7451935,10.357315,0.07597351,0.37382507,0.22032166,0.8795702,-0.5274404,1.2265024
1570726973,0.09875488,1.2162476,9.560043,-0.1519928,0.3652954,0.28315735,0.75425464,-0.28617775,-0.16852856
