time,ax,ay,az,gx,gy,gz,la_x,la_y,la_z,fox,foy,foz
1570726936,1.8106995,10.744293,2.5871277,-0.549057,-2.7005005,-1.2861938,-0.9843693,1.7395382,-0.41075015
1570726936,2.9347687,10.570709,0.20848083,-0.93255615,-2.499176,-0.73013306,0.1630311,1.4160519,-3.1036112
1570726936,2.9706879,10.472549,1.121872,-0.9432068,-1.3412323,-0.77168274,0.21762061,1.3411636,-2.404793
1570726936,4.014557,11.239883,2.442276,-0.3764801,-0.5369568,-1.0976562,1.5531225,2.0735493,-1.4014189
1570726936,3.0305328,11.555923,2.9869537,0.4789276,-0.85121155,-1.0209503,0.83118343,2.1871386,-0.3707919
1570726936,3.387268,11.854004,1.9095612,0.9146118,-0.9875641,-0.37860107,1.3187273,2.4791307,-1.2508433
1570726937,3.679367,11.5403595,2.208847,0.8602905,-0.5092621,0.03791809,1.544316,2.1336527,-0.8917103
1570726937,3.77034,11.633728,2.7223969,0.7058258,-0.68395996,0.08905029,1.4941411,2.0138617,0.13383126
1570726937,3.465088,13.142075,1.6785278,0.34576416,-0.9279022,0.03579712,2.2895157,3.2622166,-0.82454586
1570726937,5.5121307,13.787323,1.3529205,0.22113037,-0.4357605,0.10290527,3.1577675,4.115406,-1.2503576
1570726937,5.5432587,13.968079,3.201233,0.836853,-0.40272522,0.1678772,3.1022153,4.322521,0.9095757
1570726937,5.588745,14.321228,1.995758,1.4547119,-1.3572083,0.5417938,2.9423702,4.5176764,0.6678966
1570726937,6.0615997,13.121735,1.0081482,1.5985107,-0.79582214,0.87628174,3.1811469,3.5267754,-0.31932652
1570726937,4.643036,12.246643,2.3429108,1.3236847,-0.83628845,0.9806824,1.9279191,2.4001207,1.4828026
1570726937,4.939911,10.820908,0.7052765,1.0669556,-1.7268524,1.1415405,1.7104108,0.697443,0.7329335
1570726937,5.2140503,9.92308,-1.0101624,1.1915894,-1.2645264,0.92741394,1.2504952,0.40939617,-0.831683
1570726937,-4.9553223,12.251434,5.316513,-0.78874207,-4.503998,-1.6665039,-11.357239,-2.6320133,9.320255
1570726937,3.7919006,13.187576,4.917877,-0.93362427,-0.6221771,0.26908875,0.9908149,4.8800993,3.819552
1570726937,3.0700378,10.035599,1.7527466,0.1806488,-1.6767883,0.77934265,-0.5828109,0.6600981,2.4418046
1570726937,4.565216,8.451843,-1.0544586,0.20941162,-0.83096313,0.6664276,0.45979166,-0.910696,-0.17175376
1570726937,4.5783844,5.5309143,-1.8876343,0.06452942,-0.32389832,-0.15596008,0.47370481,-3.5683422,-0.7054916
1570726937,4.3808746,7.4331055,-0.3194275,0.09329224,-0.29301453,-0.7152252,0.4479959,-2.1753845,0.5354402
1570726937,4.6262665,8.996521,0.24679565,0.31700134,-0.17903137,-0.5181427,0.77857304,-0.7840214,1.1813463
1570726937,5.200882,6.3222046,-0.7156677,0.8805237,0.5826416,0.32661438,1.5829985,-2.6745777,0.7843907
1570726937,5.521698,7.349304,-3.3181763,0.7388458,0.9597473,0.015548706,1.3611758,-2.6931505,-1.9884267
1570726937,3.3178406,7.82695,3.517273,0.8112793,0.99702454,0.9625702,0.061079025,1.2929592,1.9286131
1570726937,2.6654205,3.469513,-2.3545074,0.2275238,0.89582825,-0.17193604,-1.0988598,-5.723502,-0.52150404
1570726937,1.6933746,2.802719,-0.1482544,0.24243164,0.24176025,-0.95596313,-1.81494,-7.072401,0.79328823
1570726937,-0.5428009,5.553665,0.11152649,0.26480103,-0.1385498,-2.3397522,-3.623742,-4.5618305,0.98450196
1570726937,4.2982635,19.030624,0.8597107,1.0190125,-0.32177734,-4.138977,1.3869286,6.4757633,1.6841699
1570726937,-2.3552246,25.784668,-10.15242,3.1857605,-3.4185028,-4.0473633,-2.7055202,13.745644,-4.8945723
1570726937,10.415451,7.909546,2.7595062,-2.2588043,6.0474396,-1.8997955,3.5844276,0.119353294,-0.538147
1570726937,-6.3631134,14.867096,1.1314545,-1.1818237,-1.5031433,-3.5211334,-4.6094966,4.396682,4.1790977
1570726937,-6.8934326,14.695923,-0.40203857,-1.425766,-2.2882538,-0.6672821,-6.10516,4.6647043,0.9156898
1570726937,-2.1732635,7.7108307,1.9035797,-1.4342957,-2.5769348,0.9764252,-1.4350717,-2.1907759,2.3927453
1570726937,-0.09628296,3.9734802,2.1106873,-1.0710297,-1.9356537,1.1170349,0.5236939,-6.250884,3.0359893
1570726937,-0.052001953,5.8481445,-1.7463837,-2.317398,-0.97798157,1.244873,-0.3466337,-3.6390333,-2.6921475
1570726937,2.8270264,14.220673,-1.7140503,-1.8188477,2.6929321,0.7857361,1.3420297,0.99487495,-3.7443287
1570726937,-6.4900055,25.645798,0.5281067,-0.38819885,4.648758,-3.9248657,-2.9564617,19.523844,1.2365131
1570726938,-5.5215454,12.3424225,1.0656128,-2.5506897,0.85427856,0.109298706,-5.873436,2.7282867,-1.5152526
1570726938,-0.946228,11.794144,2.6745148,-2.2971497,-0.80859375,0.3638916,0.70482886,1.7327223,0.8227844
1570726938,-1.4585876,11.548737,2.332138,-2.0734558,-0.62857056,0.77508545,-0.040248513,1.4276352,-0.44108295
1570726938,-2.1265717,10.625778,3.2946167,-2.6699982,-0.7830353,0.7452545,-0.95728886,0.33712196,-0.60531425
1570726938,-2.697586,12.361572,2.3776398,-2.7797241,-0.8117981,0.5300751,-2.1404383,2.511569,-1.962141
1570726938,-0.95581055,12.635712,2.998932,-3.0545654,-0.51138306,0.3958435,-0.77480817,3.464491,-2.2724357
1570726938,-0.029251099,11.722321,3.769867,-2.9150085,-0.35266113,0.5918579,0.017309934,3.0008144,-2.0051494
1570726938,0.17425537,10.21637,3.4885406,-2.4377747,-0.20565796,0.9082489,0.009037033,2.210662,-2.7885637
1570726938,0.6566925,7.1601715,1.1936951,-2.2897034,0.68170166,0.8571167,0.70573175,-0.32053423,-4.961136
1570726938,-0.89953613,4.260788,3.8464813,-2.0787811,1.7384491,0.77827454,-1.035165,-2.7232294,-4.0553384
1570726938,-1.1269989,2.5046387,5.6971893,-1.1733093,1.3538818,0.5226135,-1.0907763,-4.359641,-2.1989198
1570726938,-0.8839874,1.9575653,6.7494507,-0.5394745,1.0513611,0.24565125,-0.75318575,-4.690988,-1.7095699
1570726938,-0.90553284,3.374939,6.6488953,0.15081787,0.2651825,0.15722656,-0.607511,-3.24058,-1.3352699
1570726938,0.41726685,4.023758,9.134064,0.5524292,0.22576904,0.28292847,0.54715085,-2.798123,0.150074
1570726938,1.2384796,6.388031,9.617706,1.0541687,-0.1385498,-0.35302734,2.2670105,-0.88680696,5.012021
1570726938,-10.928848,6.2000885,6.2777863,2.2014618,-0.5454712,-0.09310913,-10.187612,-0.74974966,-2.0727496
1570726938,-0.9031372,15.193909,7.2594147,2.5476685,-2.3511047,-1.2883301,-0.5605742,6.9913945,5.9015546
1570726938,-1.214386,16.544235,6.9577484,2.1194305,-1.0695801,-0.9144287,-1.0710324,8.305519,0.46223068
1570726938,0.3071289,12.782944,1.4031982,2.3133087,-0.5934143,-0.5362549,0.6238835,3.9145308,-4.4503465
1570726938,0.33706665,8.676895,3.0324402,1.8211517,-1.0301666,-1.1999207,0.6995232,-0.2830286,-2.3029447
1570726938,-0.46739197,10.17926,1.0021667,1.7678986,-0.494339,-1.5780792,0.18815821,0.47600746,-3.6469235
1570726938,-0.93785095,15.117294,2.097519,2.0107727,-0.053329468,-0.8845978,-0.08386469,5.4770193,-2.0847974
1570726938,1.1103821,12.3471985,1.616272,2.349533,-0.55400085,0.028335571,2.0561798,2.663969,-1.910893
1570726938,0.65908813,10.397125,0.20729065,2.1492615,-0.541214,0.21795654,1.5986793,0.5383997,-2.5630069
1570726938,-0.48654175,9.22995,-0.77433777,1.8648376,1.0630646,-0.061141968,0.48598546,-1.0035677,-3.1446292
1570726938,-1.9913025,9.44783,1.710846,1.4408569,0.93310547,-0.17193604,-1.0721259,-0.7901554,-0.011478066
1570726938,-1.317337,9.453812,2.9354858,1.5654907,0.4345703,0.121017456,-0.38029844,-0.87820244,1.6604137
1570726938,-0.9115143,9.647751,2.0735626,1.7284851,-0.54974365,0.42355347,0.017585099,-0.8397455,1.4180875
1570726938,0.6255646,8.575134,1.2463684,2.3537903,-1.5979614,0.9891968,1.1191015,-1.7642546,1.5234138
1570726938,-0.29022217,8.344101,-0.9395294,0.93058777,-0.026687622,-0.12931824,0.19686115,-2.0828295,-0.6049963
1570726938,1.2109528,10.538391,1.9335022,0.68878174,-0.17263794,-0.39457703,1.7287221,-0.019346237,2.4838502
1570726938,1.4228363,12.387909,0.013366699,0.663208,-0.6115265,-0.14317322,2.185882,1.9925241,0.8060947
1570726938,-0.33810425,13.174408,1.5815582,0.57266235,-0.029891968,-0.21028137,0.44677085,2.7733421,2.5075607
1570726938,-0.27705383,14.115326,0.41079712,0.47679138,-1.033371,-0.4350586,0.55050075,3.6516666,1.6054327
1570726939,1.4431763,17.541428,-2.20607,0.3564148,-0.16304016,-0.5980377,2.2928061,6.9963226,-0.8890593
1570726939,1.2456665,18.963577,-0.14346313,-0.3956604,0.7733154,-0.504303,3.1100245,8.452913,0.41310072
1570726939,-3.0746765,16.175537,2.7631073,-1.0454712,0.08729553,0.2062378,-2.0054646,5.560808,3.7803128
1570726939,-3.5247803,13.7777405,2.8361206,-2.7658691,0.3323059,0.23179626,-2.45277,3.6568518,3.1353917
1570726939,-1.8787689,13.368332,3.644165,-4.3840027,-1.3092651,-0.019607544,-0.8176129,2.670189,2.7706904
1570726939,-3.5774536,16.50473,5.5080566,-4.038864,-2.1252594,0.10183716,-2.4333594,6.0632677,2.9844842
1570726939,-1.590271,13.648453,-0.210495,-3.0194092,-1.8387146,1.054184,-1.031003,3.6519089,-3.3315334
1570726939,-0.37521362,9.9075165,-8.51239,-2.6167297,-1.0259094,1.1713562,-0.40860802,0.22197533,-12.913242
1570726939,1.6538696,6.376068,-1.6661682,-2.7520294,-0.044799805,0.7175598,1.4665124,-3.1162062,-6.9769535
1570726939,-1.6596985,8.510498,5.944992,-3.2143555,1.7054291,1.1085205,-1.9390907,-0.5329857,0.019765377
1570726939,-1.9685516,7.8640594,0.9854126,-2.9299164,1.1525574,1.0158386,-2.3362572,-0.46980095,-5.3266687
1570726939,-1.6596985,5.1945343,2.090332,-2.76268,1.146164,0.8283539,-2.07192,-2.1597037,-6.697172
1570726939,-0.5571747,4.245224,3.1210327,-1.9594727,0.7253876,0.73246765,-0.93504584,-2.9454446,-4.567827
1570726939,-0.01727295,3.8274384,3.7794342,-1.3852844,1.1813202,0.74632263,-0.27210295,-2.8955102,-4.3285246
1570726939,-1.5962524,2.196991,4.8113403,-0.23373413,1.0652008,0.6706848,-1.6193752,-4.330709,-3.342
1570726939,-2.3013458,1.8558197,6.15448,0.63764954,0.22790527,0.27867126,-2.236581,-4.8701096,-2.435771
1570726939,-1.3364868,2.7751923,6.363983,1.331131,-0.19819641,0.17747498,-1.5158839,-4.080005,-1.4429808
1570726939,2.03096,3.9196167,11.377441,1.9543152,-0.16517639,-0.24118042,1.8444284,-3.342836,3.4560785
1570726939,-3.52359,8.069962,7.454544,2.126892,-1.3923645,-0.55329895,-2.8131611,-0.13276911,0.9416995
1570726939,0.34423828,16.588531,10.769318,2.6392822,-0.30899048,-0.6449127,-0.1990595,7.750456,4.12859
1570726939,-5.0870056,18.880981,2.718811,2.0608368,0.3450775,-0.63105774,-5.464093,12.112456,-5.8786273
1570726939,1.5557098,8.511688,2.2938385,1.8946533,-0.07249451,-0.32852173,1.5243568,-0.2675438,-3.0710363
1570726939,0.5106354,6.192917,3.0444183,2.065094,-0.5710449,-0.7407837,0.7214416,-3.086687,-1.7696519
1570726939,-1.2814178,10.360016,1.8676758,2.2270203,-0.79048157,-1.3309479,-0.86253846,0.49774075,-2.2480779
1570726939,-3.096222,16.890198,0.299469,2.0672302,-0.03201294,-1.2393341,-2.50107,6.752533,-3.2838767
1570726939,0.58724976,12.246643,1.8102112,1.9809418,0.62631226,-0.43717957,1.2257397,2.971157,-1.4733322
1570726939,0.36698914,9.4370575,1.3170013,1.8776093,0.101135254,-0.17512512,1.6548012,-0.62246037,-0.9291377
1570726939,-1.219162,10.060745,-0.05368042,1.6688232,0.20021057,-0.10269165,-0.08245921,-0.38470078,-1.7860646
1570726939,-0.6373749,9.411911,0.8788605,1.4355316,0.8659973,0.03366089,-0.06724751,-0.64267635,-0.7641326
1570726939,-1.0156555,8.962997,2.4793854,1.331131,0.6550751,-0.014282227,0.15564442,-1.4581604,1.5304699
1570726939,0.10961914,8.824142,1.7443695,1.3929138,-0.29408264,0.34365845,1.0999718,-1.384306,1.5009571
1570726939,1.2576294,7.8688507,1.358902,1.7316742,-1.2176666,0.8560486,2.1477358,-2.4926052,1.4256212
1570726939,-0.15255737,8.646973,-1.6518097,1.4429932,-0.5966034,0.27015686,0.80519783,-1.9094353,-1.2743611
1570726940,-0.13578796,10.291779,0.77471924,1.0072937,0.72006226,-0.396698,0.28908598,-0.5321665,1.1328578
1570726940,0.69140625,12.950546,1.7778931,0.71221924,-0.19926453,-0.4073639,1.5446203,2.4973917,3.0241895
1570726940,0.4902954,13.845978,0.40960693,0.91674805,-0.01071167,-0.35942078,1.5091856,3.4547586,1.7739055
1570726940,-1.2359314,15.505157,0.6526184,0.803833,-0.20672607,-0.4361267,0.098843455,4.772601,2.4035242
1570726940,-0.54042053,18.30278,-0.289505,-0.13253784,0.17037964,-0.4584961,0.70035017,7.8402185,1.3541306
1570726940,-0.012496948,17.045822,2.9701996,-1.5567932,-0.035217285,-0.1144104,1.3326248,7.4103394,4.0988183
1570726940,-1.8679962,14.973648,3.9685822,-2.681717,-0.67544556,0.3138275,-0.6923853,4.6736593,4.5133524
1570726940,-0.42907715,14.03392,5.241104,-3.572281,-0.8863678,0.29785156,0.7794434,3.3618326,4.867187
1570726940,-1.985321,14.916183,1.0057526,-3.6542969,-2.7015686,0.3085022,-0.75400686,4.112255,0.51573527
1570726940,-1.8057556,13.130112,-2.669342,-3.3251343,-0.41125488,0.7655029,-1.397157,3.1823177,-5.0519533
1570726940,-1.5651245,11.139328,-2.447876,-2.761612,0.66893005,0.559906,-1.0682063,1.1943884,-6.5118866
1570726940,1.4802856,9.057571,-1.1262817,-2.888382,0.33763123,0.5087738,1.8183581,-0.4822502,-6.196469
1570726940,-1.5735168,9.393951,1.9179535,-2.4889069,0.29927063,0.977478,-0.732849,-0.04188156,-3.3505287
1570726940,-4.0000305,8.831314,0.6968994,-2.8670654,1.57547,1.500534,-3.7036905,-0.047491074,-4.6087556
1570726940,-3.191986,6.2360077,0.96624756,-2.9959717,1.3048859,0.96577454,-3.2332077,-1.9309378,-5.3481083
1570726940,-1.653717,4.434372,3.015686,-2.3312378,0.4846344,0.5034485,-1.6092147,-3.4446435,-4.3666773
1570726940,0.37297058,4.753998,2.6661377,-1.7176514,0.38449097,0.4895935,0.36407617,-2.6950517,-4.9076347
1570726940,-0.38598633,5.0532684,4.003296,-1.1200409,1.0130005,0.57907104,0.015156865,-1.9741364,-4.216832
1570726940,-1.9781342,2.9739075,4.925064,0.07624817,0.99916077,0.6365967,-1.4518749,-3.6756868,-2.6426153
1570726940,-2.780182,1.3769684,4.5515747,0.805954,0.7530823,0.480011,-2.3099031,-5.5694175,-3.4174485
1570726940,-3.511612,1.4511871,7.371933,1.6688232,-0.0021972656,0.20410156,-3.1059294,-5.7717233,-0.34879255
1570726940,-1.3113403,4.490631,15.766006,1.7412567,-0.92471313,-0.39457703,-1.2071187,-4.016396,7.3508453
1570726940,2.3924866,16.587341,8.278137,3.0067902,-1.0621338,-0.5223999,1.8258142,6.7039948,4.2422214
1570726940,-5.3443756,22.773956,2.047226,1.4749451,-0.53482056,-0.888855,-2.5441015,17.247635,-10.610943
1570726940,0.607605,6.577179,1.9993439,1.8350067,0.20446777,-0.18365479,1.2026649,-2.1549587,-3.5305505
1570726940,-0.3824005,6.3940277,3.0875092,1.9266205,-0.38142395,-0.39883423,0.1995951,-2.9439306,-2.0027514
1570726940,-0.9402466,10.085876,2.2124329,2.3729553,-0.88742065,-1.0092316,-0.256365,-0.15396214,-1.8494697
1570726940,-3.4493713,16.04625,-0.40203857,2.0672302,-0.43043518,-1.1700897,-2.552941,5.8633223,-4.472719
1570726940,-1.1090393,12.873932,1.868866,1.9180908,0.6060791,-0.43717957,-0.35579014,3.677415,-1.6205764
1570726940,-0.3105774,9.306564,2.6421967,1.9926605,-0.25572205,-0.15914917,0.9390669,-0.7193661,0.11521077
1570726940,-0.7846222,9.718369,0.11869812,1.7753448,-0.47624207,-0.16873169,0.42229462,-0.81892014,-1.71155
1570726940,1.0696869,8.761887,-0.026138306,1.4824066,0.37597656,-0.1697998,2.0705407,-1.3662424,-1.831754
1570726940,-0.6038666,8.57753,2.5021362,1.4962463,0.87664795,-0.18045044,0.9767648,-1.8501253,0.90157664
1570726941,-0.3907776,10.437836,1.6916962,2.155655,0.32484436,0.6152954,0.8524779,-0.0010700226,1.173548
1570726941,-0.38838196,9.007294,1.7874603,2.574295,-0.9833069,0.958313,0.86814696,-1.4284086,2.6709204
1570726941,-1.392746,8.650558,-0.15663147,1.1479034,0.5357666,-0.31681824,-0.27489626,-1.9605541,-0.38373584
1570726941,1.0768738,11.518814,2.4135437,0.5247345,-0.0011291504,-0.64172363,1.9641778,1.0264521,3.531981
1570726941,2.9335785,11.316498,-0.9060211,0.6451111,-0.47729492,-0.30403137,3.9754004,1.0622168,0.8269228
1570726941,1.2480621,12.250244,-0.3433838,0.7036896,-0.21951294,-0.21453857,2.919691,1.6536303,1.0062054
1570726941,-1.5016785,13.103775,-0.012969971,0.75375366,-0.08421326,-0.3136139,0.080836415,2.6873703,1.4718803
1570726941,-2.6856232,16.431717,-1.1957092,0.45335388,0.15759277,-0.6406555,-1.2079695,5.908849,0.69354165
1570726941,-0.96658325,18.523056,0.6346588,-0.55651855,0.06704712,-0.4819336,0.6134535,8.140021,2.1856792
1570726941,-1.7901917,18.253708,1.7659149,-1.5472107,-0.041610718,-4.272461E-4,-0.12853491,8.145576,2.9763794
1570726941,-1.4693604,14.906601,4.320526,-3.0119476,-0.15559387,0.37667847,0.12958086,4.415037,4.8916473
1570726941,-0.5344238,14.23024,7.138504,-3.7874603,-1.3337708,0.37347412,0.9273615,3.679988,6.588755
1570726941,-1.6010437,16.054626,1.1338501,-3.5552368,-2.961502,0.6792145,-0.26749873,5.4632406,-0.20495379
1570726941,-2.6880188,12.635712,-4.3824005,-3.4252777,-1.2826385,1.0818787,-1.4594314,2.758357,-7.450779
1570726941,-1.1377716,8.73436,-4.618225,-2.4324493,0.5900879,0.82302856,-0.6498006,-1.3103237,-8.559453
1570726941,-0.58470154,7.4163513,-0.05368042,-2.699829,0.34295654,0.5609741,-0.27072582,-2.3764477,-4.464085
1570726941,-1.4825287,8.979767,4.094269,-2.7797241,1.1248627,0.79959106,-0.82989097,-0.6245594,-1.2934718
1570726941,-1.7123718,8.443466,1.0165253,-2.7434998,0.84895325,1.3055878,-1.5698591,-0.3373785,-4.0208187
1570726941,-1.9158783,6.147415,1.7551422,-2.7690735,1.1546783,0.84965515,-1.7545232,-1.9672537,-5.6394296
1570726941,-0.99531555,4.8389893,2.5308685,-1.8614655,0.12882996,0.782547,-1.0523766,-3.057539,-4.4230757
1570726941,-0.19085693,4.674988,2.6697235,-1.6271057,0.8383026,0.721817,-0.2587384,-2.8390832,-4.7874565
1570726941,-0.56196594,4.283539,3.5903015,-1.0912781,1.35495,0.77827454,-0.52355313,-2.9192233,-4.097283
1570726941,-1.8859558,2.9308167,4.917877,0.060272217,0.88090515,0.5971832,-1.6695968,-4.0933776,-2.9424152
1570726941,-3.5283813,2.1359406,6.6620636,0.9891815,0.16505432,0.52368164,-3.313634,-4.948274,-1.034719
1570726941,-1.4514008,1.568512,8.633682,2.0512543,-0.5145874,0.24990845,-1.517706,-5.918898,1.0765285
1570726941,-1.1341705,6.5472565,17.558075,1.8062439,-1.5138092,-0.48086548,-1.1910672,-1.6713424,10.739133
1570726941,3.2699585,16.830353,-3.8508759,2.9290314,-2.5684204,-0.6939087,3.2037015,8.068553,-9.896339
1570726941,-5.2174835,21.36377,5.5583344,1.8776093,0.5080719,-0.6150818,-5.429039,13.159071,-0.083161354
1570726941,1.8118896,7.917938,1.2691193,2.0214233,0.19488525,-0.24969482,1.6513621,-1.1775007,-3.7703557
1570726941,-0.48414612,7.067993,4.351654,2.0107727,-1.0110016,-0.8356018,-0.4053094,-2.5373793,-0.105257034
1570726941,-1.8320923,9.227554,0.088775635,2.4677734,-0.86932373,-1.4396057,-1.5309432,-0.8011837,-3.4694011
1570726941,-2.658081,13.887878,-1.0149536,1.8158264,0.16291809,-1.4268188,-2.0509186,3.682971,-4.1950436
1570726941,-0.38479614,14.287704,1.4822083,1.6837311,1.4721375,-0.8707428,0.53694355,4.155487,-1.2753739
1570726941,0.8194885,11.033981,2.4686127,1.7828064,0.731781,-0.36367798,2.078041,1.1374397,0.3946321
1570726942,-0.7343445,9.715973,0.7076721,1.5367279,-0.13002014,-0.07499695,0.6967387,-0.6871481,-0.78209436
1570726942,-1.90271,9.602249,1.0009613,1.4142303,-0.21737671,0.15083313,-0.5543127,-0.83296204,-0.03935325
1570726942,-0.94862366,8.691254,1.2810822,1.6858673,0.24601746,0.003829956,0.33292556,-1.7116365,0.37630963
1570726942,-0.50450134,9.28981,1.7862701,1.8882751,0.17463684,0.29678345,0.6799481,-1.0572796,1.4832202
1570726942,1.2193298,8.532043,-0.5097809,1.8137054,-1.6746521,0.3958435,2.3388586,-1.9243937,0.4051606
1570726942,-0.4302826,9.147354,-0.27275085,1.1074219,0.50914,-0.3050995,0.59747136,-1.5435762,0.25613147
1570726942,0.83984375,11.049545,-0.54808044,0.89224243,-0.19607544,-0.41481018,2.1074529,0.15699005,0.85126245
1570726942,-0.33810425,12.956528,0.12947083,0.5151367,-0.09060669,-0.47872925,1.0992005,2.566104,1.5393865
1570726942,-0.18606567,12.929001,0.81422424,0.9806671,0.051071167,-0.6896515,1.3000793,2.7089128,2.7138996
1570726942,-0.3620453,14.670776,-2.471817,1.1042328,-0.05758667,-0.7663574,1.3814679,4.2940006,-0.30187368
1570726942,-2.3743744,18.444046,-1.0185394,0.501297,0.3546753,-0.54371643,-0.30768538,8.034164,1.0840914
1570726942,-3.9808807,18.238144,1.8209839,-0.91337585,0.15226746,-0.20602417,-1.9490848,8.073375,3.9937816
1570726942,-3.0782623,14.396637,2.4757996,-2.141632,-0.45385742,0.14871216,-1.2368855,4.3371477,4.1701355
1570726942,-1.4945068,13.681976,3.2395477,-3.0225983,-0.5284271,0.42674255,0.45509386,3.0826235,3.9568472
1570726942,-0.21839905,15.871475,3.8524628,-3.4487,-1.4477539,0.5961151,1.5070721,5.196906,3.6235275
1570726942,0.30114746,14.494812,-0.80784607,-3.5839996,-1.7449646,0.9103699,1.8193477,4.058796,-2.1400142
1570726942,-3.8456116,11.043564,-2.6741333,-2.9597473,0.15226746,1.2043915,-2.0151393,0.7653742,-5.587515
1570726942,-3.1548767,7.859268,-3.51091,-2.9895782,0.82125854,0.8123627,-2.4074233,-2.2155647,-7.122046
1570726942,-2.720337,7.554016,3.6657104,-2.984253,0.671051,0.18919373,-1.5381429,-2.5247898,-1.9789281
1570726942,-3.0615082,9.888367,1.5456543,-2.8457642,0.26412964,0.87416077,-2.5812182,0.37123966,-3.0371232
1570726942,-1.2622681,8.942657,0.8010559,-2.9299164,-0.09700012,0.97961426,-0.74054164,0.2946596,-4.9793086
1570726942,-1.1880493,6.762726,3.4322815,-2.7062225,-0.09060669,0.85072327,-0.87330496,-1.6084833,-3.4162974
1570726942,-0.21600342,5.481827,0.6238861,-2.237503,0.37278748,0.911438,-0.25645208,-2.2859826,-6.535744
1570726942,-0.38000488,3.6753998,2.9199219,-1.964798,0.92884827,0.8283539,-0.32105502,-3.4333344,-4.702634
1570726942,-1.3269043,1.6104126,4.862808,-1.0071259,0.94270325,0.7154236,-1.2586545,-5.361175,-3.0651875
1570726942,-0.9318695,1.4224701,6.070694,0.31381226,0.34402466,0.41609192,-0.798471,-5.715363,-2.1393995
1570726942,-0.57632446,1.5517578,5.486511,1.122345,-0.3100586,0.31808472,-0.5810671,-5.488511,-2.1908994
1570726942,1.1714478,2.5824585,5.849228,1.8179626,-0.37290955,0.09118652,0.91658294,-4.8837767,-1.9823623
1570726942,-0.6110382,3.4659119,9.386658,2.8693695,-1.2325745,-0.32958984,-0.207394,-4.5528164,2.704999
1570726942,-4.502823,11.188416,25.360779,2.302658,-1.3433533,-0.60124207,-4.8907104,0.5693188,15.695192
1570726942,9.577484,34.543854,8.503204,3.3902893,-2.7282104,-0.5511627,4.974588,16.78822,17.616447
1570726943,9.577484,34.543854,8.503204,3.3902893,-2.7282104,-0.5511627,4.974588,16.78822,17.616447
1570726943,9.577484,34.543854,8.503204,3.3902893,-2.7282104,-0.5511627,4.974588,16.78822,17.616447
1570726943,9.577484,34.543854,8.503204,3.3902893,-2.7282104,-0.5511627,4.974588,16.78822,17.616447
1570726943,9.577484,34.543854,8.503204,3.3902893,-2.7282104,-0.5511627,4.974588,16.78822,17.616447
1570726943,9.577484,34.543854,8.503204,3.3902893,-2.7282104,-0.5511627,4.974588,16.78822,17.616447
1570726943,9.577484,34.543854,8.503204,3.3902893,-2.7282104,-0.5511627,4.974588,16.78822,17.616447
1570726943,9.577484,34.543854,8.503204,3.3902893,-2.7282104,-0.5511627,4.974588,16.78822,17.616447
1570726943,9.577484,34.543854,8.503204,3.3902893,-2.7282104,-0.5511627,4.974588,16.78822,17.616447
1570726943,9.577484,34.543854,8.503204,3.3902893,-2.7282104,-0.5511627,4.974588,16.78822,17.616447
1570726943,9.577484,34.543854,8.503204,3.3902893,-2.7282104,-0.5511627,4.974588,16.78822,17.616447
1570726943,0.4040985,8.573944,-0.04170227,1.809433,-1.417923,1.4579163,0.9429141,-1.8395586,1.3702538
1570726943,0.4040985,8.573944,-0.04170227,1.809433,-1.417923,1.4579163,0.9429141,-1.8395586,1.3702538
1570726943,0.4040985,8.573944,-0.04170227,1.809433,-1.417923,1.4579163,0.9429141,-1.8395586,1.3702538
1570726943,0.4040985,8.573944,-0.04170227,1.809433,-1.417923,1.4579163,0.9429141,-1.8395586,1.3702538
1570726943,0.4040985,8.573944,-0.04170227,1.809433,-1.417923,1.4579163,0.9429141,-1.8395586,1.3702538
1570726943,0.4040985,8.573944,-0.04170227,1.809433,-1.417923,1.4579163,0.9429141,-1.8395586,1.3702538
1570726943,0.4040985,8.573944,-0.04170227,1.809433,-1.417923,1.4579163,0.9429141,-1.8395586,1.3702538
1570726943,0.4040985,8.573944,-0.04170227,1.809433,-1.417923,1.4579163,0.9429141,-1.8395586,1.3702538
1570726943,0.4040985,8.573944,-0.04170227,1.809433,-1.417923,1.4579163,0.9429141,-1.8395586,1.3702538
1570726943,0.4040985,8.573944,-0.04170227,1.809433,-1.417923,1.4579163,0.9429141,-1.8395586,1.3702538
1570726943,0.4040985,8.573944,-0.04170227,1.809433,-1.417923,1.4579163,0.9429141,-1.8395586,1.3702538
1570726943,0.4040985,8.573944,-0.04170227,1.809433,-1.417923,1.4579163,0.9429141,-1.8395586,1.3702538
1570726943,-0.77264404,12.848785,0.14863586,-0.2273407,0.11605835,-0.57566833,1.1074808,2.9692612,2.7937014
1570726948,-0.77264404,12.848785,0.14863586,-0.2273407,0.11605835,-0.57566833,1.1074808,2.9692612,2.7937014
1570726948,-0.77264404,12.848785,0.14863586,-0.2273407,0.11605835,-0.57566833,1.1074808,2.9692612,2.7937014
1570726948,-0.77264404,12.848785,0.14863586,-0.2273407,0.11605835,-0.57566833,1.1074808,2.9692612,2.7937014
1570726948,-0.77264404,12.848785,0.14863586,-0.2273407,0.11605835,-0.57566833,1.1074808,2.9692612,2.7937014
1570726948,-0.77264404,12.848785,0.14863586,-0.2273407,0.11605835,-0.57566833,1.1074808,2.9692612,2.7937014
1570726948,-0.77264404,12.848785,0.14863586,-0.2273407,0.11605835,-0.57566833,1.1074808,2.9692612,2.7937014
1570726948,-0.77264404,12.848785,0.14863586,-0.2273407,0.11605835,-0.57566833,1.1074808,2.9692612,2.7937014
1570726948,-0.77264404,12.848785,0.14863586,-0.2273407,0.11605835,-0.57566833,1.1074808,2.9692612,2.7937014
1570726948,-0.77264404,12.848785,0.14863586,-0.2273407,0.11605835,-0.57566833,1.1074808,2.9692612,2.7937014
1570726948,-0.77264404,12.848785,0.14863586,-0.2273407,0.11605835,-0.57566833,1.1074808,2.9692612,2.7937014
1570726948,-0.77264404,12.848785,0.14863586,-0.2273407,0.11605835,-0.57566833,1.1074808,2.9692612,2.7937014
1570726948,-0.77264404,12.848785,0.14863586,-0.2273407,0.11605835,-0.57566833,1.1074808,2.9692612,2.7937014
1570726948,-0.77264404,12.848785,0.14863586,-0.2273407,0.11605835,-0.57566833,1.1074808,2.9692612,2.7937014
1570726948,-0.77264404,12.848785,0.14863586,-0.2273407,0.11605835,-0.57566833,1.1074808,2.9692612,2.7937014
1570726948,-0.77264404,12.848785,0.14863586,-0.2273407,0.11605835,-0.57566833,1.1074808,2.9692612,2.7937014
1570726948,-0.77264404,12.848785,0.14863586,-0.2273407,0.11605835,-0.57566833,1.1074808,2.9692612,2.7937014
1570726948,-0.77264404,12.848785,0.14863586,-0.2273407,0.11605835,-0.57566833,1.1074808,2.9692612,2.7937014
1570726948,-0.77264404,12.848785,0.14863586,-0.2273407,0.11605835,-0.57566833,1.1074808,2.9692612,2.7937014
1570726948,-0.77264404,12.848785,0.14863586,-0.2273407,0.11605835,-0.57566833,1.1074808,2.9692612,2.7937014
1570726948,-0.77264404,12.848785,0.14863586,-0.2273407,0.11605835,-0.57566833,1.1074808,2.9692612,2.7937014
1570726948,-0.77264404,12.848785,0.14863586,-0.2273407,0.11605835,-0.57566833,1.1074808,2.9692612,2.7937014
1570726948,-0.77264404,12.848785,0.14863586,-0.2273407,0.11605835,-0.57566833,1.1074808,2.9692612,2.7937014
1570726948,-0.77264404,12.848785,0.14863586,-0.2273407,0.11605835,-0.57566833,1.1074808,2.9692612,2.7937014
1570726948,-0.77264404,12.848785,0.14863586,-0.2273407,0.11605835,-0.57566833,1.1074808,2.9692612,2.7937014
1570726948,-0.77264404,12.848785,0.14863586,-0.2273407,0.11605835,-0.57566833,1.1074808,2.9692612,2.7937014
1570726948,-0.77264404,12.848785,0.14863586,-0.2273407,0.11605835,-0.57566833,1.1074808,2.9692612,2.7937014
1570726948,-0.77264404,12.848785,0.14863586,-0.2273407,0.11605835,-0.57566833,1.1074808,2.9692612,2.7937014
1570726948,-0.77264404,12.848785,0.14863586,-0.2273407,0.11605835,-0.57566833,1.1074808,2.9692612,2.7937014
1570726948,-0.77264404,12.848785,0.14863586,-0.2273407,0.11605835,-0.57566833,1.1074808,2.9692612,2.7937014
1570726948,-0.77264404,12.848785,0.14863586,-0.2273407,0.11605835,-0.57566833,1.1074808,2.9692612,2.7937014
1570726948,-0.77264404,12.848785,0.14863586,-0.2273407,0.11605835,-0.57566833,1.1074808,2.9692612,2.7937014
1570726948,-0.77264404,12.848785,0.14863586,-0.2273407,0.11605835,-0.57566833,1.1074808,2.9692612,2.7937014
1570726948,-0.77264404,12.848785,0.14863586,-0.2273407,0.11605835,-0.57566833,1.1074808,2.9692612,2.7937014
1570726948,-0.77264404,12.848785,0.14863586,-0.2273407,0.11605835,-0.57566833,1.1074808,2.9692612,2.7937014
1570726948,-0.77264404,12.848785,0.14863586,-0.2273407,0.11605835,-0.57566833,1.1074808,2.9692612,2.7937014
1570726948,-0.77264404,12.848785,0.14863586,-0.2273407,0.11605835,-0.57566833,1.1074808,2.9692612,2.7937014
1570726948,-0.77264404,12.848785,0.14863586,-0.2273407,0.11605835,-0.57566833,1.1074808,2.9692612,2.7937014
1570726948,-0.77264404,12.848785,0.14863586,-0.2273407,0.11605835,-0.57566833,1.1074808,2.9692612,2.7937014
1570726948,-0.77264404,12.848785,0.14863586,-0.2273407,0.11605835,-0.57566833,1.1074808,2.9692612,2.7937014
1570726948,-0.77264404,12.848785,0.14863586,-0.2273407,0.11605835,-0.57566833,1.1074808,2.9692612,2.7937014
1570726948,-0.77264404,12.848785,0.14863586,-0.2273407,0.11605835,-0.57566833,1.1074808,2.9692612,2.7937014
1570726948,-0.77264404,12.848785,0.14863586,-0.2273407,0.11605835,-0.57566833,1.1074808,2.9692612,2.7937014
1570726948,-0.77264404,12.848785,0.14863586,-0.2273407,0.11605835,-0.57566833,1.1074808,2.9692612,2.7937014
1570726948,-0.77264404,12.848785,0.14863586,-0.2273407,0.11605835,-0.57566833,1.1074808,2.9692612,2.7937014
1570726948,-0.77264404,12.848785,0.14863586,-0.2273407,0.11605835,-0.57566833,1.1074808,2.9692612,2.7937014
1570726948,-0.77264404,12.848785,0.14863586,-0.2273407,0.11605835,-0.57566833,1.1074808,2.9692612,2.7937014
1570726948,-0.77264404,12.848785,0.14863586,-0.2273407,0.11605835,-0.57566833,1.1074808,2.9692612,2.7937014
1570726948,-0.77264404,12.848785,0.14863586,-0.2273407,0.11605835,-0.57566833,1.1074808,2.9692612,2.7937014
1570726948,-0.77264404,12.848785,0.14863586,-0.2273407,0.11605835,-0.57566833,1.1074808,2.9692612,2.7937014
1570726948,-0.77264404,12.848785,0.14863586,-0.2273407,0.11605835,-0.57566833,1.1074808,2.9692612,2.7937014
1570726948,-0.77264404,12.848785,0.14863586,-0.2273407,0.11605835,-0.57566833,1.1074808,2.9692612,2.7937014
1570726948,-0.77264404,12.848785,0.14863586,-0.2273407,0.11605835,-0.57566833,1.1074808,2.9692612,2.7937014
1570726948,-0.77264404,12.848785,0.14863586,-0.2273407,0.11605835,-0.57566833,1.1074808,2.9692612,2.7937014
1570726948,-0.77264404,12.848785,0.14863586,-0.2273407,0.11605835,-0.57566833,1.1074808,2.9692612,2.7937014
1570726948,-0.77264404,12.848785,0.14863586,-0.2273407,0.11605835,-0.57566833,1.1074808,2.9692612,2.7937014
1570726948,-0.77264404,12.848785,0.14863586,-0.2273407,0.11605835,-0.57566833,1.1074808,2.9692612,2.7937014
1570726948,-0.77264404,12.848785,0.14863586,-0.2273407,0.11605835,-0.57566833,1.1074808,2.9692612,2.7937014
1570726948,-0.77264404,12.848785,0.14863586,-0.2273407,0.11605835,-0.57566833,1.1074808,2.9692612,2.7937014
1570726948,-0.77264404,12.848785,0.14863586,-0.2273407,0.11605835,-0.57566833,1.1074808,2.9692612,2.7937014
1570726948,-0.77264404,12.848785,0.14863586,-0.2273407,0.11605835,-0.57566833,1.1074808,2.9692612,2.7937014
1570726948,-0.77264404,12.848785,0.14863586,-0.2273407,0.11605835,-0.57566833,1.1074808,2.9692612,2.7937014
1570726948,-0.77264404,12.848785,0.14863586,-0.2273407,0.11605835,-0.57566833,1.1074808,2.9692612,2.7937014
1570726948,-0.77264404,12.848785,0.14863586,-0.2273407,0.11605835,-0.57566833,1.1074808,2.9692612,2.7937014
1570726948,-0.77264404,12.848785,0.14863586,-0.2273407,0.11605835,-0.57566833,1.1074808,2.9692612,2.7937014
1570726948,-0.77264404,12.848785,0.14863586,-0.2273407,0.11605835,-0.57566833,1.1074808,2.9692612,2.7937014
1570726948,-0.77264404,12.848785,0.14863586,-0.2273407,0.11605835,-0.57566833,1.1074808,2.9692612,2.7937014
1570726948,-0.77264404,12.848785,0.14863586,-0.2273407,0.11605835,-0.57566833,1.1074808,2.9692612,2.7937014
1570726948,-0.77264404,12.848785,0.14863586,-0.2273407,0.11605835,-0.57566833,1.1074808,2.9692612,2.7937014
1570726948,-0.77264404,12.848785,0.14863586,-0.2273407,0.11605835,-0.57566833,1.1074808,2.9692612,2.7937014
1570726948,-0.77264404,12.848785,0.14863586,-0.2273407,0.11605835,-0.57566833,1.1074808,2.9692612,2.7937014
1570726948,-0.77264404,12.848785,0.14863586,-0.2273407,0.11605835,-0.57566833,1.1074808,2.9692612,2.7937014
1570726948,-0.77264404,12.848785,0.14863586,-0.2273407,0.11605835,-0.57566833,1.1074808,2.9692612,2.7937014
1570726948,-0.77264404,12.848785,0.14863586,-0.2273407,0.11605835,-0.57566833,1.1074808,2.9692612,2.7937014
1570726948,-0.77264404,12.848785,0.14863586,-0.2273407,0.11605835,-0.57566833,1.1074808,2.9692612,2.7937014
1570726948,-0.77264404,12.848785,0.14863586,-0.2273407,0.11605835,-0.57566833,1.1074808,2.9692612,2.7937014
1570726948,-0.77264404,12.848785,0.14863586,-0.2273407,0.11605835,-0.57566833,1.1074808,2.9692612,2.7937014
1570726948,-0.77264404,12.848785,0.14863586,-0.2273407,0.11605835,-0.57566833,1.1074808,2.9692612,2.7937014
1570726948,-0.77264404,12.848785,0.14863586,-0.2273407,0.11605835,-0.57566833,1.1074808,2.9692612,2.7937014
1570726948,-0.77264404,12.848785,0.14863586,-0.2273407,0.11605835,-0.57566833,1.1074808,2.9692612,2.7937014
1570726948,-0.77264404,12.848785,0.14863586,-0.2273407,0.11605835,-0.57566833,1.1074808,2.9692612,2.7937014
1570726948,-0.77264404,12.848785,0.14863586,-0.2273407,0.11605835,-0.57566833,1.1074808,2.9692612,2.7937014
1570726948,-0.77264404,12.848785,0.14863586,-0.2273407,0.11605835,-0.57566833,1.1074808,2.9692612,2.7937014
1570726948,-0.77264404,12.848785,0.14863586,-0.2273407,0.11605835,-0.57566833,1.1074808,2.9692612,2.7937014
1570726948,-0.77264404,12.848785,0.14863586,-0.2273407,0.11605835,-0.57566833,1.1074808,2.9692612,2.7937014
1570726948,-0.77264404,12.848785,0.14863586,-0.2273407,0.11605835,-0.57566833,1.1074808,2.9692612,2.7937014
1570726948,-0.77264404,12.848785,0.14863586,-0.2273407,0.11605835,-0.57566833,1.1074808,2.9692612,2.7937014
1570726948,-0.77264404,12.848785,0.14863586,-0.2273407,0.11605835,-0.57566833,1.1074808,2.9692612,2.7937014
1570726948,-0.77264404,12.848785,0.14863586,-0.2273407,0.11605835,-0.57566833,1.1074808,2.9692612,2.7937014
1570726948,-0.77264404,12.848785,0.14863586,-0.2273407,0.11605835,-0.57566833,1.1074808,2.9692612,2.7937014
1570726948,-0.77264404,12.848785,0.14863586,-0.2273407,0.11605835,-0.57566833,1.1074808,2.9692612,2.7937014
1570726948,-0.77264404,12.848785,0.14863586,-0.2273407,0.11605835,-0.57566833,1.1074808,2.9692612,2.7937014
1570726948,-0.77264404,12.848785,0.14863586,-0.2273407,0.11605835,-0.57566833,1.1074808,2.9692612,2.7937014
1570726948,-0.77264404,12.848785,0.14863586,-0.2273407,0.11605835,-0.57566833,1.1074808,2.9692612,2.7937014
1570726948,-0.77264404,12.848785,0.14863586,-0.2273407,0.11605835,-0.57566833,1.1074808,2.9692612,2.7937014
1570726948,-0.77264404,12.848785,0.14863586,-0.2273407,0.11605835,-0.57566833,1.1074808,2.9692612,2.7937014
1570726948,-0.77264404,12.848785,0.14863586,-0.2273407,0.11605835,-0.57566833,1.1074808,2.9692612,2.7937014
1570726948,-0.77264404,12.848785,0.14863586,-0.2273407,0.11605835,-0.57566833,1.1074808,2.9692612,2.7937014
1570726948,-0.77264404,12.848785,0.14863586,-0.2273407,0.11605835,-0.57566833,1.1074808,2.9692612,2.7937014
1570726948,-0.77264404,12.848785,0.14863586,-0.2273407,0.11605835,-0.57566833,1.1074808,2.9692612,2.7937014
1570726948,-0.77264404,12.848785,0.14863586,-0.2273407,0.11605835,-0.57566833,1.1074808,2.9692612,2.7937014
1570726948,-0.77264404,12.848785,0.14863586,-0.2273407,0.11605835,-0.57566833,1.1074808,2.9692612,2.7937014
1570726948,-0.77264404,12.848785,0.14863586,-0.2273407,0.11605835,-0.57566833,1.1074808,2.9692612,2.7937014
1570726948,-0.77264404,12.848785,0.14863586,-0.2273407,0.11605835,-0.57566833,1.1074808,2.9692612,2.7937014
1570726948,-0.77264404,12.848785,0.14863586,-0.2273407,0.11605835,-0.57566833,1.1074808,2.9692612,2.7937014
1570726948,-0.77264404,12.848785,0.14863586,-0.2273407,0.11605835,-0.57566833,1.1074808,2.9692612,2.7937014
1570726948,-0.77264404,12.848785,0.14863586,-0.2273407,0.11605835,-0.57566833,1.1074808,2.9692612,2.7937014
1570726948,-0.77264404,12.848785,0.14863586,-0.2273407,0.11605835,-0.57566833,1.1074808,2.9692612,2.7937014
1570726948,-0.77264404,12.848785,0.14863586,-0.2273407,0.11605835,-0.57566833,1.1074808,2.9692612,2.7937014
1570726948,-0.77264404,12.848785,0.14863586,-0.2273407,0.11605835,-0.57566833,1.1074808,2.9692612,2.7937014
1570726948,-0.77264404,12.848785,0.14863586,-0.2273407,0.11605835,-0.57566833,1.1074808,2.9692612,2.7937014
1570726948,-0.77264404,12.848785,0.14863586,-0.2273407,0.11605835,-0.57566833,1.1074808,2.9692612,2.7937014
1570726948,-0.77264404,12.848785,0.14863586,-0.2273407,0.11605835,-0.57566833,1.1074808,2.9692612,2.7937014
1570726948,-0.77264404,12.848785,0.14863586,-0.2273407,0.11605835,-0.57566833,1.1074808,2.9692612,2.7937014
1570726948,-0.77264404,12.848785,0.14863586,-0.2273407,0.11605835,-0.57566833,1.1074808,2.9692612,2.7937014
1570726948,-0.77264404,12.848785,0.14863586,-0.2273407,0.11605835,-0.57566833,1.1074808,2.9692612,2.7937014
1570726948,-0.77264404,12.848785,0.14863586,-0.2273407,0.11605835,-0.57566833,1.1074808,2.9692612,2.7937014
1570726948,-0.77264404,12.848785,0.14863586,-0.2273407,0.11605835,-0.57566833,1.1074808,2.9692612,2.7937014
1570726948,-0.77264404,12.848785,0.14863586,-0.2273407,0.11605835,-0.57566833,1.1074808,2.9692612,2.7937014
1570726948,-0.77264404,12.848785,0.14863586,-0.2273407,0.11605835,-0.57566833,1.1074808,2.9692612,2.7937014
1570726948,-0.77264404,12.848785,0.14863586,-0.2273407,0.11605835,-0.57566833,1.1074808,2.9692612,2.7937014
1570726948,-0.77264404,12.848785,0.14863586,-0.2273407,0.11605835,-0.57566833,1.1074808,2.9692612,2.7937014
1570726948,-0.77264404,12.848785,0.14863586,-0.2273407,0.11605835,-0.57566833,1.1074808,2.9692612,2.7937014
1570726948,-0.77264404,12.848785,0.14863586,-0.2273407,0.11605835,-0.57566833,1.1074808,2.9692612,2.7937014
1570726948,-0.77264404,12.848785,0.14863586,-0.2273407,0.11605835,-0.57566833,1.1074808,2.9692612,2.7937014
1570726948,-0.77264404,12.848785,0.14863586,-0.2273407,0.11605835,-0.57566833,1.1074808,2.9692612,2.7937014
1570726948,-0.77264404,12.848785,0.14863586,-0.2273407,0.11605835,-0.57566833,1.1074808,2.9692612,2.7937014
1570726948,-0.77264404,12.848785,0.14863586,-0.2273407,0.11605835,-0.57566833,1.1074808,2.9692612,2.7937014
1570726948,-0.77264404,12.848785,0.14863586,-0.2273407,0.11605835,-0.57566833,1.1074808,2.9692612,2.7937014
1570726948,-0.77264404,12.848785,0.14863586,-0.2273407,0.11605835,-0.57566833,1.1074808,2.9692612,2.7937014
1570726948,-0.77264404,12.848785,0.14863586,-0.2273407,0.11605835,-0.57566833,1.1074808,2.9692612,2.7937014
1570726948,-0.77264404,12.848785,0.14863586,-0.2273407,0.11605835,-0.57566833,1.1074808,2.9692612,2.7937014
1570726948,-0.77264404,12.848785,0.14863586,-0.2273407,0.11605835,-0.57566833,1.1074808,2.9692612,2.7937014
1570726948,-0.77264404,12.848785,0.14863586,-0.2273407,0.11605835,-0.57566833,1.1074808,2.9692612,2.7937014
1570726948,-0.77264404,12.848785,0.14863586,-0.2273407,0.11605835,-0.57566833,1.1074808,2.9692612,2.7937014
1570726948,-0.77264404,12.848785,0.14863586,-0.2273407,0.11605835,-0.57566833,1.1074808,2.9692612,2.7937014
1570726948,-0.77264404,12.848785,0.14863586,-0.2273407,0.11605835,-0.57566833,1.1074808,2.9692612,2.7937014
1570726948,-0.77264404,12.848785,0.14863586,-0.2273407,0.11605835,-0.57566833,1.1074808,2.9692612,2.7937014
1570726948,-0.77264404,12.848785,0.14863586,-0.2273407,0.11605835,-0.57566833,1.1074808,2.9692612,2.7937014
1570726948,-0.77264404,12.848785,0.14863586,-0.2273407,0.11605835,-0.57566833,1.1074808,2.9692612,2.7937014
1570726948,-0.77264404,12.848785,0.14863586,-0.2273407,0.11605835,-0.57566833,1.1074808,2.9692612,2.7937014
1570726948,-0.77264404,12.848785,0.14863586,-0.2273407,0.11605835,-0.57566833,1.1074808,2.9692612,2.7937014
1570726948,-0.77264404,12.848785,0.14863586,-0.2273407,0.11605835,-0.57566833,1.1074808,2.9692612,2.7937014
1570726948,-0.77264404,12.848785,0.14863586,-0.2273407,0.11605835,-0.57566833,1.1074808,2.9692612,2.7937014
1570726948,-0.77264404,12.848785,0.14863586,-0.2273407,0.11605835,-0.57566833,1.1074808,2.9692612,2.7937014
1570726948,-0.77264404,12.848785,0.14863586,-0.2273407,0.11605835,-0.57566833,1.1074808,2.9692612,2.7937014
1570726948,-0.77264404,12.848785,0.14863586,-0.2273407,0.11605835,-0.57566833,1.1074808,2.9692612,2.7937014
1570726948,-0.77264404,12.848785,0.14863586,-0.2273407,0.11605835,-0.57566833,1.1074808,2.9692612,2.7937014
1570726948,-0.77264404,12.848785,0.14863586,-0.2273407,0.11605835,-0.57566833,1.1074808,2.9692612,2.7937014
1570726948,-0.77264404,12.848785,0.14863586,-0.2273407,0.11605835,-0.57566833,1.1074808,2.9692612,2.7937014
1570726948,-0.77264404,12.848785,0.14863586,-0.2273407,0.11605835,-0.57566833,1.1074808,2.9692612,2.7937014
1570726948,-0.77264404,12.848785,0.14863586,-0.2273407,0.11605835,-0.57566833,1.1074808,2.9692612,2.7937014
1570726948,-0.77264404,12.848785,0.14863586,-0.2273407,0.11605835,-0.57566833,1.1074808,2.9692612,2.7937014
1570726948,-0.77264404,12.848785,0.14863586,-0.2273407,0.11605835,-0.57566833,1.1074808,2.9692612,2.7937014
1570726948,-0.77264404,12.848785,0.14863586,-0.2273407,0.11605835,-0.57566833,1.1074808,2.9692612,2.7937014
1570726948,-0.77264404,12.848785,0.14863586,-0.2273407,0.11605835,-0.57566833,1.1074808,2.9692612,2.7937014
1570726948,-0.77264404,12.848785,0.14863586,-0.2273407,0.11605835,-0.57566833,1.1074808,2.9692612,2.7937014
1570726948,-0.77264404,12.848785,0.14863586,-0.2273407,0.11605835,-0.57566833,1.1074808,2.9692612,2.7937014
1570726948,-0.77264404,12.848785,0.14863586,-0.2273407,0.11605835,-0.57566833,1.1074808,2.9692612,2.7937014
1570726948,-0.77264404,12.848785,0.14863586,-0.2273407,0.11605835,-0.57566833,1.1074808,2.9692612,2.7937014
1570726948,-0.77264404,12.848785,0.14863586,-0.2273407,0.11605835,-0.57566833,1.1074808,2.9692612,2.7937014
1570726948,-0.77264404,12.848785,0.14863586,-0.2273407,0.11605835,-0.57566833,1.1074808,2.9692612,2.7937014
1570726948,-0.77264404,12.848785,0.14863586,-0.2273407,0.11605835,-0.57566833,1.1074808,2.9692612,2.7937014
1570726948,-0.77264404,12.848785,0.14863586,-0.2273407,0.11605835,-0.57566833,1.1074808,2.9692612,2.7937014
1570726948,-0.77264404,12.848785,0.14863586,-0.2273407,0.11605835,-0.57566833,1.1074808,2.9692612,2.7937014
1570726948,-0.77264404,12.848785,0.14863586,-0.2273407,0.11605835,-0.57566833,1.1074808,2.9692612,2.7937014
1570726948,-0.77264404,12.848785,0.14863586,-0.2273407,0.11605835,-0.57566833,1.1074808,2.9692612,2.7937014
1570726948,-7.4237366,7.5791473,-0.015365601,-0.2273407,0.11605835,-0.57566833,-2.5877788,-3.1984653,-3.5560198
1570726948,1.2193298,17.207428,-0.11354065,-0.2273407,0.11605835,-0.57566833,-0.7689016,-5.168686,-1.1398325
1570726948,1.2193298,17.207428,-0.11354065,-0.2273407,0.11605835,-0.57566833,-0.7689016,-5.168686,-1.1398325
1570726948,-3.44458,15.367493,3.319748,-1.4438782,-0.2205658,0.5630951,-2.2219818,4.8103,4.187676
1570726948,-0.88638306,13.035538,5.7414856,-2.855362,-0.6413574,0.82302856,-0.08463818,2.281516,5.9294677
1570726948,0.94758606,13.227081,5.7977448,-3.4668121,-1.7023621,0.9615021,1.5489981,2.4166136,5.5534406
1570726948,0.94758606,13.227081,5.7977448,-3.4668121,-1.7023621,0.9615021,1.5489981,2.4166136,5.5534406
1570726948,0.94758606,13.227081,5.7977448,-3.4668121,-1.7023621,0.9615021,1.5489981,2.4166136,5.5534406
1570726948,0.94758606,13.227081,5.7977448,-3.4668121,-1.7023621,0.9615021,1.5489981,2.4166136,5.5534406
1570726948,0.94758606,13.227081,5.7977448,-3.4668121,-1.7023621,0.9615021,1.5489981,2.4166136,5.5534406
1570726948,0.94758606,13.227081,5.7977448,-3.4668121,-1.7023621,0.9615021,1.5489981,2.4166136,5.5534406
1570726948,0.94758606,13.227081,5.7977448,-3.4668121,-1.7023621,0.9615021,1.5489981,2.4166136,5.5534406
1570726948,0.94758606,13.227081,5.7977448,-3.4668121,-1.7023621,0.9615021,1.5489981,2.4166136,5.5534406
1570726949,0.94758606,13.227081,5.7977448,-3.4668121,-1.7023621,0.9615021,1.5489981,2.4166136,5.5534406
1570726949,0.94758606,13.227081,5.7977448,-3.4668121,-1.7023621,0.9615021,1.5489981,2.4166136,5.5534406
1570726949,0.94758606,13.227081,5.7977448,-3.4668121,-1.7023621,0.9615021,1.5489981,2.4166136,5.5534406
1570726949,0.94758606,13.227081,5.7977448,-3.4668121,-1.7023621,0.9615021,1.5489981,2.4166136,5.5534406
1570726949,0.94758606,13.227081,5.7977448,-3.4668121,-1.7023621,0.9615021,1.5489981,2.4166136,5.5534406
1570726949,0.6794281,2.1407166,8.827606,2.1673737,-0.09700012,-0.6949768,1.5489981,2.4166136,5.5534406
1570726949,1.2660065,7.530075,20.80101,1.840332,-2.2882538,-1.3277435,-0.9143207,-1.2372122,13.966196
1570726949,6.85408,19.954788,-4.175293,2.953537,-1.4860992,-0.73332214,2.7977824,9.295311,-1.3870158
1570726949,3.4782562,21.394897,9.4010315,0.22859192,-1.2794495,-0.5277405,1.4610376,14.644089,-0.35524273
1570726949,0.08207703,4.856949,0.33657837,2.188675,0.7157898,-0.4126892,-2.6010315,-3.372672,-3.292025
1570726949,0.5106354,4.858139,2.8061981,1.9596405,-1.0472107,-1.0869904,-1.0673474,-5.4063187,-0.42874074
1570726949,-0.3440857,11.764221,3.0839233,1.6059723,-1.7588196,-1.9157715,-2.0310106,-0.7279625,-0.94893336
1570726949,-2.6712494,17.47319,-1.7583466,1.2949219,1.0236511,-1.636673,-4.2643485,7.3807135,-5.2629304
1570726949,0.80513,12.292145,3.2539062,1.2906494,0.85427856,-1.4619751,0.114696145,3.0950031,0.8103821
1570726949,0.6758423,8.77626,0.45388794,1.14151,-0.13108826,-1.2989807,0.61950374,-1.5519333,-1.2346995
1570726949,1.2288971,8.867233,1.1745453,1.2416534,0.78396606,-0.8845978,1.3664132,-1.8479128,-0.6588017
1570726949,2.28714,9.741119,0.91477966,1.2810669,0.5645294,-0.36688232,2.6793277,-0.88628006,-0.114073515
1570726949,1.2432709,9.727951,1.6462097,1.1990356,0.35679626,-0.15808105,2.0332947,-0.7992153,0.5786827
1570726949,-0.3764038,9.646545,2.339325,1.7327423,0.039352417,0.18066406,0.25563872,-0.8675375,1.8409634
1570726949,-0.17289734,9.6944275,2.023285,1.8882751,-0.43894958,0.52049255,0.40838763,-0.9480381,1.9850099
1570726949,0.8123169,9.627396,-1.9905853,1.2586975,-0.95666504,0.12420654,1.718484,-1.1547632,0.58176434
1570726949,-0.21600342,10.2283325,0.031311035,0.41819763,0.7615967,-0.6704712,-0.05998981,-0.8787861,0.7232868
1570726949,1.7340851,10.5755005,0.04447937,0.46081543,0.13842773,-0.4073639,2.1940114,0.23501492,1.1490194
1570726949,1.1056061,10.7778015,-1.1418457,0.6024933,0.10646057,-0.3924408,1.9399993,0.13963509,0.22698593
1570726949,0.38734436,11.950958,-0.4774475,0.677063,0.33442688,-0.5170746,1.1987276,1.3600788,0.8515961
1570726949,0.3035431,13.527542,-0.0728302,0.7665405,0.21618652,-0.41055298,1.2837765,2.7078457,1.6217718
1570726949,0.22573853,17.163147,-1.7080688,0.37026978,0.06492615,-0.45635986,1.2927872,5.950264,0.33757377
1570726949,-2.0260162,18.252502,0.86450195,-0.43721008,-0.124694824,-0.22306824,-0.5742693,8.108289,2.2304716
1570726949,-3.1261444,16.562195,2.1561737,-1.0326843,-0.43362427,0.1401825,-1.6473079,6.408119,3.1455302
1570726949,-1.6369629,13.89267,2.8289337,-2.1054077,-0.80859375,0.4650879,-0.8996761,3.488123,3.748089
1570726949,0.63752747,14.000397,4.632965,-2.9277954,-1.2655945,0.92529297,1.1531665,2.647585,4.3455434
1570726949,1.7568207,15.859497,2.9953308,-2.9576263,-1.7651978,1.3311462,2.0713,4.709525,3.55457
1570726949,1.2947388,12.372345,-1.6877136,-3.0438995,-1.8301849,1.9266357,1.4269886,2.264124,-3.103807
1570726950,-0.18128967,10.300171,-2.281479,-2.15654,-1.2634583,1.9202423,-1.0346482,0.12096691,-5.362445
1570726950,0.36938477,9.699219,0.9686432,-1.6026001,-0.3377533,1.6315613,-1.1556127,-0.36986637,-3.0825055
1570726950,-0.6541443,8.074753,3.237152,-2.4431,0.10966492,1.6422119,-1.8676434,-1.6086006,-0.9213524
1570726950,-0.43626404,8.205231,-0.95988464,-2.6540222,1.8790588,1.6869507,-2.9182372,-1.4757519,-4.7551813
1570726950,-0.12980652,7.7682953,2.746338,-2.6550903,1.3602753,1.4557953,-2.4338775,-1.0344238,-3.4048705
1570726950,-2.052353,6.1163025,1.635437,-2.2481537,0.80207825,1.307724,-4.675864,-2.1195688,-3.9698277
1570726950,1.081665,5.955887,1.6462097,-2.0649261,1.1269836,0.88053894,-2.1751592,-2.2256417,-5.57054
1570726950,1.2899475,5.269943,3.790207,-1.6356201,0.7722473,1.0350037,-1.0905867,-1.8718987,-3.439424
1570726950,-0.68885803,3.3545837,4.698807,-0.9496002,0.91819763,0.9359436,-3.188586,-3.5176039,-2.8763313
1570726950,0.084472656,1.8222961,5.0028687,0.09222412,0.36532593,0.31808472,-2.9299774,-4.735134,-2.7044878
1570726950,0.77041626,1.2656403,6.581848,0.8166046,-0.7276306,-0.22200012,-1.8682618,-5.832458,-1.1510859
1570726950,2.2117157,2.6865997,7.9106293,1.6294098,-1.3231201,-0.60124207,-1.1467619,-4.7917943,0.2749715
1570726950,5.6857147,5.0173645,8.894653,2.4890747,-1.2187195,-1.1594391,2.246264,-3.3087077,3.172594
1570726950,-0.491333,8.099899,8.069855,1.7029114,-1.7875824,-1.2276154,-1.7501488,-0.8660641,-2.0612307
1570726950,13.0,29.810516,-1.2974701,1.697586,-2.3649445,-1.1370697,8.104131,13.824858,8.19186
1570726950,-0.61582947,15.746979,7.7873383,2.0075836,1.4050293,-0.7674103,-3.0123234,11.970105,1.5335855
1570726950,1.260025,3.6694183,2.160965,1.5942535,0.27157593,-0.37965393,-0.8122847,-4.492978,-3.4203663
1570726950,-0.52963257,3.9112396,4.375595,2.0139618,-1.6661377,-1.1551666,-2.742881,-6.3311443,1.1786463
1570726950,-3.1656494,11.66246,1.2583466,1.664566,-1.7833099,-2.4750366,-4.471592,-0.12726498,-1.918118
1570726950,-3.1967773,16.772888,-2.6466064,1.0658875,-0.11936951,-2.242813,-5.726331,6.2902584,-5.7914133
1570726950,1.4779053,13.336014,1.987381,1.4280701,0.8596039,-1.9402771,0.4331802,4.0901155,-0.05331683
1570726950,1.8597717,10.333679,-0.13148499,1.6049042,0.4377594,-1.3597107,1.7081219,0.055529594,-1.815113
1570726950,3.5704346,9.536407,0.3892517,1.8318024,0.35147095,-0.7834015,3.3158548,-0.90643215,-0.805714
1570726950,1.512619,10.606628,1.0093536,1.7742767,-0.29833984,-0.55648804,3.109354,-0.16524982,0.21064693
1570726950,0.4807129,10.39473,1.6809235,1.5484467,-0.6584015,-0.023864746,1.6907884,-0.30863285,1.2498862
1570726950,-0.31295776,10.016449,1.698883,1.7178192,-0.29940796,0.3085022,0.17971975,-0.6175165,2.131907
1570726950,0.28199768,8.8085785,0.73521423,1.7774811,-0.667984,0.52049255,0.46041933,-1.1136265,1.8330665
1570726950,-0.7810364,8.486557,-1.4411163,1.9319458,-2.4150238,0.77082825,-0.4022189,-1.7774439,1.7012486
1570726950,-2.088272,9.099472,-1.1873322,0.56307983,0.6667938,-0.5916443,-1.3134906,-2.126152,-1.4042442
1570726950,1.3378448,10.727524,-1.1622009,0.7388458,-0.37609863,-0.47554016,1.5618618,0.09475136,1.3539827
1570726950,0.83026123,10.901108,-0.79707336,0.6642761,-0.14920044,-0.17300415,1.7377646,0.2460823,1.0368989
1570726950,-0.8061676,11.877945,-0.7659607,0.4118042,-0.318573,-0.37646484,0.053617954,1.3837957,1.6151333
1570726950,-0.22198486,11.948578,-1.2447968,0.3617401,-0.5103302,-0.44889832,0.09494525,1.5566711,1.4833663
1570726950,1.4384003,11.117783,-1.5536499,0.5779877,-0.3611908,-0.53411865,2.499842,0.9728527,0.69249654
1570726951,1.181015,12.308899,-0.74679565,0.548172,-0.2685089,-0.5639496,2.3592362,1.6855612,1.871222
1570726951,-0.25790405,15.348343,-0.92996216,0.4128723,-0.33561707,-0.4627533,1.5974976,4.2725296,1.84151
1570726951,-1.1724854,16.85669,-0.30267334,-0.07926941,-0.6669159,-0.21560669,0.14230084,6.5107746,2.6053724
1570726951,0.0796814,15.220245,0.833374,-0.6406708,-0.5934143,-0.1974945,1.8155557,5.2519455,2.8708475
1570726951,-0.788208,13.89505,0.8309784,-1.3022003,-0.95347595,0.09225464,0.9544054,3.8980856,3.3448112
1570726951,-1.1078339,12.140106,0.7651367,-2.2247162,-1.3007507,0.77615356,0.5714661,1.916028,2.2722244
1570726951,-0.17289734,13.691544,2.0400543,-2.5293884,-1.5159302,1.61026,0.6048597,2.5203266,3.0769844
1570726951,1.0038452,12.839218,-0.8880615,-2.6795807,-1.5723877,1.8755035,1.8282425,2.802494,-0.08467652
1570726951,-1.9182739,12.189194,-0.3649292,-2.0500183,-0.9790344,1.6869507,-1.126198,1.0281601,-1.5628252
1570726951,-3.2446594,12.237076,-0.09916687,-1.4321594,-1.1558685,1.6837616,-3.314749,1.6395922,-1.1951826
1570726951,-4.729065,10.23671,-0.98143005,-1.3916779,-0.58062744,1.4760284,-4.719938,0.71912384,-1.9302367
1570726951,-2.4689484,8.340515,1.2583466,-1.9072723,0.0617218,0.80384827,-4.0059013,-2.0451632,-1.5688822
1570726951,-2.6987915,9.200027,2.394394,-1.3352203,-0.4165802,0.5449829,-3.8934758,-1.327363,-0.5035281
1570726951,-2.282196,8.108276,1.1901093,-1.3661194,-1.1995544,0.9860077,-4.325663,-1.5767393,-1.7048216
1570726951,-1.5567474,7.1793213,0.47903442,-1.2041931,-0.6967468,0.72714233,-3.942531,-2.6350622,-2.9011495
1570726951,-0.11424255,7.166153,1.6282501,-1.2286987,-0.857605,0.26908875,-2.534746,-2.5171423,-2.191432
1570726951,0.010253906,7.078766,1.114685,-0.81643677,-1.2325745,0.08905029,-2.555895,-2.3439255,-2.6549501
1570726951,0.41487122,6.244385,0.927948,-0.4233551,-0.6764984,-0.07286072,-2.1134713,-3.0201359,-3.4901032
1570726951,0.473526,5.21727,1.3026428,0.028320312,-0.5507965,-0.33598328,-2.1108105,-3.991476,-2.8607788
1570726951,0.56211853,5.1370697,1.0476532,0.8400421,-0.3622589,-0.664093,-1.8455853,-4.404558,-3.033447
1570726951,0.27720642,5.186142,1.540863,1.5836029,-0.2674408,-0.99858093,-1.8674648,-4.491255,-1.9260402
1570726951,0.2568512,5.0975647,1.6390228,1.7061005,-0.24507141,-1.0795441,-1.8939056,-4.515873,-1.8623841
1570726951,0.2568512,5.0975647,1.6390228,1.7061005,-0.24507141,-1.0795441,-1.8939056,-4.515873,-1.8623841
1570726951,4.1318665,18.015472,9.820007,2.1364746,1.0225983,-1.4662323,2.5281491,2.1014175,4.1871724
1570726951,6.95105,20.33905,7.145691,-0.35198975,-1.528717,0.10076904,8.4037,12.675411,6.4393377
1570726951,1.9483643,8.547607,7.7178955,-0.724823,-0.15026855,0.48320007,1.1452756,-1.2049732,6.1469436
1570726951,-4.440567,12.662048,3.7004242,-0.28381348,-0.4954071,0.58013916,-4.787179,1.1194782,1.754267
1570726951,-4.01799,15.037094,-1.775116,-0.22840881,-0.38356018,0.31489563,-5.9049597,5.384941,-0.27441645
1570726951,-3.4349976,11.260239,-4.9833374,-0.7727661,-0.21524048,0.11248779,-4.9512906,3.513691,-5.2336755
1570726951,0.23051453,3.7939148,0.5987396,0.16786194,-1.4275208,-0.63212585,-0.15461397,-6.1892986,-0.8999722
1570726951,-0.026855469,8.465012,-3.5432281,0.19343567,-1.0898285,-1.0561066,-0.7692234,-3.3352375,-4.8171444
1570726951,-2.7466736,17.937668,-3.0775604,-0.40737915,-0.8725128,-1.3170929,-2.8787665,6.35808,-5.0925584
1570726951,-4.2442474,15.843933,-0.18655396,0.19129944,0.19381714,-0.57247925,-4.947353,7.7030077,-3.0860229
1570726952,-2.0080566,8.46022,0.24440002,1.2416534,-0.12150574,0.12741089,-2.0830636,-2.1906471,-1.1302677
1570726952,-1.6620941,10.276215,-0.6977234,1.2246094,-1.2634583,0.08479309,-1.9166598,-0.71553326,-1.5932617
1570726952,-3.2877655,13.103775,-1.2435913,1.1372528,-2.720749,-0.2624817,-3.3907795,2.4412203,-1.8844783
1570726952,-1.353241,10.749069,-1.704483,1.0882568,-3.4579163,-0.19111633,-1.8480688,0.42227745,-1.8415717
1570726952,-0.23156738,9.325729,-3.2642975,0.9295349,-2.54924,-0.32640076,-0.78108203,-1.1203022,-2.5021029
1570726952,0.62316895,9.76506,-3.182907,0.7068939,-0.84161377,-0.4073639,0.41905072,-1.1539736,-3.090471
1570726952,0.59324646,11.1644745,0.7866821,0.64404297,-0.6115265,-0.4670105,0.76671475,0.51840115,1.1436746
1570726952,0.60162354,10.85202,-0.289505,0.4821167,-2.0027618,-0.1974945,0.6997492,0.38209534,0.6072257
1570726952,1.1522827,10.174469,-0.21170044,0.12312317,-3.16922,-0.056884766,1.5242099,-0.35807896,0.2746449
1570726952,1.7388611,9.982925,-0.36013794,0.31806946,-3.550583,0.07093811,2.0961962,-0.52841854,0.53166074
1570726952,2.4008636,9.025253,-0.13627625,0.49809265,-3.0967865,0.044311523,2.7171903,-1.2540083,0.65090203
1570726952,0.9451904,10.388748,-0.23803711,1.0019684,-1.3667908,-0.2081604,1.6352129,-0.40265274,0.9459481
1570726952,0.9942627,11.549942,-0.071640015,1.2427216,-0.19607544,-0.28805542,1.6724968,0.92144775,1.3289254
1570726952,-0.38598633,11.561905,1.1015167,1.2874603,-0.21205139,-0.27633667,0.33264875,1.2748423,2.631063
1570726952,2.3302307,11.329666,0.14503479,1.298111,-1.0557404,-0.4169464,2.8398018,0.7870703,2.671892
1570726952,2.0118103,13.860336,5.14653,1.1937103,-1.3753204,-0.41375732,3.5499341,3.518056,6.309151
1570726952,-1.0587616,14.036316,0.93392944,-0.469162,-4.669113,0.7164917,0.46756208,3.5556002,4.2148447
1570726952,-0.6110382,13.344391,2.0735626,-2.061737,-1.7385712,1.3780212,0.4462576,3.318344,4.120395
1570726952,-1.2251587,11.779785,1.2906647,-3.0428467,-0.5518646,1.3524628,-0.091050506,1.649209,2.966139
1570726952,-5.08461,13.431778,2.3991852,-3.3251343,0.62524414,1.7934723,-4.486093,2.072853,2.2117856
1570726952,-6.9796143,21.253632,0.8190155,-3.3006287,-4.682968,1.8946838,-7.1389923,10.243938,0.7167007
1570726952,-3.2398834,11.314102,-3.2571259,-2.2662659,-2.8389893,1.1021271,-5.832209,2.118269,-5.6201987
1570726952,1.4683228,8.766678,-3.1410065,-2.3450928,-0.142807,0.07093811,-0.52954984,-1.4494381,-6.698459
1570726952,2.5097961,14.906601,6.973297,-1.8337708,-1.1643982,0.43206787,2.419748,3.2077255,3.7962484
1570726952,-2.594635,12.073074,3.699234,-2.747757,-1.1675873,1.4983978,-2.1845503,2.5412874,0.77449346
1570726952,-4.5291595,10.521622,3.2970123,-2.5293884,-1.1334991,0.90504456,-7.152574,1.2291479,-0.90193605
1570726952,0.28318787,8.946243,-0.0021972656,-2.1224518,-1.7950287,0.62594604,-2.723843,-0.1781168,-4.6957607
1570726952,2.5624695,9.609436,0.7591553,-2.3386993,-0.58169556,0.768692,-0.56794715,0.6302023,-5.178795
1570726952,3.0999756,8.995331,2.4674225,-2.3397675,0.20021057,1.0531158,-0.14699006,0.87260437,-3.5149784
1570726952,2.0692596,5.4339447,4.123001,-2.0042114,0.93203735,0.9828186,-1.024704,-1.7511129,-2.7780714
1570726952,1.8633575,2.7835693,4.114624,-1.4470825,1.0385742,0.6749573,-1.3938899,-4.203009,-3.1191597
1570726952,1.1690521,1.4045105,6.1089935,-0.900589,0.624176,0.35005188,-1.9571435,-5.4605827,-1.4520926
1570726952,1.8154755,2.2951508,7.0726624,-0.17408752,0.09580994,-0.1378479,-1.3993235,-5.0918036,-0.64305687
1570726953,2.1865845,4.4331665,7.3623657,0.24031067,0.1085968,-0.28805542,-1.0442336,-2.5269804,-0.28976774
1570726953,3.387268,3.750824,10.441299,0.84217834,-0.2397461,-0.48086548,0.14199996,-2.9579415,2.188789
1570726953,1.7771759,4.0656586,13.667496,1.2927856,-0.9460144,-1.0379944,-0.44825768,-3.494483,5.990791
1570726953,-2.917862,8.566757,9.843948,0.22219849,-1.3508148,-1.4491882,-4.5818267,-0.6768942,4.7190475
1570726953,-2.917862,8.566757,9.843948,0.22219849,-1.3508148,-1.4491882,-4.5818267,-0.6768942,4.7190475
1570726953,-1.4142914,12.070679,2.8828125,2.2792206,-1.8504333,-1.1072388,-6.400941,5.882987,-3.428461
1570726953,1.5209961,9.195236,1.5504303,1.8786774,-2.4309998,-1.1924591,-0.41038394,0.52676773,-4.305248
1570726953,0.6171875,11.431427,0.62028503,2.1535187,-2.2083588,-1.4417267,-2.2186863,1.7090034,-3.2675314
1570726953,0.82069397,12.937378,0.54367065,1.5356598,-2.3532257,-2.0148468,-1.6592953,3.4649343,-3.123576
1570726953,-0.6840668,12.166443,0.8812561,0.82299805,-3.1010437,-2.607132,-2.5800219,2.2974758,-2.3648546
1570726953,-0.9402466,12.549515,-1.012558,1.1670837,-0.9044647,-2.257721,-2.922285,1.6661406,-3.4937012
1570726953,2.0130005,13.715485,0.59754944,1.7018433,0.8574829,-1.4193573,0.5537503,3.1944733,-2.167552
1570726953,3.5153656,11.950958,0.7232361,1.5857391,-0.63282776,-1.0944519,3.2045007,1.8248568,-0.42069387
1570726953,1.339035,10.207993,-0.45350647,1.3567047,-0.35266113,-0.919754,0.7821406,0.036486626,-1.0719743
1570726953,0.2736206,9.632187,1.0632172,1.1127625,1.401825,-0.81855774,0.7067196,-0.9419527,-0.5601963
1570726953,-0.16572571,9.234741,1.7731018,0.47146606,0.5677185,-0.6427765,0.3509224,-1.4372692,1.2627821
1570726953,1.3294525,10.114609,1.082367,0.56947327,-0.42510986,-0.15489197,1.4917668,-0.69558144,0.9657103
1570726953,1.0637054,8.526062,1.4905853,1.4483185,-1.607544,0.562027,1.3017218,-1.8819904,1.5413005
1570726953,0.37297058,8.512894,0.13786316,1.7806702,-2.740982,0.69732666,0.4195962,-2.3050585,0.93785506
1570726953,-1.356842,8.994125,-2.5005493,1.2608337,-1.5691986,-0.12294006,-0.669212,-1.5665007,-1.2328944
1570726953,-1.356842,8.994125,-2.5005493,1.2608337,-1.5691986,-0.12294006,-0.669212,-1.5665007,-1.2328944
1570726953,-1.356842,8.994125,-2.5005493,1.2608337,-1.5691986,-0.12294006,-0.669212,-1.5665007,-1.2328944
1570726953,1.8920898,15.962448,1.9682312,0.79637146,0.052139282,-0.35728455,3.0588555,4.917012,3.0256186
1570726953,-0.07833862,15.604523,2.2591248,0.40008545,-0.44108582,-0.15596008,0.8262754,5.256645,4.432954
1570726953,0.5202179,16.343124,-1.1490326,-0.24012756,-0.44960022,-0.2901764,1.4540946,4.821929,0.9774513
1570726953,-2.21875,16.528687,2.292633,-1.0614471,-0.30259705,0.053894043,-1.1968205,6.3154125,3.7244515
1570726953,-1.818924,14.831192,3.6166382,-1.6569366,-0.26531982,0.22860718,-1.0518978,4.2101583,4.7594676
1570726953,0.8087158,13.926178,3.0264587,-2.9150085,-1.5063477,0.6834717,1.309202,3.1703787,3.6720815
1570726953,1.3653717,15.049057,-0.16142273,-3.352829,-1.4914398,1.1468658,2.1691182,3.6372776,-0.27102882
1570726953,0.22932434,13.453323,-0.1015625,-2.8510895,-0.78622437,1.469635,0.5539348,3.2635117,-2.1150978
1570726953,-0.15374756,11.466141,-1.4650574,-2.2886353,-0.40699768,1.5260925,-0.4331994,1.1557541,-3.889415
1570726953,-1.5076752,10.816116,-0.82221985,-1.7602692,-0.3420105,1.6645813,-2.696999,0.5444479,-3.5903273
1570726953,-0.788208,9.031235,0.6430359,-1.5461426,0.42710876,1.6635132,-2.7972364,-0.7243662,-3.60519
1570726953,-1.2802277,8.69725,4.170883,-2.0510864,0.6337738,1.563385,-2.753127,-1.2954149,0.109175205
1570726954,-2.265442,8.746323,-1.1023407,-1.9829102,1.3070221,1.5378113,-4.8632507,-0.56278706,-5.010405
1570726954,-0.73075867,6.9267273,1.8233795,-2.0883636,0.65400696,1.167099,-3.1669729,-1.7275438,-4.2439227
1570726954,-0.7451172,6.032501,2.5931091,-1.6026001,-0.15026855,1.1394043,-3.5230148,-2.5728312,-3.0109463
1570726954,1.2085571,6.402405,1.1889191,-1.5077972,1.3560181,0.9572449,-1.7894506,-1.8471193,-5.831845
1570726954,-0.17529297,5.1155243,3.359253,-0.7258911,1.3379059,0.7868042,-2.729547,-2.5286155,-3.4922533
1570726954,-1.5926666,2.7081451,5.0890656,0.2275238,0.9640045,0.45018005,-4.04882,-4.283671,-2.3737578
1570726954,0.6902008,1.44281,7.4677124,1.1542969,0.13310242,-0.14103699,-2.7198293,-6.3143373,0.12735033
1570726954,2.4008636,3.355774,8.179977,2.20784,-1.7769165,-0.8622284,0.0736506,-5.2479305,2.8021631
1570726954,1.7711945,8.922302,12.181885,1.3268738,-1.0919647,-0.99539185,-1.3439906,-1.5058098,6.9406857
1570726954,4.4802246,23.99141,2.3824158,1.4760132,-2.3819885,-0.92614746,3.3575048,12.979092,-4.6129875
1570726954,-1.3364868,15.547058,3.4849548,1.6794739,1.0385742,-0.9911194,-3.5458143,10.44223,-1.3342023
1570726954,1.409668,6.4838104,0.66218567,1.4706879,0.4111328,-0.88778687,-0.54650307,-2.6818419,-3.9390965
1570726954,-0.28063965,8.845688,3.7997894,1.8200836,-1.1548157,-1.4651642,-1.9821297,-1.5980663,0.8235822
1570726954,-2.6856232,11.357208,-1.5835724,1.6325989,-0.8384247,-1.9381409,-3.570005,1.1025219,-3.9030228
1570726954,-0.9115143,14.108139,1.1290588,1.3204803,1.2090149,-1.5546417,-2.1190376,3.5283976,-2.337771
1570726954,1.0086365,12.259811,0.9016113,1.5154266,1.0268555,-1.2169647,0.32497168,2.493657,-0.59992695
1570726954,1.6586609,9.933853,0.23602295,1.2341919,0.57624817,-0.8718109,1.8200626,-0.5304661,-1.2164236
1570726954,0.83026123,9.712387,0.7005005,1.2959747,0.43669128,-0.619339,1.2824984,-0.9716253,-0.31231773
1570726954,0.5118408,9.450226,0.76753235,1.1809387,0.16291809,-0.22625732,0.47715244,-0.9292946,0.5670871
1570726954,-0.39556885,9.799774,0.7878876,1.0275269,0.5868988,-0.17407227,0.18831062,-0.8670597,0.23545516
1570726954,0.17544556,9.531631,1.4678345,1.221405,0.12243652,0.06881714,0.500963,-1.1595583,1.4559985
1570726954,0.17904663,9.879974,1.7754974,1.697586,-1.399826,0.7548523,0.5529821,-0.90941525,2.2102082
1570726954,-0.22557068,9.5998535,-1.8361664,1.3343353,-0.7425537,0.23286438,0.2701687,-0.77991104,-1.2573043
1570726954,0.28079224,9.737534,-0.16381836,0.46081543,-0.0053863525,-0.60124207,0.008328795,-1.2512846,1.2354386
1570726954,2.6414795,11.115387,0.30903625,0.5513611,-0.1619873,-0.48405457,3.0593414,0.45951176,1.6239581
1570726954,1.4635315,12.356781,-0.6007538,0.7036896,-0.038406372,-0.42759705,2.2988458,1.5582628,0.6237744
1570726954,0.6938019,13.484451,-0.083602905,0.5854492,0.16719055,-0.41801453,1.8166134,2.2784462,1.0848585
1570726954,0.086868286,15.439316,0.15342712,0.35534668,0.021240234,-0.40097046,0.87238246,4.686013,1.9066296
1570726954,0.47473145,15.707474,-1.2675323,0.2594757,0.065979004,-0.50109863,0.9249713,5.596798,0.57185435
1570726954,-1.8835602,16.636414,2.2172241,-0.9517212,0.26945496,6.4086914E-4,-1.1315558,6.425338,2.9771361
1570726954,-0.05558777,14.250595,4.2941895,-2.0745087,-0.29408264,0.24884033,0.46188575,4.1710253,5.071429
1570726954,0.87934875,13.53952,4.008087,-2.9767914,-1.8216705,0.97428894,1.4891899,2.7781181,4.3020334
1570726954,1.0840454,14.019562,1.1470184,-3.000229,-2.165741,1.1969299,1.7508091,3.0672827,0.58747345
1570726955,-0.5571747,12.663239,0.21087646,-2.8990326,-1.2666626,1.5559235,-0.603698,2.0162249,-1.4949596
1570726955,-1.0874939,10.938217,-0.7910919,-2.3855743,-0.12362671,1.5207672,-1.7631054,0.6267643,-3.6216507
1570726955,-1.7219543,9.681259,0.16778564,-2.02977,-0.19714355,1.2832184,-2.8674507,-0.28959274,-3.2702832
1570726955,-1.219162,9.080322,1.0249023,-2.077713,0.08729553,1.4270325,-2.916235,-1.0025225,-3.1109998
1570726955,0.5106354,9.170105,0.8525238,-2.1448212,0.89476013,1.6166382,-1.4823786,-0.33077526,-4.3414183
1570726955,-0.70321655,8.797806,1.3936157,-2.1927643,0.62631226,1.7774963,-2.8495443,-0.22360706,-3.8049107
1570726955,-1.5866852,7.2906494,2.9390717,-2.2683868,0.6934204,1.500534,-4.0871363,-1.1854506,-3.0414367
1570726955,1.0433502,5.5117645,0.29348755,-1.5876923,0.64016724,1.151123,-2.129487,-2.6012125,-5.801968
1570726955,1.3055115,4.906021,2.6984558,-1.2510681,1.210083,0.9295502,-1.416975,-2.681725,-4.17999
1570726955,0.122787476,4.018982,3.8764038,-0.7035217,1.6031647,0.7495117,-2.280904,-3.2595487,-4.000119
1570726955,-0.946228,1.8486328,5.9665375,0.40542603,0.95654297,0.10076904,-3.4351404,-5.507746,-1.7601352
1570726955,1.7005615,1.5744934,8.381088,1.4291382,-0.15345764,-0.54904175,-0.9692724,-6.069897,1.4898715
1570726955,0.73928833,4.370926,10.942886,1.6400604,-0.93110657,-1.1051025,-1.0688188,-4.7439013,1.8302708
1570726955,5.3541107,13.986038,6.1760406,2.3303528,-0.7372284,-0.94851685,1.9052408,3.873807,3.515377
1570726955,-2.5204163,26.850082,5.6385345,1.2523041,-1.4275208,-0.7674103,-4.0241594,17.705555,-0.77456856
1570726955,2.9467468,7.914337,2.802597,1.6869354,0.042541504,-0.5639496,-0.13423502,0.77214813,-1.1114459
1570726955,1.9399872,7.2834625,4.032028,1.6389923,-0.65945435,-0.8345337,0.4167416,-2.6989956,-0.8307104
1570726955,-0.9007416,11.033981,1.5815582,1.7742767,-1.0014038,-1.636673,-2.0468388,0.74723244,-1.7539339
1570726955,-1.6213989,13.515579,0.26715088,1.4760132,-0.27915955,-1.6164398,-2.8393307,3.3823442,-2.92491
1570726955,0.3023529,12.502823,1.3086243,1.3790741,0.27157593,-1.444931,-0.9945806,2.7122688,-2.346235
1570726955,0.3023529,12.502823,1.3086243,1.3790741,0.27157593,-1.444931,-0.9945806,2.7122688,-2.346235
1570726955,1.7017517,9.848862,1.7060547,1.4632263,0.8510895,-0.8164215,2.0353935,-0.54881096,-0.8245928
1570726955,0.3215027,9.921875,1.3445282,1.4302063,0.4569397,-0.3413086,1.0487514,-0.6592703,-0.5968965
1570726955,-0.154953,9.062363,1.5097351,1.219284,-0.32922363,-0.1101532,0.41545156,-1.5470209,0.250682
1570726955,-0.41351318,9.043213,0.7400055,1.441925,-0.20246887,-0.14103699,-0.39572078,-1.5509605,0.52795744
1570726955,-0.1776886,9.687241,1.1721497,1.441925,0.624176,-0.17300415,0.30939174,-0.92073536,0.6771929
1570726955,0.07728577,9.972153,3.331726,1.4280701,-1.3146057,0.17001343,0.67098224,-0.5593157,3.7391071
1570726955,0.52500916,10.661682,-2.1055145,1.0850525,-0.92045593,-0.0014953613,0.98294604,0.0047254562,-1.5893235
1570726955,1.3797302,10.59465,0.24798584,0.18171692,-0.43148804,-0.4819336,1.5003316,-0.030652046,1.6088071
1570726955,2.28833,10.430649,0.16419983,0.47465515,-0.36863708,-0.2901764,2.9252357,-0.3457203,0.40704787
1570726955,1.5688782,11.390717,-0.7420044,0.76867676,-0.066101074,-0.33598328,2.7248003,0.67392063,0.028461218
1570726955,0.5094452,13.073853,0.11869812,0.885849,0.49102783,-0.55329895,1.5266469,2.1637268,1.0030763
1570726955,-0.7151947,15.2765045,1.3325653,0.64190674,0.41859436,-0.52453613,0.5935334,3.9898806,2.5000885
1570726956,1.6610565,17.60846,-0.15184021,0.16999817,0.30033875,-0.49684143,2.4140365,6.4918776,1.4796685
1570726956,-0.90911865,17.082932,1.5252991,-0.84413147,-0.093811035,0.03579712,0.64247346,7.174672,2.4719822
1570726956,-2.996872,14.849152,3.2718658,-1.7346954,-0.09913635,0.2531128,-1.5731425,4.5583544,3.8456106
1570726956,-0.49971008,12.877518,4.817322,-2.9448395,-0.30792236,0.36495972,0.11231077,2.4849424,4.7238793
1570726956,1.7268982,14.235031,4.3181305,-3.6212769,-1.704483,0.6621704,2.490181,2.9667416,3.88428
1570726956,1.4252319,15.270523,0.89442444,-2.8777313,-1.3966217,1.2246246,1.9250145,4.8406153,-1.0789039
1570726956,0.671051,12.441772,-1.6482239,-2.2513428,-1.1995544,1.6486053,0.792629,2.0359163,-4.2387695
1570726956,-2.0583344,8.928284,-2.8632812,-1.665451,0.22471619,1.8904114,-2.5518935,-0.8373804,-6.9722977
1570726956,-2.1457214,7.557602,0.107925415,-1.6888885,0.43136597,1.3439331,-3.2169106,-2.574565,-5.2237754
1570726956,-0.788208,8.984543,5.2482758,-1.8018036,0.8393707,1.2661743,-2.2183743,-1.2086334,0.21772861
1570726956,-0.7415314,9.823715,1.9358978,-1.9924927,0.28862,1.788147,-2.4425125,0.56932926,-1.8853583
1570726956,-1.2239532,7.8449097,0.54248047,-2.1458893,0.6902313,1.3972015,-3.1791852,-0.84873486,-5.4997964
1570726956,-0.0867157,6.103134,2.268692,-1.5163116,-0.24188232,1.2533875,-2.888274,-2.3544102,-3.143138
1570726956,1.2109528,5.821808,1.3924255,-1.5844879,0.7445526,1.1138458,-1.4145164,-2.4484692,-5.3254833
1570726956,0.59443665,4.730057,3.414322,-1.2649078,1.1717224,1.0776215,-1.9822512,-3.0544004,-3.387629
1570726956,-0.6553345,2.2257233,4.4162903,-0.1762085,1.0162048,0.6057129,-3.2341607,-5.098201,-2.7422314
1570726956,0.17544556,1.4416199,5.952179,1.2363281,0.20872498,-0.20495605,-2.545839,-6.282816,-1.3683915
1570726956,1.4982452,2.1299438,7.8926697,2.3335419,-0.8341675,-0.88139343,-1.2592413,-6.1053643,0.8435612
1570726956,3.9116058,10.913086,16.108383,1.1404572,-1.5393677,-1.1466522,0.4646628,-0.46087837,14.476761
1570726956,5.6114807,19.521439,-7.598999,2.46138,-1.4871674,-0.7407837,5.2479196,9.862181,-14.322212
1570726956,0.9284363,19.29039,5.7103577,0.8347168,-0.16731262,-0.5170746,-1.1830537,10.802781,0.63985157
1570726956,0.65309143,5.186142,0.2060852,2.2472687,0.72431946,-0.5788727,-2.3272493,-3.6245794,-3.3927498
1570726956,-0.022064209,9.538803,3.5052948,1.7710876,-1.0589294,-1.3959198,-1.5796037,-1.5244398,-1.4629772
1570726956,-1.7650452,12.84639,-1.1574097,2.0533905,-1.4924927,-2.1107178,-2.562378,2.3462543,-2.025656
1570726956,-1.4023285,13.944138,0.3282013,1.0254059,0.8414917,-1.6196289,-3.3586347,3.8612175,-4.735928
1570726956,0.38853455,11.045959,1.2906647,1.3694763,0.89476013,-1.2190857,-0.08674091,1.573122,0.14872885
1570726956,0.9212494,9.506485,0.4658661,1.2746735,0.72431946,-0.88246155,0.7679345,-0.8821926,-1.1723028
1570726956,0.899704,9.853638,1.4762115,1.1894531,0.57199097,-0.65449524,1.5109162,-1.1202345,-0.37784863
1570726956,0.48191833,10.298965,1.1984863,1.2267456,0.19488525,-0.19111633,0.8098941,-0.36142635,0.5954763
1570726956,0.14193726,9.614227,1.2834778,1.1127625,0.47398376,-0.20283508,1.0104947,-0.8620281,0.4426974
1570726956,-0.3548584,9.3185425,0.8609009,1.4568329,0.44947815,-0.29231262,-0.054371655,-1.6024914,1.4632082
1570726956,0.04736328,9.601059,2.608673,1.4451141,0.14268494,-0.0440979,0.5632455,-1.0819225,2.6777334
1570726956,2.0596924,10.393539,-1.8026428,1.2629547,-1.4680023,0.3085022,1.7410408,-0.640213,0.9225379
1570726956,1.8214722,10.207993,-1.8840485,0.7548218,-0.4442749,-0.115478516,2.914101,-0.22880554,-1.5340217
1570726957,1.2301025,11.128555,0.3030548,0.59503174,0.21618652,-0.41801453,2.2882855,0.031219482,1.2633482
1570726957,0.96913147,10.589859,-0.97065735,0.50341797,0.2758484,-0.38711548,1.8228147,0.030277252,0.69822085
1570726957,0.75006104,12.123352,-0.035720825,0.42565918,0.3642578,-0.55223083,1.6852269,1.2249098,1.3371285
1570726957,0.20657349,15.45488,0.11869812,0.3479004,0.1554718,-0.2912445,1.4285365,3.9690819,2.0021958
1570726957,0.40170288,16.082153,-0.32661438,-0.34985352,0.20872498,-0.30403137,1.960742,5.6278563,0.8443358
1570726957,-1.9877014,16.915344,0.65141296,-0.9229584,-0.14494324,0.06668091,-0.34259188,6.5208197,1.8088808
1570726957,-4.1257324,16.659164,3.1282196,-1.3235016,0.103271484,0.18173218,-2.6265397,6.086624,3.7398477
1570726957,-1.8727875,14.740204,3.7351532,-2.1671906,-0.714859,0.47254944,-1.4946212,4.446266,4.3598948
1570726957,0.42564392,14.286514,3.2515106,-2.9235382,-1.5319061,0.8698883,1.012753,3.2995758,3.1484776
1570726957,-0.07115173,14.303268,0.7651367,-2.5272522,-1.495697,1.2129059,0.52854234,3.900444,0.07434225
1570726957,-0.15016174,10.570709,-2.5963135,-2.3568115,-1.1015472,1.3386078,-0.049424946,0.09336567,-4.402861
1570726957,-0.111846924,9.398743,-2.7028656,-2.0990143,-0.30578613,1.1990662,-0.68021977,-0.8520498,-5.2478
1570726957,-1.447815,9.551971,4.3265076,-1.5205841,-0.7042084,1.596405,-1.8113772,-0.66540813,-0.23281622
1570726957,-1.8548279,9.088699,0.42276,-2.317398,0.41645813,1.6635132,-3.148257,-0.8947687,-2.4974515
1570726957,-1.5172424,8.650558,2.6804962,-2.446289,0.6188507,1.4877472,-3.5174856,-0.70737267,-1.8179493
1570726957,-1.8692017,7.1853027,0.6382446,-2.6007538,0.38449097,1.1404724,-3.805095,-1.5936365,-4.451836
1570726957,-0.40753174,6.058838,2.5955048,-2.1448212,-0.2685089,0.8198242,-3.25587,-2.6428127,-3.154861
1570726957,2.156662,7.0572205,2.2591248,-1.9658661,0.2705078,0.8709564,-0.42952013,-1.5053701,-5.156368
1570726957,0.96315,6.161789,3.5531921,-1.5120544,0.9160614,0.9572449,-1.5154874,-1.4800935,-3.5362363
1570726957,0.06890869,3.450348,4.528824,-0.7301483,1.0598755,0.6440582,-2.4496493,-3.6960282,-2.7852135
1570726957,-0.12261963,1.6056213,4.925064,0.17425537,0.47505188,0.07307434,-2.554894,-5.4738183,-2.3701
1570726957,0.3645935,1.2524719,6.3963013,0.76867676,0.021240234,-0.24757385,-2.2182403,-6.235701,-1.0897107
1570726957,1.9495544,1.6487122,5.63974,1.4131622,-0.271698,-0.8345337,-0.52170086,-6.106413,-1.1068912
1570726957,2.6187286,5.1765747,16.626724,1.1585541,-1.7737274,-1.3160248,0.46365166,-4.6418257,5.1501656
1570726957,8.9466095,21.264404,-8.962509,2.2962646,-2.259491,-0.49577332,7.721819,11.489835,1.8766894
1570726957,-2.3264923,16.459244,11.207443,1.4483185,0.66786194,-0.3977661,-3.9190493,9.356539,7.2653685
1570726957,3.3010864,3.149887,5.026825,1.9457855,-0.43362427,-0.34451294,0.90560937,-4.102373,-1.8417835
1570726957,0.25086975,7.4402924,5.1513214,2.2163696,-1.2634583,-0.7279968,-1.4525764,-2.7295113,0.63028383
1570726957,-1.9960938,11.91745,0.31861877,2.3090515,-2.2179413,-1.6771545,-3.658578,1.2548313,-1.4742701
1570726957,-0.90792847,12.955338,-0.80307007,1.8829346,-1.7098083,-2.018036,-2.9452834,2.7580738,-2.997213
1570726957,0.6578827,14.105743,0.7124634,1.6017151,0.20979309,-1.873169,-0.34850705,3.4522896,-1.9655616
1570726957,1.1139832,12.790131,0.48980713,1.6102295,0.95121765,-1.0944519,0.12370396,3.0413198,-1.5827459
1570726957,1.5018463,10.495285,1.0057526,1.6688232,0.52085876,-0.87501526,1.5311309,-0.011845589,0.046307325
1570726958,-0.22557068,10.221161,0.67655945,1.633667,0.2577362,-0.7098999,0.06693686,-0.45214462,-0.044485927
1570726958,-0.72117615,10.05835,0.69091797,1.444046,0.12989807,-0.45103455,-0.7135563,-0.5623083,0.03051287
1570726958,0.010253906,10.19722,-0.24641418,1.1489716,-0.8682556,-0.52986145,0.44360727,-0.8616257,0.9225352
1570726958,-0.56196594,10.241501,1.8209839,1.2107544,0.6145935,-0.28485107,0.50999856,-0.40837193,1.1671971
1570726958,1.6622467,10.330093,2.675705,0.93592834,-1.1175232,0.08692932,1.7850387,-0.48011112,3.0531812
1570726958,3.4279785,8.703232,-2.6908875,1.0488434,-2.8773346,1.0552521,3.3167822,-1.743968,-0.8389559
1570726958,-0.94862366,9.167709,-0.26316833,0.360672,-0.054397583,0.13699341,-0.6481871,-1.815033,0.91464305
1570726958,1.1271515,10.260666,-0.37091064,0.042160034,-0.15771484,-0.16661072,0.9611416,-0.7451,0.64654243
1570726958,1.0768738,9.423889,-0.5337219,0.19555664,-0.27597046,0.11462402,1.426706,-0.96294403,0.8905698
1570726958,-0.16333008,10.25946,0.97462463,-0.023880005,-0.29727173,0.12953186,-0.02373176,-0.3964157,2.3293746
1570726958,-0.704422,10.388748,-0.34098816,0.0059509277,-0.43043518,0.09225464,-0.7925221,-0.059283257,1.6863052
1570726958,-0.3440857,10.185242,-0.95269775,-0.035598755,-0.63708496,-0.26461792,0.036783785,-0.33838844,0.116364
1570726958,-0.46020508,10.37558,-1.4016113,0.44056702,-0.47943115,-0.6108246,-0.3207332,-0.20837021,-0.049179792
1570726958,0.46035767,11.863571,-2.676529,0.94018555,-0.541214,-1.0401306,0.80116117,0.8239546,-1.2003481
1570726958,0.40888977,15.73381,-1.1203003,1.2874603,-0.46452332,-1.2371979,1.3951783,4.591877,0.62952745
1570726958,-0.2758484,17.476776,-0.6103363,1.2160797,-0.65200806,-1.111496,1.2340115,6.335557,2.6218324
1570726958,-0.15853882,17.381012,1.5779724,0.81980896,-0.6935425,-0.9122925,1.9950624,7.36734,3.4184794
1570726958,-0.16093445,12.714722,-0.17219543,0.4309845,-0.5838318,-0.9080353,1.7323565,3.6786957,3.0781026
1570726958,0.11199951,13.450928,-1.2711334,0.06452942,-0.55825806,-0.9144287,2.3778899,2.979454,1.7392511
1570726958,-0.8720093,12.249039,0.048080444,-0.51815796,-0.38249207,-0.1335907,1.2582164,2.0402164,2.2709723
1570726958,1.3917084,12.531555,1.789856,-1.585556,-0.15238953,0.8091736,3.1622076,2.5390148,3.8171706
1570726958,1.1319427,9.682465,0.46705627,-2.1693268,-0.83309937,1.9181213,3.459613,-0.2665577,2.7906766
1570726958,-1.6620941,9.97934,-2.8177795,-1.9786377,-1.3508148,2.3687134,0.4818982,-0.8947048,-1.3964803
1570726958,-3.7618103,12.626129,-0.47146606,-1.5269775,-0.23442078,2.533844,-2.9427552,1.2941494,-0.85375005
1570726958,-4.0634766,12.525574,0.8776703,-1.1988678,0.24601746,1.7167816,-3.70641,2.0141468,0.5838479
1570726958,-5.2378387,10.066727,1.4738159,-1.948822,-1.1505432,1.1703033,-5.6830997,-0.34360695,0.611262
1570726958,-3.9365845,9.034821,0.9506836,-2.1863708,-1.5223236,0.97535706,-4.892225,-1.6703739,-0.21715927
1570726958,-3.2051544,9.481354,-0.6618042,-1.8657227,-0.52523804,0.6184845,-4.468801,-1.219615,-2.824139
1570726958,-2.4450073,10.391144,1.9430847,-1.5227051,-0.9215088,0.5822754,-4.107793,-0.24832916,-0.6757312
1570726958,-0.9330597,9.557968,1.3337555,-1.5024719,-1.6341705,0.69732666,-2.5804973,-0.48749256,-0.8446531
1570726958,-1.0336151,8.710419,0.9064026,-1.6058044,-0.9428253,0.5918579,-3.0793047,-1.1717911,-2.0901406
1570726958,-0.98454285,7.5791473,0.77111816,-1.5930176,-0.52949524,0.28292847,-3.1122935,-2.2423325,-2.8542511
1570726958,-1.3735962,6.7256165,1.6545868,-1.2702484,-0.7244415,-0.1697998,-3.2908564,-2.828123,-2.4187188
1570726959,-0.827713,6.5879517,1.3397522,-0.6204376,-1.0898285,-0.42333984,-3.1695664,-3.0294495,-2.524787
1570726959,0.10003662,6.388031,0.6657715,-0.06968689,-0.8991394,-0.664093,-2.084415,-3.236783,-3.3631582
1570726959,0.8170929,5.809845,0.4945984,0.5247345,-0.59555054,-0.92401123,-1.2140816,-3.788947,-3.4950612
1570726959,1.018219,5.558441,1.3146057,1.1202087,-0.5433502,-1.2648926,-0.6476381,-4.2227707,-2.6097836
1570726959,-0.08073425,6.058838,1.9766083,1.967102,-0.68182373,-1.477951,-1.1564201,-3.987154,-1.1319358
1570726959,-0.30578613,7.3816376,2.213623,2.4464722,0.24069214,-1.4332123,-1.4237846,-3.4729118,-0.467479
1570726959,2.7599945,27.229568,15.418854,0.5023651,0.20979309,-0.89845276,1.2945776,12.471151,11.460648
1570726959,9.625366,20.080475,9.922958,-0.4787445,-2.881607,0.17533875,10.15502,13.936972,10.393886
1570726959,-0.609848,11.007645,6.228714,-0.7429352,0.92671204,0.8560486,0.14733726,1.0299139,5.2704115
1570726959,-6.358322,12.802109,4.245117,-0.48406982,0.60287476,1.118103,-7.578838,2.6231308,1.8859663
1570726959,-11.393326,10.340866,1.4055939,-1.0145721,-1.8333893,-0.4201355,-12.592891,1.5776262,-1.1019633
1570726959,0.95954895,3.098404,-5.6321716,-0.113357544,-0.7606659,-0.60017395,-0.10948467,-6.414345,-10.97027
1570726959,0.6770325,4.619919,-1.6841278,1.3375244,-1.2709198,-0.6534271,-0.55984896,-6.565382,-2.9014595
1570726959,-1.6070251,14.776123,-1.9750214,1.0009003,-2.9029083,-1.2893982,-1.5056002,2.5708418,-4.049655
1570726959,-3.8348389,20.122375,-2.739975,0.7015686,-1.9622803,-0.82814026,-4.837043,9.9584875,-5.086849
1570726959,-1.377182,9.579514,-0.9898071,0.84536743,-0.87783813,-0.5192108,-1.9009906,0.611228,-2.3401709
1570726959,-2.3707733,8.588303,-0.107543945,0.69303894,-1.3295135,-0.16447449,-2.5578747,-2.4824266,-1.3891767
1570726959,-2.2283325,9.808151,-0.25479126,0.64190674,-1.91008,0.04537964,-2.6600978,-1.1842947,-1.2532846
1570726959,-2.309723,13.300095,-2.0289001,0.86561584,-3.2864075,0.025146484,-2.2559621,2.408887,-2.8918421
1570726959,0.062927246,10.449799,-2.7734985,0.7463074,-2.608902,-0.34770203,-0.75198853,0.23691845,-3.212747
1570726959,1.0948334,10.020035,-2.1126862,0.5375061,-1.5617371,-0.504303,0.49433368,-0.888011,-2.4670389
1570726959,1.2013702,11.535568,-0.94192505,0.28398132,-1.657608,-0.52027893,1.2253921,0.42000484,-0.9369573
1570726959,1.0313873,12.21553,-0.42118835,-0.004714966,-2.6546936,-0.3104248,1.2712651,1.5815353,-0.17546779
1570726959,0.97750854,12.047928,-0.93473816,-0.28700256,-3.2810822,0.08479309,0.90855104,1.5187569,-1.0372945
1570726959,1.7053528,10.671265,-1.3214111,-0.019622803,-3.5111694,0.4427185,1.4822065,0.29196548,-0.9848049
1570726959,1.7927399,10.142151,-0.59477234,0.72180176,-3.4206238,0.45550537,1.724586,-0.49268913,-0.33325142
1570726959,1.354599,9.20961,-1.6613922,1.5857391,-3.7625732,0.44378662,1.3723729,-1.134263,-1.0079632
1570726959,1.9423676,8.157349,-1.2292328,2.3686981,-2.7164917,0.40011597,1.0753274,-2.153036,0.13663352
1570726959,1.9304047,8.396774,-0.7408142,1.3694763,-1.6139374,-0.028121948,1.7192988,-2.2126875,1.120153
1570726959,1.7735901,9.924271,0.013366699,0.15188599,-1.0408325,-0.42759705,1.601738,-1.1458626,1.9640479
1570726959,0.5058594,11.054337,0.086380005,1.1575012,-1.4381714,-0.2944336,0.78419316,1.013711,2.3380122
1570726959,-0.4482422,10.707184,0.48262024,0.5982361,-1.3327026,-0.5223999,-0.20405781,0.10807896,2.9888666
1570726959,1.5856323,13.590988,0.6897278,0.38838196,-1.5297852,-0.59910583,1.3665826,2.3813381,3.5503287
1570726959,2.1183472,15.659576,-0.43554688,0.43844604,-1.1995544,-0.5650177,3.1199598,5.0834684,2.2273138
1570726960,0.14193726,16.565796,0.2013092,0.01020813,-1.1750488,-0.3647461,1.601273,5.997761,2.7755451
1570726960,-2.014038,16.311996,0.9315338,-0.7685089,-1.2357635,0.21582031,-0.79065084,6.0330257,3.3322024
1570726960,-2.6125946,14.292496,1.1673584,-1.7165833,-1.8728027,0.6856079,-1.1527388,4.0501184,3.0989807
1570726960,-3.4936676,13.826828,1.813797,-2.4825134,-2.688797,1.2885437,-2.6119156,2.9699707,3.0081973
1570726960,0.6794281,14.681549,1.0727997,-2.9565582,-1.8323212,1.5761566,-0.10790193,3.9727898,1.877204
1570726960,0.98709106,14.258972,-1.4399261,-2.9949036,-1.6810455,1.0605774,1.5800173,3.6960526,-1.3684871
1570726960,-1.2670593,12.009628,-1.012558,-2.492096,-1.4509583,1.1063843,-0.51644963,1.8396826,-2.5781522
1570726960,-2.5359802,10.187637,0.9099884,-1.775177,-1.3412323,1.2725677,-3.3006787,-0.2710085,-1.6373477
1570726960,-1.2167816,10.482117,3.5627594,-1.8944855,-1.6043549,1.2416687,-2.8559446,-0.27816677,0.07577491
1570726960,-0.5990753,10.052368,0.5664215,-2.0979462,-1.1271057,1.3503265,-2.392324,0.06911278,-2.0037305
1570726960,-0.026855469,8.977371,-0.6977234,-2.0244446,-0.6477356,1.502655,-2.3802767,-0.92950535,-4.4974747
1570726960,-0.30099487,8.883987,2.4829712,-1.9829102,-0.15771484,1.6826935,-3.0948722,-0.53070354,-1.974575
1570726960,0.50465393,7.8556824,2.9857635,-1.9424286,-0.014968872,1.2960052,-2.781419,-1.136219,-2.0862546
1570726960,0.8853302,7.4175415,2.0436401,-1.5642548,-0.29301453,1.1404724,-2.62268,-1.3083992,-3.0124917
1570726960,1.8561859,6.505356,0.8812561,-1.5077972,1.0044861,1.057373,-1.8483922,-1.6655569,-5.2084336
1570726960,1.204956,4.458313,2.8073883,-1.0305634,1.3325806,0.7420654,-2.1124272,-3.0974712,-3.6088567
1570726960,-0.159729,1.434433,4.008087,-0.13574219,1.2420349,0.1561737,-3.5142338,-6.0454826,-2.6757107
1570726960,0.5585327,0.064956665,8.326035,0.74949646,0.52297974,-0.50535583,-2.726103,-7.819669,1.7231402
1570726960,2.0560913,2.8398285,12.049011,1.6826782,-1.544693,-1.4822083,-0.847106,-6.032275,5.1032066
1570726960,1.291153,8.408737,14.5677185,0.7186127,-2.2254028,-1.5589142,-1.346453,-2.153699,10.2806015
1570726960,1.2241058,13.337204,4.5898743,1.8009186,-1.2570801,-1.367157,-2.6170888,3.6928911,2.5085974
1570726960,0.923645,13.047516,3.6980286,1.3364563,-0.19607544,-1.3799438,-2.163782,5.2512255,-0.2196083
1570726960,1.7927399,8.673309,3.1940613,0.9519043,-0.27597046,-1.4992523,-0.013614416,-1.1287785,-1.9636354
1570726960,0.67463684,10.53479,0.29467773,1.0467072,-0.142807,-1.7442627,-0.95019376,0.4865265,-2.6274683
1570726960,0.4950714,13.679581,1.461853,1.1734772,0.6902313,-1.7197571,-0.56547785,2.9446783,-2.5026534
1570726960,2.2105255,12.917023,0.96984863,1.8051758,-0.08421326,-1.0124359,0.94013906,3.4448776,-2.13614
1570726960,2.8809052,10.4534,0.23960876,2.0917358,-1.1334991,-0.67793274,2.3700175,0.26682472,-2.1377668
1570726960,2.3086853,9.480148,1.1027222,2.065094,-1.0056763,-0.5554352,2.0179625,-1.1036901,-0.8376535
1570726960,-0.67089844,10.107437,0.97343445,1.6155548,0.62098694,-0.22732544,-0.6193019,-0.7258196,-0.27049804
1570726960,-1.693222,10.2235565,1.3146057,0.64404297,1.0843811,-0.26034546,-1.5296564,-0.5195427,0.6421417
1570726960,-1.8847504,9.522049,1.3696747,0.6323242,1.5104828,-0.32640076,-1.9280398,-0.9170799,0.5118526
1570726960,-1.1186066,8.800201,2.394394,0.92207336,0.8106079,-0.24969482,-1.7188834,-1.7903242,1.7270021
1570726960,0.8889313,9.194046,0.13665771,2.4421997,-2.3617554,0.25204468,0.26232964,-1.9458771,1.5552137
1570726961,1.0505371,9.183273,-0.1985321,0.26054382,0.032958984,-0.77700806,1.1549715,-1.3384199,-1.497503
1570726961,2.4726868,10.708374,-0.80784607,0.581192,0.040420532,-0.8100281,2.7099025,0.041978836,-0.15156639
1570726961,1.7328796,12.000046,-0.27633667,0.66748047,-0.13322449,-0.47872925,3.0206485,0.8828001,0.70717376
1570726961,0.3430481,12.499237,-0.80545044,0.6781311,0.206604,-0.6726074,1.2112734,1.8450623,0.20846999
1570726961,0.08328247,14.102158,0.31622314,0.7005005,0.57836914,-0.8409271,1.1905034,3.188939,1.5132619
1570726961,1.7173157,16.82077,0.13426208,0.41075134,0.605011,-0.70669556,2.6717522,5.5412426,2.0502758
1570726961,-1.3149414,18.133987,0.28269958,-0.45744324,0.2300415,-0.17619324,0.6476699,7.7497234,1.6265635
1570726961,-3.112976,15.635635,2.569168,-1.0422821,0.02017212,0.25949097,-1.4357243,5.745535,3.1336722
1570726961,-1.5543518,12.88829,4.324112,-1.8103333,-0.52098083,0.2850647,-0.46925533,2.200284,5.1213
1570726961,1.0349731,13.535934,2.9534454,-2.891571,-1.0781097,0.77934265,1.9575992,2.6862774,3.2069073
1570726961,2.312271,14.548676,0.8022461,-3.0428467,-0.97158813,1.0701599,2.8906236,3.799842,0.23308676
1570726961,2.312271,14.548676,0.8022461,-3.0428467,-0.97158813,1.0701599,2.8906236,3.799842,0.23308676
1570726961,1.12117,11.372772,-1.3680878,-2.6912994,-0.45599365,1.6166382,2.1186635,1.1505604,-2.930635
1570726961,-2.539566,9.446625,-2.2479706,-1.8657227,-0.04800415,1.8392792,-3.573367,-0.21153355,-5.060028
1570726961,-0.6864624,8.467407,0.9303436,-2.0521393,1.3411102,1.4802856,-2.6272383,-1.8612099,-3.797892
1570726961,-0.7977905,9.817734,3.9781647,-1.9520111,0.29821777,1.835022,-2.2775393,-0.17749119,1.1862583
1570726961,-2.7562408,8.728363,0.19291687,-2.1725159,0.80207825,1.6113129,-4.9151344,-0.15984344,-4.598255
1570726961,-0.9210968,6.1988983,3.0180817,-1.7996826,-0.029891968,1.1564484,-3.378549,-2.4112291,-3.8925428
1570726961,1.8118896,5.936737,-0.0010070801,-1.3224335,-0.026687622,1.1958618,-1.4885309,-2.6502209,-5.342086
1570726961,2.2584076,6.5568237,1.4031982,-1.3884888,0.69555664,1.1447296,-0.66032696,-1.9376068,-5.346781
1570726961,0.5238037,4.0417175,3.5555878,-0.340271,1.4305878,0.8837433,-1.7204092,-3.0499487,-3.394991
1570726961,-0.30578613,0.73413086,6.3053284,0.7601471,1.067337,0.30529785,-3.0747912,-6.593305,-1.1393776
1570726961,0.84703064,0.19662476,9.094559,2.032074,-0.4634552,-0.5937805,-1.8046455,-7.922535,2.4366002
1570726961,1.1115875,9.118622,14.833466,1.8200836,-0.6903534,-1.0113678,-2.876144,-1.585165,13.488508
1570726961,0.36698914,23.123505,4.296585,2.0736237,-2.4576263,-1.0507812,1.4350224,10.103041,-13.168547
1570726961,-0.14537048,14.734222,4.202011,1.5196838,0.6987457,-0.9591675,-2.908003,10.51185,-0.7062278
1570726961,2.077652,5.3142395,-0.4451294,1.3875885,0.2662506,-1.1338654,0.17301369,-3.8798418,-4.2434735
1570726961,0.3358612,8.500916,4.6736755,1.2799988,-1.209137,-1.6260223,-1.0599111,-2.3355904,1.5028677
1570726961,-2.172058,11.458954,-2.063614,1.4664154,-0.45492554,-1.873169,-2.8803868,0.6678791,-4.698848
1570726961,-1.2945862,15.740982,1.7359924,1.4941254,0.3876953,-1.4960632,-3.3902042,4.4924297,-2.5627134
1570726961,1.4647369,12.595001,0.62628174,1.8840027,0.3600006,-1.2648926,0.8820074,2.662386,-1.5593097
1570726961,2.5888062,10.306152,0.417984,1.5612335,0.23216248,-1.081665,2.5342007,-0.02094841,-1.5049825
1570726961,0.13595581,9.768646,1.5229034,1.1979828,0.5964813,-0.63212585,1.2085227,-0.89881706,0.31679952
1570726962,-0.6170349,8.494934,1.0608215,0.7558899,1.3496246,-0.101623535,-1.1503408,-1.471344,-0.48061365
1570726962,-0.4530182,8.503311,1.8868256,0.6078186,0.72325134,-0.28805542,-0.4343493,-2.1535864,0.85187304
1570726962,1.9663086,9.645355,0.9506836,2.0171661,-0.7372284,-0.12612915,2.0455875,-1.5033436,0.49635774
1570726962,1.2265015,9.856033,0.22164917,3.0568695,-2.0720062,0.5311432,1.7187216,-1.0232744,1.5569096
1570726962,-0.8157501,9.4765625,1.066803,0.1998291,0.46333313,-0.7088318,0.12833387,-0.89034176,0.9649846
1570726962,2.018982,10.647324,-0.33859253,0.51620483,-0.07676697,-0.71095276,2.0244212,0.116975784,0.8905072
1570726962,0.62675476,12.014404,-0.5504761,0.5055542,-0.13215637,-0.523468,1.8916644,1.2277107,0.938035
1570726962,-0.24234009,13.002014,-0.973053,0.407547,0.14694214,-0.664093,1.1959956,2.3173943,0.21317291
1570726962,0.028213501,15.343552,-0.80784607,0.34362793,0.40048218,-0.7471771,1.2092732,3.9378643,0.765013
1570726962,1.512619,16.110886,-0.3254242,0.022994995,0.3397522,-0.617218,3.0675464,4.67675,1.2307686
1570726962,-1.3915558,18.16272,1.3696747,-0.7163086,-0.07463074,-0.14849854,0.7516633,8.476097,2.9247308
1570726962,-3.2674103,16.254547,1.7970428,-1.1722412,0.02444458,0.025146484,-1.0931337,6.0607195,2.6011336
1570726962,-1.9709473,13.247421,4.0140686,-2.524063,-0.53482056,0.64512634,-0.8102875,3.0768213,4.240214
1570726962,0.84342957,13.662827,5.751068,-3.0375214,-1.1164551,0.9998627,1.4551407,2.299944,5.210292
1570726962,2.3613586,14.977234,0.6430359,-2.493164,-1.2901001,1.1852112,3.5396724,4.460887,0.43212843
1570726962,0.49269104,11.00885,-3.8437042,-2.559204,-0.7276306,1.6677704,2.2852676,1.2224894,-5.034194
1570726962,-1.6190033,9.936249,-3.6389923,-2.4803772,-0.1342926,1.8169098,-1.1026548,-0.5278263,-6.563362
1570726962,-3.496048,7.7132263,1.7731018,-1.6047363,-0.09700012,1.5623169,-4.246686,-2.283039,-2.1484747
1570726962,-2.989685,7.5911255,1.5588226,-1.9253845,0.8979492,1.373764,-4.508834,-2.5848389,-2.2905068
1570726962,-0.5523834,9.012085,2.976181,-2.0084686,0.53790283,1.4153137,-2.0939097,-0.74343777,-1.5937805
1570726962,-2.3360596,7.9155426,0.29348755,-2.0553436,0.14694214,1.4930725,-3.5893834,-0.7781038,-4.41098
1570726962,-1.6752625,6.0564423,3.6633148,-1.7794342,-0.2205658,1.0296783,-3.8614614,-2.6627607,-3.223311
1570726962,1.3138885,6.2276306,0.7411957,-1.312851,-0.2631836,0.9572449,-1.5103891,-2.6509552,-5.278174
1570726962,1.4479675,6.5400696,3.2383423,-0.9666443,0.43136597,1.0616455,-1.0414073,-1.4730988,-3.4229012
1570726962,-0.4769745,4.1769867,4.7538757,-0.07821655,0.8052826,0.7814789,-2.6999643,-3.1025605,-2.1580834
1570726962,0.5740814,0.83229065,5.0028687,1.1830597,0.4611969,-0.16661072,-2.3007216,-6.9721403,-1.6293569
1570726962,1.7903442,2.5166168,6.605789,2.222763,-1.0536041,-1.1956482,-0.73197794,-6.6822853,0.25963974
1570726962,6.04245,15.714645,10.204285,1.4291382,-0.30259705,-0.6204071,2.076854,3.6364489,6.624096
1570726962,-0.09030151,20.96753,1.3876343,2.3591156,-1.4094086,-0.759964,2.3832686,9.781736,-9.688147
1570726962,-0.24711609,13.237854,4.192444,1.5282135,0.023376465,-0.11654663,-2.291416,5.9886293,0.6726651
1570726962,2.1303253,4.3733215,3.5460052,1.6890564,0.2939453,-0.41375732,-0.260113,-5.2061205,0.05056286
1570726962,-0.82292175,8.517685,2.9318848,1.4706879,-1.0632019,-1.4129639,-2.5006528,-2.1430645,-0.14891028
1570726962,-3.1943817,12.210739,-0.76116943,1.5420532,-0.025634766,-1.7677002,-4.436632,1.4078808,-2.7250853
1570726962,-1.5004883,14.13089,2.5021362,0.97639465,0.7402954,-1.5535889,-3.0320587,3.8829088,-1.013124
1570726963,-0.26628113,11.542755,0.34614563,1.1532288,0.24708557,-1.5354767,-0.8442807,1.2950306,-1.8343105
1570726963,0.5956421,10.339661,0.299469,1.2256775,0.40153503,-1.2063141,0.5173211,-0.16796494,-1.4643614
1570726963,1.611969,9.832092,0.8237915,1.221405,0.429245,-0.8899231,1.5622582,-0.72945595,-0.63606954
1570726963,0.76441956,10.008072,1.3229828,1.122345,-0.0362854,-0.5937805,2.7253232,-0.8482332,0.30603063
1570726963,-5.187988E-4,9.100662,1.4283295,1.1436462,0.054260254,-0.13677979,0.792548,-1.5942068,0.7303699
1570726963,-0.0579834,9.690842,1.0739899,1.6283417,-0.25679016,0.023010254,0.4938602,-1.0945463,0.8986957
1570726963,0.5669098,9.702805,2.2782745,1.8296814,-1.4584045,0.5354004,1.1876659,-1.0219116,2.4009466
1570726963,1.1391144,10.419876,-0.98143005,0.7516327,-0.75639343,0.021942139,1.6088171,-0.42636108,0.14338201
1570726963,0.34065247,10.598236,-0.3146515,0.31167603,0.40792847,-0.7162781,0.80167186,-0.25222015,0.312958
1570726963,1.5114136,11.162079,-0.33738708,0.5801239,0.16291809,-0.57247925,2.369112,0.37668037,0.55539876
1570726963,0.23770142,12.794922,0.036102295,0.57373047,0.24069214,-0.59484863,1.6005495,1.7838097,1.218042
1570726963,-0.7451172,15.0346985,-0.109939575,0.5524292,0.4846344,-0.6406555,0.50838554,3.6183214,1.1244991
1570726963,0.0904541,16.309616,0.32939148,-0.09098816,0.23323059,-0.5138855,1.3339838,5.6597633,1.4631528
1570726963,-1.0719299,17.760498,1.4881897,-0.757843,0.1554718,-0.092041016,0.45298207,7.2655716,2.3673954
1570726963,-1.8943329,15.165176,3.2227936,-1.4151154,-0.103393555,0.009155273,-0.5752709,5.228136,3.8213382
1570726963,-0.84088135,13.164825,4.3899536,-2.3067474,-0.6445465,0.2893219,0.13876653,2.7954464,4.420662
1570726963,-0.12980652,13.453323,2.5667725,-2.7498932,-1.2932892,0.8603058,0.86838627,2.522788,2.081747
1570726963,1.3665619,13.397064,0.7950592,-2.4526825,-0.87358093,1.1585846,2.0452018,2.9917727,-1.2313317
1570726963,0.43881226,11.449387,0.43832397,-2.1757202,-0.9694519,1.6177063,1.1337543,1.4985342,-0.9578843
1570726963,-0.50450134,10.160095,-0.77194214,-1.9605255,-0.5326996,1.7892151,-0.9196427,-0.24424171,-3.5458233
1570726963,-1.7051849,8.806183,0.7016907,-1.9903564,0.12564087,1.502655,-2.5508878,-1.3628759,-2.9110265
1570726963,-1.7411041,8.7295685,1.4893799,-1.8870239,0.6976929,1.4003906,-3.017176,-1.2892494,-2.7644958
1570726963,-1.4777374,9.277832,2.6888733,-2.1213837,0.40260315,1.48349,-3.049354,-0.7611494,-2.523448
1570726963,-2.5898438,8.55719,1.7240143,-2.2129974,0.33763123,1.4153137,-4.4707427,-0.56811047,-3.4224963
1570726963,-0.5487976,6.7483673,2.9115448,-1.8358917,-0.2962036,1.0957336,-3.7155898,-1.6129065,-3.107048
1570726963,1.6047974,6.9853973,1.161377,-1.5333557,0.15759277,1.0765533,-1.3530765,-1.5899487,-5.1121635
1570726963,1.4419861,5.6506195,2.7008514,-1.1381531,1.099289,1.0818787,-1.1102495,-2.173502,-4.2535324
1570726963,-0.7918091,2.394516,4.3325043,-0.045181274,1.2452393,0.6014404,-2.9386613,-4.718358,-2.463653
1570726963,-0.19683838,0.27085876,6.193985,1.1010437,0.7456207,-0.19111633,-2.805286,-7.3705297,-1.1380816
1570726963,1.3522034,1.0501709,8.406235,2.1023865,-0.7276306,-0.87820435,-0.9646363,-7.1600695,1.8407998
1570726963,-0.1776886,6.003769,9.984009,2.2142334,-1.9580231,-1.0838013,-1.8241861,-3.4957123,2.9501948
1570726963,6.9462585,19.89972,-0.61990356,2.6158447,-1.784378,-1.0209503,4.6161337,10.147365,-3.9488292
1570726963,2.5349426,19.164688,8.103363,1.8009186,-0.82884216,-0.22946167,-0.9296205,17.656288,4.028749
1570726964,1.9088593,4.7264557,-0.078811646,1.3172913,1.5009003,-0.8451843,0.030990839,-4.269231,-4.7670565
1570726964,-0.2566986,5.224457,5.861191,1.2064972,-0.22695923,-1.304306,-1.4920537,-5.255373,1.3639326
1570726964,-3.7282867,11.924637,-0.9084015,1.5814667,-0.8863678,-2.1597137,-4.463763,0.28369236,-3.1016662
1570726964,-1.3556366,16.402985,0.82858276,1.2863922,0.9533539,-1.6984558,-3.2842836,6.21043,-3.4120183
1570726964,1.572464,12.466919,1.758728,1.6752167,0.98316956,-1.3756866,0.86520183,3.043089,-0.18348122
1570726964,2.2344666,9.271851,0.5341034,1.5409851,0.26412964,-0.80470276,2.5979934,-1.10042,-1.2659584
1570726964,1.1451111,9.291,1.4606476,1.3758698,-0.14813232,-0.50642395,1.932883,-1.4979506,0.16911662
1570726964,-0.17410278,10.108627,0.5891571,1.2725372,0.08622742,0.02619934,0.41289935,-0.39558792,0.18442297
1570726964,-0.68885803,9.787811,2.229187,1.1191406,-0.2674408,-0.06434631,-0.006875515,-1.0092449,1.8239144
1570726964,-0.8959503,9.753082,2.177719,1.5218201,-0.68289185,-0.13571167,-0.81718934,-1.0378323,2.5498948
1570726964,0.350235,8.403961,-0.19134521,1.2640228,-0.21205139,-0.17086792,0.6896233,-1.861433,-0.04860857
1570726964,1.7137299,9.4370575,-0.91200256,1.1489716,-1.2496185,-0.010009766,2.0983396,-1.3134251,0.8109447
1570726964,1.2636108,10.037994,-0.7216644,0.8272705,0.29927063,-0.3327942,2.1136672,-0.83540154,-0.20787978
1570726964,1.1594696,11.634933,-0.37091064,0.67492676,0.12670898,-0.4819336,1.886102,0.8686323,1.040073
1570726964,0.12158203,14.0698395,0.36650085,0.4736023,0.16505432,-0.4670105,1.2897518,3.1048117,1.3459336
1570726964,-0.84088135,14.725845,1.4355164,0.3713379,0.058532715,-0.42546082,0.28494883,4.116873,2.9474075
1570726964,1.5976105,15.71106,0.08758545,-0.199646,0.048934937,-0.5927124,2.141895,4.746567,2.2463615
1570726964,-0.94862366,18.51587,1.2523651,-0.88142395,-0.36758423,0.03579712,0.9592211,8.262663,1.6695861
1570726964,-1.8907471,14.567825,3.5304413,-1.1647797,-0.19393921,0.27120972,-0.4593463,4.4542093,4.286503
1570726964,-1.2119904,13.416214,4.319336,-2.3823853,-0.84695435,0.4107666,-0.07831323,2.8166504,4.6940393
1570726964,-0.03883362,13.753799,1.5504303,-2.8830566,-1.6863708,0.862442,0.61920357,2.539051,2.1907237
1570726964,1.1391144,13.686768,-0.34217834,-2.8010254,-1.3657379,0.99346924,1.6391956,3.0270042,-0.88226175
1570726964,1.1391144,13.686768,-0.34217834,-2.8010254,-1.3657379,0.99346924,1.6391956,3.0270042,-0.88226175
1570726964,-0.9869385,10.2283325,-0.18894958,-1.8327026,-0.15345764,1.7125244,-1.0834047,-0.13493443,-3.0326552
1570726964,-2.3480377,9.281433,0.88365173,-2.093689,-0.12362671,1.6603241,-2.8952918,-0.918108,-2.6162999
1570726964,-2.5850677,8.798996,2.0568085,-1.9434814,0.7679901,1.420639,-3.8788686,-1.2574711,-2.0480888
1570726964,-1.6201935,9.030045,1.4079742,-2.1821136,0.49847412,1.5335541,-3.1833508,-0.6769266,-2.871169
1570726964,-1.6956177,8.310577,2.7930298,-2.3099365,0.41859436,1.3748322,-3.718317,-0.7172222,-2.3024879
1570726964,-0.4230957,7.012924,3.6333923,-1.8827667,-0.236557,1.1117096,-3.0628684,-1.7471924,-2.773004
1570726964,2.180603,7.202072,0.6286621,-1.5876923,-0.046936035,1.1063843,-0.6336763,-1.3391094,-5.3098917
1570726964,1.690979,5.845749,2.8325348,-1.2478638,1.0055542,1.0701599,-0.70255446,-1.8457699,-4.0825725
1570726964,0.6830292,3.592804,3.8057709,-0.43933105,1.1674652,0.72288513,-1.8866012,-3.9254355,-2.9722805
1570726964,0.49388123,1.1279755,4.65213,0.63871765,0.731781,0.038986206,-2.1306634,-6.3125753,-2.6499271
1570726965,0.37417603,0.7377167,8.056686,1.6826782,-0.2876892,-0.62893677,-1.962143,-7.314061,0.4601903
1570726965,-1.0611572,9.110245,23.310135,0.6323242,-0.7468109,-1.0039062,-3.8586388,-1.9660587,14.990116
1570726965,1.3581848,17.740143,-2.2156372,2.5423431,-1.6064758,-0.9122925,2.4219077,6.2512684,-18.518423
1570726965,-0.5990753,16.30841,5.7654266,0.79211426,-0.77557373,-0.9133606,-1.761416,10.556768,-2.7995267
1570726965,3.3250275,7.501343,-0.35534668,1.6752167,0.29182434,-0.95809937,1.1822705,-1.5028667,-3.6243377
1570726965,1.5150146,12.205948,5.292572,1.5889282,-1.0568085,-1.2861938,0.12350249,1.4810362,1.0235696
1570726965,-1.5304108,11.578674,-0.17578125,1.3321991,-0.38781738,-1.9072571,-2.5844517,1.9273195,-3.8546917
1570726965,0.24249268,10.376785,1.011734,1.4781342,-0.19607544,-1.7187042,-1.3272768,0.16685104,-1.6489868
1570726965,0.90927124,11.561905,0.48980713,1.5740204,0.053207397,-1.6345367,0.34686682,0.96929455,-2.2553494
1570726965,2.4116364,12.768585,-0.16740417,1.7476501,0.82232666,-1.1434631,2.0905411,2.249216,-2.3101015
1570726965,2.4990234,10.127777,1.7970428,1.8350067,0.6806488,-0.6672821,2.967589,-0.114331245,0.08632398
1570726965,-0.6876526,9.478958,1.5109253,1.5122223,0.09262085,-0.16661072,0.25672066,-0.9539356,0.70533454
1570726965,-1.8644104,8.840897,1.3146057,1.089325,0.44308472,0.07733154,-1.2113382,-1.7154503,0.64193726
1570726965,0.3466339,8.660141,1.719223,0.7942352,-0.25572205,-0.2443695,0.3010602,-2.0738926,1.6617485
1570726965,-0.09150696,10.055954,1.0320892,1.1447144,0.25880432,-0.30082703,0.47736037,-0.9483843,1.051845
1570726965,0.29875183,10.387558,2.2232056,1.122345,-0.6903534,0.008102417,0.96011025,-0.15113258,2.1696606
1570726965,1.1080017,10.759857,-2.103119,1.1905212,-1.1164551,0.27760315,1.5829575,0.24648857,-0.61421704
1570726965,-0.010101318,10.23671,0.18933105,0.32658386,0.14694214,-0.2944336,0.88092107,-0.60002613,1.1707542
1570726965,0.96913147,10.564728,-0.8712921,0.4597473,-0.051193237,-0.32640076,1.4805969,-0.015997887,0.29611206
1570726965,0.39811707,11.231506,-1.5835724,0.59503174,0.029769897,-0.35302734,1.2171395,0.5472965,-0.26864183
1570726965,-0.843277,11.9557495,-0.68574524,0.60035706,0.17996216,-0.4361267,0.29650712,1.1653728,0.26637232
1570726965,-0.17649841,12.179611,-0.36732483,0.6951752,0.19274902,-0.63319397,0.7861376,1.6470089,1.4851037
1570726965,1.1822205,12.739853,-0.7264557,0.81022644,0.23641968,-0.666214,2.1294556,2.3110428,1.0739487
1570726965,0.6674652,14.824005,-0.7886963,0.42991638,0.14268494,-0.5980377,3.016417,3.7867641,1.1245849
1570726965,-3.0782623,16.243774,-0.93473816,-0.0025787354,0.04360962,-0.12931824,-0.91554177,5.7416677,1.1063919
1570726965,-3.4637299,16.365875,-0.24880981,-0.10270691,0.15652466,-0.1421051,-1.9807626,5.866601,1.7284796
1570726965,-3.4637299,16.365875,-0.24880981,-0.10270691,0.15652466,-0.1421051,-1.9807626,5.866601,1.7284796
1570726965,0.10482788,12.220306,0.7723236,-1.8050079,-0.5167084,0.093322754,1.4212031,1.7096043,2.0579538
1570726965,0.2281189,13.710709,3.5819092,-2.6007538,-3.5143738,0.83047485,2.6769674,3.8708315,2.2409434
1570726965,0.36219788,12.134125,-1.3214111,-1.997818,-1.5574799,1.2704315,1.5557208,2.7127037,-2.3981895
1570726965,-0.827713,9.05278,-3.0392456,-1.8273773,-0.13641357,1.48349,-0.29063284,-1.6237335,-4.043804
1570726965,-2.8376465,8.279465,-2.3521118,-1.744278,0.21192932,1.2928009,-2.4832575,-1.9542036,-3.874614
1570726965,-2.194809,8.04483,0.32580566,-1.4619904,-0.124694824,1.3194427,-2.889672,-2.632475,-2.2056293
1570726965,-1.0264435,9.581909,2.3536987,-0.13786316,-0.04586792,0.75164795,-2.6574285,-2.3045387,0.70349455
1570726966,-1.7590637,6.8872223,2.1370087,-1.2936707,0.28329468,0.9636383,-2.9201913,-3.2773,0.11565137
1570726966,-0.8360901,8.836105,-0.109939575,-1.2180481,-0.017105103,0.5407257,-1.8495715,-1.6318092,-2.9924617
1570726966,-1.5016785,9.4765625,1.9921722,-0.9240265,-0.25039673,0.6632385,-2.511811,-0.7393112,-1.4145598
1570726966,-0.44584656,8.524857,2.105896,-0.92829895,-0.39634705,0.6642914,-1.9945959,-1.3339195,-1.4728885
1570726966,0.5010681,7.633026,1.813797,-0.642807,-0.5358887,0.36175537,-1.0711727,-2.2218199,-2.2478864
1570726966,0.67463684,7.8209686,1.7383881,-0.049453735,-0.50286865,0.2616272,-1.0743219,-1.9979258,-1.9246042
1570726966,-0.054397583,7.296631,1.2164459,0.34362793,-0.2727661,0.058166504,-1.8917423,-2.2534742,-2.4618006
1570726966,-0.19445801,6.08757,1.248764,0.69303894,-0.039474487,-0.2720642,-1.9408075,-3.6377792,-2.4080834
1570726966,-0.7068176,5.7056885,2.002945,1.2118225,0.040420532,-0.80895996,-2.2506475,-4.249172,-1.5468233
1570726966,0.041381836,6.1845245,1.5576172,1.7188873,0.29927063,-1.3948517,-1.3473647,-3.9845533,-1.1992934
1570726966,0.42085266,7.467819,1.4403076,1.9223633,1.1568146,-1.8752899,-0.3158576,-3.0813541,-0.80354977
1570726966,1.9160309,14.439743,6.094635,1.9308777,2.1432495,-1.5780792,1.3105865,2.40981,3.150072
1570726966,1.7017517,19.375381,9.333984,1.8126373,1.8620148,-1.3362732,2.1224527,4.637247,5.051949
1570726966,4.5077667,12.452545,8.28772,-0.75146484,-2.3798676,0.6429901,5.482502,6.254121,8.6032715
1570726966,0.19100952,11.855194,2.5093079,-0.08886719,-0.42936707,0.6323395,0.57719016,0.91107845,1.2721807
1570726966,-3.8767395,11.557114,-0.30267334,0.21580505,0.94270325,0.22328186,-3.9745748,1.6966429,-1.8304183
1570726966,-3.9952393,8.157349,1.5396576,-0.6417389,1.0886383,-0.6076355,-4.4464355,-2.4790401,-0.90914047
1570726966,-0.14656067,9.027649,1.7204285,-0.7525177,0.3173828,-0.95596313,-0.5467467,-1.7141199,0.685295
1570726966,0.2053833,8.937866,-1.2196503,-0.040924072,0.9640045,-0.5330658,0.4950222,-1.4100866,-2.9265895
1570726966,1.2767792,11.188416,1.5001526,0.3574829,1.9951782,-0.85476685,1.8779716,0.33791256,-0.7816285
1570726966,-0.28303528,12.312485,0.0013885498,0.8091583,2.4404602,-1.02948,0.6311742,1.8958788,-1.4614351
1570726966,-0.5930786,9.737534,1.7060547,0.54389954,2.9272919,-1.3863373,1.0476297,-0.4147215,0.83702004
1570726966,-1.3975372,9.505295,-0.6079407,-0.06436157,3.013565,-1.0891266,0.7080753,-1.0109997,-1.7515335
1570726966,-2.1277618,9.824921,0.22644043,-0.11442566,2.263626,-0.39990234,0.48794985,-0.8415699,-0.9840004
1570726966,-2.093048,11.468536,0.32939148,0.4352417,0.027633667,0.69732666,0.13098454,0.8897219,-0.2552551
1570726966,-0.83729553,11.499664,-1.8301697,0.08052063,-3.3194275,0.8560486,0.8357471,1.1915846,-2.5108733
1570726966,-1.0994568,10.301361,-1.2843018,-0.2156372,-3.5143738,0.55137634,0.7986953,-0.0076942444,-2.3610795
1570726966,-1.7219543,9.687241,-0.9934082,-0.31150818,-3.471756,0.48640442,-0.12653923,-0.6472788,-2.1999092
1570726966,-5.8100586,17.456436,-2.0504456,2.638214,0.44841003,0.11141968,-3.5069542,5.2620935,-1.9260371
1570726966,-1.9841156,11.868362,-4.1609344,2.0832062,1.3954315,0.9593811,-3.1096675,5.445923,-4.768941
1570726966,0.9248352,6.9853973,-1.0963593,1.3162231,2.0431213,-0.027053833,1.6501797,-5.5581303,-0.99729633
1570726966,-2.1648865,12.76619,0.14624023,1.5431213,2.3776093,0.24139404,-2.1236713,3.0848722,0.2727369
1570726966,-1.6201935,12.568665,0.2527771,1.6251526,0.8436279,0.337265,-0.74799186,1.6537104,2.4549193
1570726967,-2.9908752,11.8719635,2.7642975,0.5023651,-1.335907,0.56629944,-1.9910071,1.2311201,5.847129
1570726967,-1.8608093,11.035187,0.29826355,-0.39672852,-3.0317993,0.34259033,-1.262496,0.5432358,2.3394175
1570726967,-2.7897644,12.241867,-1.269928,-0.5724945,-3.0477905,0.025146484,-2.140085,1.3856573,0.7138077
1570726967,-3.1453094,13.170807,-2.2324066,-0.6246948,-2.485321,-0.22946167,-2.5960803,2.6344233,-0.10272598
1570726967,-1.9170837,15.355515,-3.8329315,-0.7237549,-1.8994293,-1.0731506,-0.59024537,4.192771,-2.2129345
1570726967,-1.4681702,14.60733,-3.03685,0.27545166,-0.7468109,-1.1327972,-0.032274842,3.890686,-2.4143748
1570726967,-1.0850983,13.57663,-2.4155579,1.5995789,-2.3383179,-0.5884552,0.7397827,3.4629145,0.09018457
1570726967,-0.8839874,13.907028,-5.854828,1.7828064,-0.8022003,0.009155273,0.7984412,4.0776186,-3.4481878
1570726967,-1.2862091,11.9557495,-0.7444,1.1628265,0.8883667,0.5140991,0.997689,1.1822996,-0.86125493
1570726967,0.72612,14.124893,2.8780212,2.0448608,-3.3886719,1.9074554,3.119115,4.3626194,8.03021
1570726967,-1.3915558,12.357986,-0.93833923,1.1127625,-3.8552551,2.8438263,0.011798859,1.8399258,2.414804
1570726967,0.7967529,13.869919,-1.2687378,0.49916077,-1.4062042,3.0962982,1.1177212,4.047843,1.7143548
1570726967,1.6921844,12.889496,-2.7124329,1.8019867,-2.116745,1.9404907,1.2092056,3.265934,0.48511052
1570726967,1.919632,10.503677,-4.266281,0.44483948,-1.7481537,0.07733154,1.1049184,1.0197992,0.398746
1570726967,0.83265686,10.170883,-4.247116,-4.2977295,0.27157593,-0.6704712,0.34998414,-0.09497452,-0.8563974
1570726967,1.2492523,10.113419,-2.803421,-7.5371857,1.6766663,-1.0230865,1.4569333,-0.38134098,-1.4840957
1570726967,-0.17050171,9.469376,2.0651855,-8.9263,1.7245941,-1.1903229,0.0014515519,-1.4368362,0.35420895
1570726967,-0.1776886,11.470932,1.7778931,-8.523621,0.57411194,-1.2734222,1.2008171,1.1313705,-2.1938324
1570726967,-1.0276337,9.674072,2.567978,-7.8226776,0.4803772,-1.1690216,1.5040364,1.0683556,-4.2727866
1570726967,-1.3664093,8.087921,4.0930786,-6.7020264,-0.07463074,-0.30828857,-0.14683199,1.3423872,-3.984229
1570726967,-0.6385803,6.894409,2.5703735,-5.8913574,-1.4775848,0.27973938,0.85794127,1.4667315,-6.244605
1570726967,-0.530838,5.5596466,1.3660889,-5.1094513,-1.0759735,0.6664276,0.3331219,2.1265604,-8.685253
1570726967,-1.6082306,3.7077332,2.098709,-4.1667023,-0.24827576,1.0861359,-0.66460526,1.4814425,-8.653421
1570726967,-1.7889862,2.5453491,3.36763,-2.745636,0.22151184,1.4738922,-1.0563684,1.147687,-7.5467854
1570726967,-1.8129272,1.9635468,3.6393738,-1.0731659,0.940567,1.5569916,-0.72083974,1.0671873,-7.2118616
1570726967,-2.3719788,2.4196472,5.0052643,0.40115356,1.3208618,1.5974731,-1.2108861,1.6612473,-5.9656324
1570726967,-4.3268433,-5.487198,32.608017,1.2640228,0.14907837,1.1596527,-1.0133555,0.90860367,-4.232316
1570726967,-5.2210846,1.5625305,10.763321,-2.2225952,1.1600037,-2.2566528,-6.193997,-0.5268387,-1.5477991
1570726967,-3.1644592,4.7216797,12.037033,-2.109665,-0.16517639,-1.5109711,-1.2502803,4.3799224,2.0970936
1570726967,-2.962143,0.86102295,8.759384,-1.1488037,0.9863739,-0.3977661,-1.2010204,1.7030157,-1.8839397
1570726967,-2.6700592,0.4216919,11.396591,-0.38287354,0.84469604,0.1678772,-0.74981546,1.2284765,0.27282333
1570726967,-3.5618896,0.6575165,11.663544,0.6919708,-0.008590698,0.15083313,-0.98448133,1.3731976,1.6582184
1570726967,-2.7778015,0.68743896,9.684738,0.91249084,-0.2397461,-0.16235352,-0.8106668,1.200745,-0.5074253
1570726968,-2.234314,0.89334106,8.105759,0.24775696,0.025497437,-0.32214355,-0.02614522,1.3109162,-2.1504993
1570726968,-3.429016,0.7042084,9.621292,-0.3477173,0.49421692,-0.13571167,-1.2165813,0.86412776,-1.1217175
1570726968,-2.780182,0.667099,9.633255,-0.5533142,0.2705078,-0.016403198,-0.5150833,1.1844774,-0.62568855
1570726968,-2.95018,0.3390808,9.166397,-0.7163086,-0.06504822,0.020874023,-0.5424936,1.0961835,-0.90060616
1570726968,-2.5671082,-0.3408661,10.089355,-1.1179047,-0.2908783,0.40544128,-0.5118661,0.77730244,-0.5812788
1570726968,-2.673645,-1.1537018,9.825989,-0.85798645,-0.78622437,0.76123047,-0.41215062,0.35429323,-0.4017706
1570726968,-2.3396606,-0.8675842,10.776489,-0.27209473,-0.83628845,1.118103,-0.50718904,0.45266664,0.39511108
1570726968,-1.5148468,0.41809082,9.5746,0.3020935,-0.89701843,1.2682953,0.116389394,1.4418153,-0.5826969
1570726968,-1.0874939,0.4719696,8.375107,0.29995728,0.027633667,1.3151703,0.3800726,1.6832756,-1.8897943
1570726968,-1.2119904,1.276413,8.065063,-0.35624695,0.4111328,1.0041199,0.6269324,2.1161351,-2.4702234
1570726968,-1.7818146,1.5601349,9.616501,-1.2553253,-0.2919464,1.276825,-0.0522362,2.8587441,-0.68025684
1570726968,-0.3033905,0.5018921,9.240616,-1.8763733,-1.1420288,1.0935974,1.0165148,2.1864858,-1.1075077
1570726968,-0.154953,-0.2941742,8.818039,-2.3152618,-1.798233,0.5630951,0.98228323,2.1582434,-1.2748156
1570726968,-1.5184479,0.14874268,8.983231,-0.11656189,-0.37184143,0.3170166,-0.95389396,2.9384995,-1.4428825
1570726968,-1.5364075,-0.69880676,10.514328,0.79530334,2.4266052,1.0818787,-0.5767987,1.8081431,0.011816025
1570726968,-3.104599,0.0074920654,11.4648285,0.87519836,1.8535004,1.4707031,-1.0852456,2.2677083,1.318862
1570726968,-2.9705353,0.024246216,9.184341,0.5236664,0.2566681,2.0129242,-0.59215283,1.7577996,-0.31677818
1570726968,-2.4509888,-0.8723755,9.6584015,0.13697815,0.7136688,2.344223,0.040959597,0.9020362,-0.7010851
1570726968,-2.996872,-1.6349335,11.013519,0.37345886,-0.115112305,2.2376862,0.019236088,-0.47716546,1.0784283
1570726968,-3.293747,-0.7742157,8.92218,0.97106934,-1.3369751,2.2387543,-0.77962637,0.10439402,-0.81855106
1570726968,-3.0399628,-0.32888794,7.960907,1.23526,0.37278748,2.5615387,-0.87420416,0.16639,-2.423171
1570726968,-2.21875,-0.045181274,10.186325,1.2618866,1.5211334,2.6499481,0.45563698,-0.094179064,-0.22520447
1570726968,-3.8779297,-0.28819275,9.586578,1.889328,1.48172,2.6350403,-0.20946693,-0.7208889,-0.5033064
1570726968,-3.7438507,0.7772217,9.725433,0.54389954,0.24176025,2.54982,-0.714844,-1.0957427,-0.22756863
1570726968,-1.8057556,2.1862183,9.768539,-0.4425354,-1.3774414,2.0363617,0.9855223,0.45259953,-0.059557915
1570726968,-1.1222076,1.4356384,9.520737,-0.094192505,-1.4115448,1.7018585,1.2757342,-0.1492778,-0.34065628
1570726968,-2.088272,1.7360992,9.277725,0.11140442,-0.667984,1.4142456,0.030318022,-0.1423657,-0.7998276
1570726968,-1.9087067,2.188614,9.608124,-0.061172485,0.45906067,1.1745605,0.1476028,0.21288025,-0.5959587
1570726968,-1.1736755,2.1622772,10.040283,-0.23587036,0.766922,1.2192993,0.9626603,0.28725863,-0.03943062
1570726968,-1.5878754,1.9252472,9.59137,-0.22840881,0.5304413,1.147934,0.90356565,-0.046815634,-0.32566738
1570726968,-1.9948883,2.0090485,9.624878,-0.15811157,0.5261841,1.0765533,0.41483974,0.043463945,-0.36579227
1570726968,-2.515625,2.2903595,9.252579,-0.11656189,0.6902313,0.99772644,0.06520152,0.17699575,-0.62676716
1570726968,-1.8835602,1.8594055,9.799652,-0.06542969,0.44522095,0.9891968,0.55411696,-0.13334727,-0.20209122
1570726968,-2.258255,2.308319,9.316025,-0.031341553,0.14375305,0.9071808,0.51555896,0.012260437,-0.44559288
1570726969,-2.491684,2.418457,9.295685,-0.14425659,0.38023376,0.944458,0.18053436,0.23160267,-0.65964127
1570726969,-2.6903992,2.4531708,9.424973,-0.29553223,0.2619934,0.8059845,0.061471462,0.25255632,-0.4507141
1570726969,-2.2019958,1.9970703,9.695511,-0.38394165,0.5368347,1.1127777,0.57849383,-0.11896467,-0.26583862
1570726969,-2.8508148,2.5860443,9.623688,-0.33494568,0.23109436,1.200119,0.07485366,0.30579996,-0.10951519
1570726969,-2.9441986,3.2839508,9.147232,-0.2422638,0.20872498,0.8666992,-0.22039151,1.028584,-0.636549
1570726969,-2.6844177,3.0541077,9.362717,-0.06436157,0.50486755,0.7186279,0.21034503,0.8400049,-0.45211887
1570726969,-2.9142609,3.0373535,9.229843,-0.045181274,0.28755188,0.5684204,-0.023177385,0.7331548,-0.49839592
1570726969,-2.7227325,2.7835693,9.296875,-0.10910034,0.009521484,0.4853363,0.1903789,0.6052718,-0.21957207
1570726969,-2.761032,3.1403046,9.331589,-0.04624939,0.103271484,0.50450134,0.025161266,0.7849276,-0.33351135
1570726969,-2.6844177,3.0086212,9.718262,-0.19113159,0.058532715,0.5417938,0.18659282,0.6501508,-0.42126274
1570726969,-2.6772308,2.8110962,9.465668,-0.17941284,-0.37823486,0.6131592,0.08265567,0.48896098,-0.23510075
1570726969,-2.7071686,3.2276917,10.199493,-0.10270691,-0.58169556,0.641922,-0.030983686,0.7997823,0.6773071
1570726969,-2.5323944,2.8039246,9.661987,0.01234436,-0.6669159,0.5769501,-0.11302209,0.42135596,-0.16551208
1570726969,-1.4597931,2.742859,8.887466,0.114608765,-0.17582703,0.46722412,0.89097023,0.22004795,-0.81882954
1570726969,-1.950592,2.7919464,9.746979,0.20622253,0.31419373,0.4927826,0.22530007,0.31853747,-0.26955986
1570726969,-2.7514648,2.7009735,9.648819,0.3564148,0.4420166,0.2893219,-0.2533636,0.008599758,-0.16382122
1570726969,-2.7574463,2.8673706,9.056259,0.44802856,0.3397522,0.20516968,-0.4306631,0.06747866,-0.6701307
1570726969,-2.495285,2.699768,8.675583,0.38304138,0.04788208,0.14338684,-0.20536065,-0.2161572,-1.0767431
1570726969,-2.6090088,2.9786987,8.967667,0.28504944,-0.12043762,-0.017471313,-0.27860355,-0.16361737,-0.812685
1570726969,-2.37677,3.0146027,9.063446,0.4501648,0.13842773,-0.066467285,-0.04480982,-0.14933085,-0.545414
1570726969,-2.368393,3.225296,8.602554,0.49916077,0.28755188,-0.15914917,0.13754392,-0.09152508,-0.8861494
1570726969,-2.7562408,3.3402252,8.961685,0.39476013,0.30140686,-0.29656982,-0.047757864,-0.1619935,-0.52218056
1570726969,-3.0818634,3.9339752,8.998795,0.278656,0.14482117,-0.3455658,-0.35203624,0.4982853,-0.6027365
1570726969,-3.3452148,4.0740356,9.264557,0.24243164,0.023376465,-0.36688232,-0.50330544,0.50864244,-0.1652193
1570726969,-3.3943024,3.924408,9.497986,0.21047974,-0.20991516,-0.36795044,-0.59335303,0.40578008,0.048456192
1570726969,-3.1536865,4.0165863,9.774521,0.12738037,-0.38674927,-0.27845764,-0.6321418,0.35784745,0.5608597
1570726969,-2.4785156,4.22966,9.551865,0.040039062,-0.28981018,-0.25715637,-0.15900254,0.56663775,0.14350033
1570726969,-2.2714233,4.0489044,10.186325,0.01979065,-0.09700012,-0.037704468,-0.1884172,0.3862326,-0.42068958
1570726969,-2.546753,4.332611,8.509186,0.091171265,-0.5156555,0.21263123,-0.03429818,0.6781969,-1.0617723
1570726969,-2.519226,4.2739563,9.027527,0.14016724,-0.4634552,0.37986755,-0.2544067,0.7543938,-0.9707613
1570726969,-1.9206696,4.3816986,9.375885,0.34150696,-0.29833984,0.32766724,0.2163117,0.63596725,-0.0246706
1570726969,-1.3149414,4.913208,9.090973,0.3841095,-0.28341675,0.16255188,0.63746595,1.0142324,-0.42439556
1570726969,-1.7530823,4.497818,9.0802,0.40647888,-0.07463074,-0.030258179,0.45299196,0.44068193,-0.24703789
1570726970,-1.5890808,4.601959,9.679947,0.38731384,0.31098938,-0.0206604,0.33940887,0.36832,0.014832497
1570726970,-1.9182739,4.9395447,9.402222,0.4032898,0.30673218,-0.105895996,0.150985,0.56688595,0.115400314
1570726970,-2.3145142,4.932358,9.004776,0.32765198,0.24813843,-0.15489197,-0.109363556,0.64210796,-0.19856071
1570726970,-2.6604767,4.6869507,8.700714,0.22964478,0.023376465,-0.20921326,-0.35083294,0.2172184,-0.3656206
1570726970,-2.63414,5.0293274,8.676773,0.17958069,0.025497437,-0.20176697,-0.41288972,0.606019,-0.44457817
1570726970,-2.6329498,4.9946136,8.810852,0.27012634,0.081970215,-0.18577576,-0.33195806,0.5001135,-0.26818466
1570726970,-2.7191315,5.023346,8.731842,0.32658386,0.09794617,-0.1697998,-0.14039397,0.45895243,-0.37920094
1570726970,-2.7502594,5.103546,9.09816,0.33511353,0.0617218,-0.07392883,-0.6143396,0.38621378,-0.18306255
1570726970,-2.7322998,5.2543793,9.007172,0.3564148,-0.01071167,-0.062210083,-0.26197314,0.51451015,-0.020266533
1570726970,-2.5778809,5.1873474,8.948517,0.3340454,-0.09913635,-0.0440979,-0.13479805,0.5413232,0.12295723
1570726970,-2.5276031,5.2077026,8.871902,0.22538757,-0.066101074,0.032592773,0.24303198,0.23279095,0.11413002
1570726970,-2.2378998,5.4339447,8.729446,0.231781,0.02017212,0.08692932,0.035612106,0.51668596,0.04374504
1570726970,-2.349228,5.157425,8.656433,0.2040863,0.0574646,0.025146484,0.10491085,0.21035004,-0.119532585
1570726970,-2.251068,5.2388153,8.630096,0.13058472,0.02017212,0.05496216,0.21029043,0.03780842,-0.13335705
1570726970,-2.5730896,5.2077026,8.739029,0.027252197,0.0020751953,0.09118652,-0.15443087,0.10120678,-0.099401474
1570726970,-2.258255,5.11792,8.723465,0.1572113,0.054260254,0.09651184,0.1340661,0.0037145615,0.09115505
1570726970,-2.3312836,5.1634064,8.458908,0.14123535,0.065979004,0.09651184,0.19594216,-0.028747082,-0.23279762
1570726970,-2.3552246,5.2268524,8.5858,0.07624817,-6.1035156E-5,0.10183716,0.01670146,0.02032566,-0.14678574
1570726970,-2.3552246,5.0616455,8.451721,0.20622253,0.15119934,0.044311523,0.117860794,-0.23380709,-0.16625786
1570726970,-2.6987915,5.1681976,8.24942,0.29144287,0.16719055,0.027267456,-0.24220109,-0.16615248,-0.3610468
1570726970,-2.5024567,5.229248,7.845993,0.29463196,-0.03201294,0.07521057,-0.052013397,-0.2243762,-0.6240082
1570726970,-2.522812,5.5596466,7.8842926,0.26905823,-0.07463074,0.1359253,-0.07971239,-0.09896231,-0.77990913
1570726970,-2.1301575,6.012146,8.122513,0.13058472,-0.24507141,0.23179626,0.09348345,0.39396238,-0.57419586
1570726970,-2.1780548,5.7691345,7.916626,0.11354065,-0.2876892,0.36495972,0.008445263,0.33406496,-0.45222855
1570726970,-2.0176392,5.3657074,7.8914795,0.09329224,-0.22589111,0.36495972,0.07518983,-0.20562649,-0.5308838
1570726970,-2.0080566,5.830185,7.9956207,0.008071899,-0.22802734,0.30210876,-0.015977621,0.09783316,-0.4289589
