time,ax,ay,az,gx,gy,gz,la_x,la_y,la_z,fox,foy,foz
1570726743,-6.6445007,5.501877,5.260666,0.7162018,2.2891693,0.528183,0.074514866,-0.8508673,1.2898526
1570726743,-6.356003,5.8017426,3.9205017,0.81314087,2.859085,0.5132599,0.6002917,-0.6440029,1.0033398
1570726743,-7.2203064,5.956772,3.4290924,0.753479,2.840973,0.63256836,0.1625824,-0.91813946,1.1767678
1570726743,-7.2604218,6.874954,2.9622192,0.9814453,1.791687,0.33003235,-0.10896397,-0.006198883,0.9195452
1570726743,-9.307465,5.605423,5.7065735,0.11752319,2.4020844,0.1382904,-1.6742845,-0.81616783,4.021987
1570726743,-6.8085175,6.8372345,2.7694855,-0.56744385,1.8886261,0.17237854,0.13922739,-0.42904186,2.4322696
1570726743,-7.244858,6.8480225,1.083374,0.06851196,0.89686584,-0.23988342,0.09689903,0.4218545,-0.4330238
1570726743,-6.2716064,6.506241,3.6343994,0.06639099,0.72535706,-0.10032654,1.0931573,-0.26072598,2.9743218
1570726743,-5.632965,6.3177032,2.849701,0.511673,0.10217285,-0.22923279,1.8181729,-0.30048943,2.3617668
1570726743,-5.245102,5.4378357,-0.13407898,0.71299744,-0.391037,-0.06730652,2.1185951,-1.0634179,-0.49176472
1570726743,-5.0355988,4.0809174,0.052078247,0.70555115,-1.105835,0.29275513,2.4194288,-2.4809046,-0.26332474
1570726743,-5.556946,4.1886597,0.6087189,0.45521545,-1.5138245,1.4016876,1.6726918,-2.5666976,-0.13627034
1570726743,-5.7736206,6.657074,1.1905212,0.7215271,-1.4808044,1.6456451,0.97646284,-0.5584612,0.41681468
1570726743,-7.6141663,5.964554,2.1170654,0.5201874,-0.55189514,0.7614746,-0.7824683,-1.2997828,1.0962024
1570726743,-6.953964,5.1403503,0.86909485,0.3912964,0.64334106,-0.21963501,-0.5071473,-2.2142105,0.19871652
1570726743,-7.0748596,5.1128235,0.6889343,0.23362732,0.69447327,-0.37942505,-0.49188042,-2.0947704,0.20877117
1570726743,-7.866745,5.0972595,1.498169,-0.019897461,0.05104065,-0.3314972,-1.0261903,-1.9427056,0.48008272
1570726743,-9.007584,5.0984497,2.0213013,0.084503174,-0.5444336,-0.5115204,-2.0269885,-2.1162572,1.6206255
1570726743,-9.753983,6.04895,1.6370392,0.15267944,-0.6211395,-1.1357727,-2.8597212,-1.100728,1.0787485
1570726743,-9.331406,6.95755,-0.8487396,0.28475952,-0.03630066,-2.1754608,-2.852882,0.30608654,-0.57687503
1570726743,-0.39624023,6.282379,-3.39917,0.6480255,0.42921448,-1.3253784,4.9241924,0.11231375,-1.987375
1570726743,-2.4833832,5.4821167,1.6657715,0.041885376,-0.9130249,-0.3879547,6.7988963,-0.57301044,0.66322607
1570726743,-7.3220673,6.8731537,-0.07481384,-0.013504028,-0.3260498,0.048812866,0.8368902,1.2797766,-0.30237174
1570726743,-5.637741,7.600998,-0.22146606,-0.505661,1.4987488,0.49835205,1.4496908,1.448461,-0.42792213
1570726743,-5.6658783,5.3115387,-1.4454956,-1.093689,1.566925,1.4016876,1.779922,-0.7732005,-1.9107263
1570726743,-7.988846,3.7145996,1.9656372,-0.26811218,-0.5455017,2.2773438,0.21974802,-1.311892,3.038041
1570726743,-7.2280884,2.7425537,4.965576,0.04295349,-1.9367371,3.9434204,-0.19697714,-4.735833,1.5324225
1570726743,-2.8999786,1.2635345,1.7531586,1.3010254,-0.02671814,5.1929626,1.5999417,-6.8393707,3.8273032
1570726743,-4.775238,0.1149292,-0.3256073,0.96333313,-1.009964,6.0121613,-0.78412366,-7.372443,-4.265396
1570726743,-2.0536194,-0.5919647,-0.075424194,1.1071472,-0.039505005,7.4310913,-0.78839064,-9.475095,-0.30716
1570726743,3.4296875,1.9758148,-3.305191,0.5180664,0.5368042,6.566101,2.7308989,-7.8450365,-2.4378178
1570726743,-3.454834,12.2170105,-5.3893433,-0.8955536,-1.1750793,4.943695,-2.600882,0.22085857,-5.3182406
1570726744,19.612106,19.612701,8.06546,-1.923523,-6.950943,1.1811829,17.081427,10.801003,3.4212265
1570726744,4.993103,9.6510315,4.799179,0.44029236,-6.74321,-0.6564026,4.4176636,4.8052464,5.9547253
1570726744,7.2592163,6.0375824,0.549469,0.64482117,1.7330933,-1.3488159,5.8631635,-2.6060905,1.4743855
1570726744,7.2592163,6.0375824,0.549469,0.64482117,1.7330933,-1.3488159,5.8631635,-2.6060905,1.4743855
1570726744,2.7449493,7.78714,-3.8121643,-0.3565216,1.4955444,0.37477112,0.60818005,-1.4392977,-3.3258922
1570726744,2.7449493,7.78714,-3.8121643,-0.3565216,1.4955444,0.37477112,0.60818005,-1.4392977,-3.3258922
1570726744,2.3846283,9.410416,-1.6316528,-0.18927002,-1.6757507,0.561203,0.061588526,0.5093994,-0.9245348
1570726744,1.5304871,9.038116,1.1312561,-0.09979248,-0.660553,0.20965576,-0.666239,0.08885956,1.962892
1570726744,1.5304871,9.038116,1.1312561,-0.09979248,-0.660553,0.20965576,-0.666239,0.08885956,1.962892
1570726744,1.0630188,9.578003,0.92715454,0.33270264,0.054244995,0.050933838,-1.2252123,0.80061245,1.9775822
1570726744,1.7974396,8.486847,-0.061645508,0.76519775,0.59007263,-0.17596436,-0.5495026,-0.25949383,1.2129804
1570726744,1.9470825,8.444946,-0.07241821,0.7588043,0.62841797,-0.17063904,-0.5495026,-0.25949383,1.2129804
1570726744,2.300232,8.43837,-0.25437927,0.65867615,0.85105896,-0.10139465,-0.07387924,-0.31296444,1.1597495
1570726744,2.5713654,9.514557,-1.869873,0.22618103,-0.47946167,0.32577515,0.11575127,0.4897499,-0.6423334
1570726744,2.581543,9.62529,-1.6927032,0.22618103,-0.47946167,0.32577515,0.21719718,0.74359703,-0.35057497
1570726744,0.62368774,10.288483,2.3289642,0.1771698,-1.4136963,0.42271423,-1.3824117,1.6712027,3.6435087
1570726744,0.62368774,10.288483,2.3289642,0.1771698,-1.4136963,0.42271423,-1.3824117,1.6712027,3.6435087
1570726744,0.5231323,12.197266,-1.2078705,-2.066269,0.52508545,-0.13868713,-2.128334,3.5051708,-0.005651474
1570726744,0.6967163,11.987167,-1.2503662,-2.1046295,0.49845886,-0.16957092,-2.128334,3.5051708,-0.005651474
1570726744,4.5555725,7.9164276,0.5961609,-2.1951752,-0.31007385,0.21818542,1.8009431,-1.2519169,0.6689415
1570726744,4.7776337,8.012192,0.6087189,-2.2388458,-0.3921051,0.2874298,2.1080232,-1.0550385,0.62545824
1570726744,9.843155,10.339355,2.4869843,-3.0985107,-0.37506104,0.89889526,6.8792133,1.396842,1.6298424
1570726744,4.88118,11.869247,-2.8628693,-2.3656158,2.1751862,0.27996826,2.4407735,3.1465683,-5.651664
1570726744,4.88118,11.869247,-2.8628693,-2.3656158,2.1751862,0.27996826,2.4407735,3.1465683,-5.651664
1570726744,2.3762512,13.7738495,-1.2360077,-2.5637512,1.3773041,-0.1088562,0.13375306,4.1768427,-4.445387
1570726744,3.7098083,8.370132,5.1206055,-3.3211517,1.1770325,-0.94615173,1.0778505,0.6177921,-0.8838749
1570726744,3.7098083,8.370132,5.1206055,-3.3211517,1.1770325,-0.94615173,1.0778505,0.6177921,-0.8838749
1570726744,1.742981,7.7069397,0.5381012,-2.2345886,0.5048523,-1.5650635,1.543958,0.7511759,-4.3209434
1570726744,1.742981,7.7069397,0.5381012,-2.2345886,0.5048523,-1.5650635,1.543958,0.7511759,-4.3209434
1570726744,0.4339447,3.5673676,2.7826538,-2.6692047,-1.5638885,-1.0057983,-0.83160794,-2.383254,-4.423018
1570726744,0.4339447,3.5673676,2.7826538,-2.6692047,-1.5638885,-1.0057983,-0.83160794,-2.383254,-4.423018
1570726744,1.9387054,0.16101074,6.5391693,-1.0809021,-1.3135529,-0.43162537,0.67107034,-5.6867833,-0.6473379
1570726744,1.9387054,0.16101074,6.5391693,-1.0809021,-1.3135529,-0.43162537,0.67107034,-5.6867833,-0.6473379
1570726745,2.0249023,2.221222,7.74823,0.12710571,-0.49223328,-0.17915344,0.71551,-3.2435603,0.5502958
1570726745,2.0249023,2.221222,7.74823,0.12710571,-0.49223328,-0.17915344,0.71551,-3.2435603,0.5502958
1570726745,1.9650421,3.822342,8.152863,0.71406555,-0.06187439,-0.16531372,0.45960283,-2.0758305,0.9785371
1570726745,1.4879913,5.068527,8.362946,1.3564148,0.16609192,-0.13973999,0.05286467,-0.7350035,1.3565106
1570726745,1.4879913,5.068527,8.362946,1.3564148,0.16609192,-0.13973999,0.05286467,-0.7350035,1.3565106
1570726745,2.8149872,12.767685,7.8446045,0.83018494,-0.33244324,-0.10246277,0.9201008,8.986714,4.0491586
1570726745,2.8149872,12.767685,7.8446045,0.83018494,-0.33244324,-0.10246277,0.9201008,8.986714,4.0491586
1570726745,3.7205963,3.703827,8.213303,2.6752167,1.7373657,0.27464294,1.9315047,-3.5082583,1.861897
1570726745,3.7205963,3.703827,8.213303,2.6752167,1.7373657,0.27464294,1.9315047,-3.5082583,1.861897
1570726745,2.6623535,6.0256042,2.9281158,3.3719025,2.824997,0.34921265,2.1818452,-2.2383919,-1.9583073
1570726745,3.8792114,9.504379,-0.15322876,2.917038,2.3861084,0.8679962,3.2568798,1.1030979,-3.5977995
1570726745,3.8726196,9.590576,-0.64105225,2.8477936,2.3083496,0.91166687,3.2568798,1.1030979,-3.5977995
1570726745,0.72006226,7.8529816,0.58000183,1.6259308,0.27156067,1.2248535,1.136801,-0.8255539,-2.0480683
1570726745,1.6771393,6.700775,0.30166626,1.6131439,0.2545166,1.2940979,1.136801,-0.8255539,-2.0480683
1570726745,-6.020813,10.656586,6.902481,2.2384644,1.838562,2.1772003,-6.8945217,2.3781986,4.123803
1570726745,-6.020813,10.656586,6.902481,2.2384644,1.838562,2.1772003,-6.8945217,2.3781986,4.123803
1570726745,0.95648193,10.319611,-1.2509766,1.038971,-0.6722717,-0.105651855,-0.07988691,2.0141115,-3.214366
1570726745,2.94487,8.919006,1.7268219,0.27731323,-2.574829,0.21072388,0.62064815,-0.18728065,0.13103902
1570726745,2.94487,8.919006,1.7268219,0.27731323,-2.574829,0.21072388,0.62064815,-0.18728065,0.13103902
1570726745,1.2737122,10.051453,4.656128,1.0602722,-1.05896,-1.0366974,0.06923604,1.2888498,4.944153
1570726745,3.2303772,3.4680023,-0.3262024,1.4831848,2.0185852,-0.63508606,1.930749,-5.735689,0.6642075
1570726745,3.2196045,3.6194305,-0.71287537,1.4341888,1.9461517,-0.52430725,1.930749,-5.735689,0.6642075
1570726745,1.019928,9.666595,-0.8828583,0.97932434,-0.053344727,0.38755798,0.023615241,-0.0028076172,-1.749023
1570726745,-0.042495728,11.213837,0.5237274,0.47651672,0.27049255,0.5654602,-2.0488882,1.772337,1.4848913
1570726745,-0.042495728,11.213837,0.5237274,0.47651672,0.27049255,0.5654602,-2.0488882,1.772337,1.4848913
1570726745,3.3357239,14.106033,0.43574524,-0.40126038,0.14372253,0.23202515,1.2646965,4.5967836,1.4983511
1570726745,3.3357239,14.106033,0.43574524,-0.40126038,0.14372253,0.23202515,1.2646965,4.5967836,1.4983511
1570726745,6.2680206,11.752533,2.9514465,-1.4878387,-0.1960907,-0.051330566,4.35927,2.753953,2.89559
1570726745,6.2680206,11.752533,2.9514465,-1.4878387,-0.1960907,-0.051330566,4.35927,2.753953,2.89559
1570726745,5.0655365,9.845551,4.495117,-2.2644043,0.3642273,0.1926117,3.4028604,1.0857143,3.8010786
1570726745,5.5162354,11.450272,-0.19752502,-2.960022,2.1325684,0.69862366,3.7411103,2.676157,-2.359243
1570726745,5.5162354,11.450272,-0.19752502,-2.960022,2.1325684,0.69862366,3.7411103,2.676157,-2.359243
1570726745,3.8037872,10.9600525,1.6675568,-2.226059,1.5946198,0.2544098,2.0981266,2.5590296,-1.5904555
1570726746,2.9095612,10.00238,0.48901367,-2.036438,1.8769073,-0.18235779,0.61910224,1.9268541,-4.18581
1570726746,1.8890228,8.935165,0.8666992,-1.9118042,1.727768,-0.48275757,0.47677636,0.6076431,-2.9355655
1570726746,0.7984619,8.652054,3.2591095,-2.243103,0.6358795,-0.8087311,-0.81180084,1.2391052,-3.1536121
1570726746,1.4790192,7.4016724,3.1771088,-1.8638763,0.5336151,-1.1165924,0.32996178,0.23391247,-1.5553584
1570726746,2.0584106,5.162491,0.19992065,-1.7669373,-0.52526855,-1.4287109,1.2620621,-1.9985242,-5.5813193
1570726746,1.2318115,2.7515411,0.9181824,-1.9618835,-1.0493774,-1.2934265,0.60994506,-4.0607185,-5.227553
1570726746,2.309204,0.98101807,5.1882324,-1.0659943,-1.5553741,-0.5594635,0.8326204,-5.2815123,-1.876852
1570726746,2.7766724,1.115097,5.395935,-0.97117615,-1.5095673,-0.5498657,1.2539442,-5.2304015,-1.6384969
1570726746,3.4255066,0.7362213,6.456558,0.1494751,-1.1313934,-0.5818329,2.5340347,-5.2277784,-0.7853036
1570726746,1.8112183,-1.1085205,10.47403,1.7111511,-0.6243286,-0.26971436,0.71565163,-7.100543,3.1173453
1570726746,5.8837433,10.89122,15.018829,1.8496399,1.631897,0.056259155,5.4171453,1.9153123,6.388439
1570726746,6.340439,15.18103,4.589691,2.6549835,1.6766357,0.9638672,4.083618,7.760088,-1.3885374
1570726746,6.340439,15.18103,4.589691,2.6549835,1.6766357,0.9638672,4.083618,7.760088,-1.3885374
1570726746,2.2038574,5.029022,3.664917,2.7796173,1.9322968,1.1161957,1.3465669,-3.6501722,-0.04298687
1570726746,2.2038574,5.029022,3.664917,2.7796173,1.9322968,1.1161957,1.3465669,-3.6501722,-0.04298687
1570726746,2.3175812,6.712738,1.5442657,3.0917358,2.1027527,1.4965057,1.2754768,-1.8826866,-1.7828097
1570726746,2.1876984,9.718658,-2.5725708,2.6869354,1.7714539,1.8906555,0.6097605,0.6165905,-5.36757
1570726746,-0.113723755,12.802399,1.5580292,0.66400146,-1.3678894,0.816864,-1.4854145,4.4920034,-1.5492942
1570726746,-1.7561493,7.9960327,1.3090363,0.71406555,-1.6256866,0.5313721,-4.0932665,-0.47110367,-0.35910952
1570726746,-1.7561493,7.9960327,1.3090363,0.71406555,-1.6256866,0.5313721,-4.0932665,-0.47110367,-0.35910952
1570726746,0.7954712,7.920624,1.8423309,0.51486206,-1.9015808,0.3662567,-2.0917146,-0.8645525,0.13887525
1570726746,1.624466,11.066605,6.589447,0.7353668,-0.8182068,-0.88116455,-0.2823007,1.9865723,4.180443
1570726746,1.624466,11.066605,6.589447,0.7353668,-0.8182068,-0.88116455,-0.2823007,1.9865723,4.180443
1570726746,4.201828,8.049301,3.217804,2.1670837,1.3527985,-1.5810547,-1.150707,-1.8414087,1.1389799
1570726746,4.201828,8.049301,3.217804,2.1670837,1.3527985,-1.5810547,-1.150707,-1.8414087,1.1389799
1570726746,4.3424835,4.276642,-1.1180878,0.84935,1.329361,-0.39007568,3.4208388,-4.8374786,-0.19834752
1570726746,-0.41479492,9.1458435,2.5821533,0.4328308,-0.38145447,0.40885925,-1.8923244,-0.3178711,2.6083987
1570726746,-0.47705078,9.303268,2.554016,0.40408325,-0.28237915,0.4152527,-1.9643769,-0.019779205,2.977323
1570726746,0.14065552,10.457275,1.6669617,0.16012573,0.4814148,0.4365692,-2.0183969,0.91126347,2.6200576
1570726746,3.02388,10.835556,-1.0253143,0.29542542,0.063827515,0.35986328,1.192457,1.7994642,-0.30632585
1570726746,2.4373016,16.72171,0.07182312,-0.22869873,-1.0855865,0.30873108,0.16222906,7.1614656,0.25658977
1570726746,2.4373016,16.72171,0.07182312,-0.22869873,-1.0855865,0.30873108,0.16222906,7.1614656,0.25658977
1570726746,2.6701355,13.332718,1.3485413,-1.032959,-0.66799927,-0.1131134,0.90028083,5.049711,2.269765
1570726747,2.774887,8.511978,3.8349152,-2.0545502,-1.537262,0.5899658,0.71054673,-0.8527975,2.5502563
1570726747,2.774887,8.511978,3.8349152,-2.0545502,-1.537262,0.5899658,0.71054673,-0.8527975,2.5502563
1570726747,4.9715576,11.497559,8.4617,-2.8013,1.0321503,0.912735,2.030208,1.9912939,7.648958
1570726747,3.265091,10.004776,-0.98461914,-2.1120758,2.1805115,-0.22070312,1.4325552,1.6387768,-3.605331
1570726747,3.265091,10.004776,-0.98461914,-2.1120758,2.1805115,-0.22070312,1.4325552,1.6387768,-3.605331
1570726747,-0.30047607,10.210068,1.7633362,-1.0180511,1.1301575,-0.8321686,-1.7090449,0.88304234,-1.400322
1570726747,-1.2533722,11.154587,0.1550293,-1.5975494,1.3911438,-1.3232574,-3.054039,2.4398003,-2.8409688
1570726747,1.5496521,8.244431,2.285263,-2.5190125,-0.6658783,-1.5714569,1.1261919,0.4636135,-1.1538725
1570726747,1.5496521,8.244431,2.285263,-2.5190125,-0.6658783,-1.5714569,1.1261919,0.4636135,-1.1538725
1570726747,3.2585144,5.3139343,0.9510956,-2.2995605,-0.8650818,-1.6225891,2.8179457,-2.1574879,-3.810875
1570726747,3.2597046,5.3271027,0.6314697,-2.2857208,-0.916214,-1.6321869,2.8179457,-2.1574879,-3.810875
1570726747,0.95947266,1.6364441,2.513916,-2.1120758,-2.142334,-1.1304474,0.79627323,-5.0314407,-5.6238856
1570726747,0.6649933,1.351532,3.9636078,-2.0087433,-2.1551208,-1.0739746,0.650417,-5.016892,-4.3042073
1570726747,1.3551178,0.030532837,9.048889,1.1806488,-0.96520996,-0.29953003,0.73615944,-6.0008636,2.4577594
1570726747,1.3551178,0.030532837,9.048889,1.1806488,-0.96520996,-0.29953003,0.73615944,-6.0008636,2.4577594
1570726747,5.7580566,5.8244934,7.984665,2.392929,1.1386871,0.35879517,3.7912388,-2.8473382,2.2503276
1570726747,2.0727844,14.874573,9.373901,2.3907928,0.52615356,0.4823761,2.416669,6.036249,8.028189
1570726747,6.0573273,11.697464,1.7770996,2.4046478,2.4819794,1.2909088,4.6106,4.531912,-2.8230286
1570726747,6.0573273,11.697464,1.7770996,2.4046478,2.4819794,1.2909088,5.0771465,3.9593883,-3.010295
1570726747,2.8874054,5.771225,4.1132355,2.278946,1.4539948,1.1566772,2.4352386,-2.1603136,-0.22099257
1570726747,2.5384521,9.214691,-1.5430603,2.7625732,1.379425,1.6829224,0.93439937,-0.02417183,-3.7680452
1570726747,2.5384521,9.214691,-1.5430603,2.7625732,1.379425,1.6829224,0.93439937,-0.02417183,-3.7680452
1570726747,-0.06285095,11.271896,0.8253937,0.8610687,-1.872818,0.9745178,-2.3230531,2.7361364,-1.191143
1570726747,-0.06285095,11.271896,0.8253937,0.8610687,-1.872818,0.9745178,-2.3230531,2.7361364,-1.191143
1570726747,0.6398468,7.479492,1.4796143,0.56599426,-1.7737579,0.38223267,-2.5211875,-1.4092817,-0.0019179583
1570726747,0.6398468,7.479492,1.4796143,0.56599426,-1.7737579,0.38223267,-2.5211875,-1.4092817,-0.0019179583
1570726747,1.8602905,10.779892,3.8049927,0.3731842,-2.143402,-0.36665344,-1.0227973,1.5401287,1.9183722
1570726747,1.8602905,10.779892,3.8049927,0.3731842,-2.143402,-0.36665344,-1.0227973,1.5401287,1.9183722
1570726747,-0.92774963,7.9397736,4.079727,1.8538971,1.5637207,-1.8217926,-2.8094451,0.4460621,4.9674253
1570726747,6.974304,5.657501,-2.442093,1.7452393,1.6904907,-1.0196533,5.210651,-3.076994,-2.112207
1570726747,7.03656,5.466568,-2.2984314,1.595047,1.5072632,-0.8609314,5.210651,-3.076994,-2.112207
1570726747,0.27233887,9.86232,1.3443451,0.51486206,-0.8895874,0.643219,-0.706812,0.5565529,1.7590445
1570726747,-0.0095825195,9.9006195,1.4598694,0.5169983,-0.8661499,0.6165924,-1.3761973,0.79831123,2.0312946
1570726747,0.13108826,10.956467,2.1260529,0.14201355,-0.11407471,0.6176605,-2.5222163,1.2321329,3.131951
1570726748,1.4167633,13.512878,0.533905,-0.049728394,0.14160156,0.2863617,-0.83832765,3.830492,2.0562224
1570726748,2.4127502,14.714172,-0.2813263,-0.46943665,-0.16520691,0.19155884,-0.15050292,5.589463,0.47636306
1570726748,2.9340973,13.155533,1.6160889,-1.2119293,-0.5305939,-0.09074402,0.66645646,4.352436,1.7286499
1570726748,3.5942993,11.222824,2.5863342,-1.6167297,0.0393219,-0.32403564,1.5693135,2.59093,2.8552675
1570726748,4.4645844,10.237015,2.857483,-2.559494,0.4398651,0.2362976,2.4705958,1.0996284,1.9470966
1570726748,4.5076904,10.237015,2.857483,-2.559494,0.4398651,0.2362976,2.4705958,1.0996284,1.9470966
1570726748,3.7601013,10.630859,-1.1635895,-2.2207336,1.791687,-0.12057495,2.6332073,2.3682613,-2.6365144
1570726748,2.9975433,10.238205,-3.0388336,-2.2377777,1.6542664,-0.115249634,1.944269,1.884512,-3.2379632
1570726748,0.6069336,10.541077,-0.41059875,-1.8223267,1.1024628,-0.8673248,-1.6716757,2.5812435,-3.86583
1570726748,0.6069336,10.541077,-0.41059875,-1.8223267,1.1024628,-0.8673248,-1.6716757,2.5812435,-3.86583
1570726748,2.284668,7.245453,2.502533,-2.4273987,0.010574341,-1.4404297,1.862201,-0.22198486,-1.9726176
1570726748,2.284668,7.245453,2.502533,-2.4273987,0.010574341,-1.4404297,1.862201,-0.22198486,-1.9726176
1570726748,1.3425446,5.483322,2.1853027,-2.2026215,-0.42086792,-1.5661316,0.5725869,-1.9788108,-3.3902369
1570726748,1.5191193,3.4494476,0.18136597,-1.874527,-0.87680054,-1.555481,1.3075337,-3.51652,-4.556093
1570726748,1.028305,0.38606262,4.72316,-1.4068756,-1.8493805,-0.7533417,0.5165837,-6.182311,-2.4985628
1570726748,1.028305,0.38606262,4.72316,-1.4068756,-1.8493805,-0.7533417,0.5165837,-6.182311,-2.4985628
1570726748,1.7172394,0.31124878,5.961563,-0.102996826,-1.3050385,-0.42311096,0.97332203,-6.092795,-0.49787474
1570726748,1.8106079,-0.517746,9.15123,1.3958435,-0.63072205,-0.072631836,1.002019,-6.8658543,2.2398105
1570726748,2.6940765,1.486206,10.687714,2.0168915,0.47395325,0.34388733,1.3644612,-6.040519,4.1990576
1570726748,2.2912445,14.004288,4.7638702,3.0193024,0.54745483,0.8115387,0.63484466,5.7785535,-0.3397317
1570726748,2.4534607,14.451401,5.233719,3.0342102,0.6635742,0.8530884,0.63484466,5.7785535,-0.3397317
1570726748,1.9590607,5.163101,3.8408966,2.2267456,1.5147247,0.90740967,1.765476,-2.4871597,-0.36627674
1570726748,1.9590607,5.163101,3.8408966,2.2267456,1.5147247,0.90740967,1.765476,-2.4871597,-0.36627674
1570726748,1.0630188,5.1535187,2.1954803,2.5772095,1.6010132,1.2685394,0.3421427,-3.5227013,-0.89461064
1570726748,2.8951874,8.24324,0.40940857,2.77536,1.8747864,1.7723999,1.3484331,-1.1018639,-1.7599516
1570726748,0.9295502,12.66951,-1.2545624,0.8280487,-0.76174927,0.8019562,-0.6462444,3.8859177,-3.9326365
1570726748,0.5404968,12.4618225,-0.25976562,0.7769165,-1.0823975,0.8413696,-0.8473749,3.8035555,-3.1928833
1570726748,0.0287323,10.332184,2.6515808,0.8759918,-1.6427307,0.6730499,-1.8384337,2.2094297,0.4386407
1570726748,-1.3634949,7.0826416,2.1793213,0.8685303,-1.1867828,0.4898224,-3.5691032,-1.6466036,0.9048755
1570726748,1.043869,7.419037,0.80085754,0.6469574,-1.3827972,0.37797546,-1.2923553,-1.4672642,-0.060871243
1570726748,0.7176666,9.323624,2.7102356,0.13563538,-2.3223572,-0.051330566,-2.1257448,0.10694504,1.2103798
1570726748,0.7176666,9.323624,2.7102356,0.13563538,-2.3223572,-0.051330566,-2.1257448,0.10694504,1.2103798
1570726749,3.0585938,7.119751,3.988144,2.6603088,3.9467163,-1.9933014,0.09367299,-1.3048391,5.198311
1570726749,4.008499,7.119751,3.988144,2.6603088,3.9467163,-1.9933014,0.09367299,-1.3048391,5.198311
1570726749,2.9646149,7.589615,-1.0893555,0.29222107,-0.28877258,0.6645355,1.9356974,-2.6148186,-0.87717414
1570726749,2.850296,8.1809845,-0.6380615,0.26559448,-0.40594482,0.70713806,1.9356974,-2.6148186,-0.87717414
1570726749,-1.36409,9.014175,0.5698242,0.48077393,0.14585876,0.37583923,-3.2160268,-0.37548256,1.8425822
1570726749,-1.36409,9.014175,0.5698242,0.48077393,0.14585876,0.37583923,-3.2160268,-0.37548256,1.8425822
1570726749,1.8632812,11.066605,-0.33818054,0.13456726,0.1053772,0.3374939,0.1756258,1.8917379,0.7316972
1570726749,1.486206,14.543579,-1.3946228,-0.1754303,-0.7191467,0.27890015,-0.06607139,4.9989405,-0.31124663
1570726749,1.486206,14.543579,-1.3946228,-0.1754303,-0.7191467,0.27890015,-0.06607139,4.9989405,-0.31124663
1570726749,1.8704681,14.0312195,1.0013733,-1.0990143,-0.69143677,0.015777588,0.46717465,5.7251444,2.3109949
1570726749,2.5959167,10.502762,0.6380615,-1.3930206,-0.867218,-0.119506836,1.2117106,1.9344177,1.1237338
1570726749,2.434311,9.90242,0.5087738,-1.5528107,-0.8938446,-0.049194336,0.8712733,1.0034094,0.8755869
1570726749,4.5998535,11.501144,5.119995,-2.8087616,0.37701416,0.7710571,2.1291459,1.7719412,3.8133528
1570726749,4.5998535,11.501144,5.119995,-2.8087616,0.37701416,0.7710571,2.1291459,1.7719412,3.8133528
1570726749,4.521454,11.743561,2.4690247,-2.2452393,2.1773071,-0.13441467,3.0556865,3.602847,0.8448558
1570726749,4.194046,10.195114,0.024536133,-2.1184692,2.6087494,-0.19833374,2.922738,1.8788548,-1.490933
1570726749,-1.7339935,10.658386,1.241394,-2.4540253,-0.15774536,-0.9163208,-3.2072382,2.7005787,-4.6267886
1570726749,-1.7339935,10.658386,1.241394,-2.4540253,-0.15774536,-0.9163208,-3.2072382,2.7005787,-4.6267886
1570726749,-0.52433777,7.546524,1.3162079,-2.9845276,0.047851562,-0.90460205,-1.836878,-0.16349506,-2.4380713
1570726749,1.5556335,6.625351,3.826538,-2.76828,-0.109802246,-0.8918152,0.113833725,-1.4047136,-2.2957015
1570726749,1.91716,4.3412933,0.09996033,-2.1738586,-1.425415,-1.5629425,1.6567072,-2.2763238,-5.9968753
1570726749,1.91716,4.3412933,0.09996033,-2.1738586,-1.425415,-1.5629425,1.6567072,-2.2763238,-5.9968753
1570726749,0.6566162,-1.0402832,6.206375,-1.4633331,-2.1508484,-0.73309326,-0.24138957,-7.3547535,-0.8262453
1570726749,0.6566162,-1.0402832,6.206375,-1.4633331,-2.1508484,-0.73309326,-0.1829747,-7.3138275,-0.4375739
1570726749,3.1453857,1.6094971,9.628281,0.7438965,-0.8171387,-0.18447876,1.7400521,-4.9248047,2.7765956
1570726749,3.1453857,1.6094971,9.628281,0.7438965,-0.8171387,-0.18447876,1.7400521,-4.9248047,2.7765956
1570726749,5.503067,5.6892242,7.328644,1.6174164,0.1522522,0.06478882,3.7878113,-1.4346533,1.1218386
1570726749,3.091507,13.736725,10.89003,1.2605438,0.7647705,0.08395386,2.2025452,6.201826,5.2282214
1570726749,4.1455536,8.616135,5.5946503,1.674942,0.60072327,0.97772217,2.9273596,2.5764217,-2.2268505
1570726749,4.855438,5.714966,6.3583984,2.3108978,1.5264435,1.1907654,3.521573,-1.4157653,1.4410486
1570726749,4.898529,5.861603,5.898117,2.5761566,2.0185852,1.2163391,3.2092285,-1.9544439,0.8977771
1570726749,3.2776642,8.996216,1.6430206,2.8424683,2.2731934,1.2994232,1.9388222,0.6581507,-2.1799688
1570726749,2.5228882,10.89003,-0.2454071,2.5154266,1.711792,1.391037,0.96621346,2.3667984,-4.497863
1570726749,2.937683,12.7586975,-5.510254,1.977478,0.20870972,1.2770538,0.5743604,2.974493,-6.7439475
1570726750,-1.7537537,10.390244,-0.1197052,0.7588043,-2.1572418,0.95428467,-4.3352757,1.7484312,-2.8421185
1570726750,-1.7537537,10.390244,-0.1197052,0.7588043,-2.1572418,0.95428467,-4.3352757,1.7484312,-2.8421185
1570726750,-0.7116699,10.45668,0.42138672,0.71299744,-2.9253082,0.9638672,-3.5738747,1.8490486,-1.9878144
1570726750,0.3327942,10.357315,1.1366425,0.74282837,-3.47818,0.5430908,-3.4687102,1.8834991,-0.5803002
1570726750,2.897583,8.397659,4.6854553,0.41792297,-2.129547,-0.73202515,-0.040176153,-0.07908344,3.49898
1570726750,3.1657257,8.45752,5.5479584,0.45947266,-1.7545776,-0.8747711,-0.32396674,-0.24655724,4.0770235
1570726750,6.7702026,6.5708923,-1.8405457,2.5463257,1.9717255,-1.9975739,3.2169733,-1.5029793,-1.1143609
1570726750,6.748657,6.0615234,-2.7802734,2.3673553,1.868393,-1.986908,4.4765954,-2.1858845,-1.6588216
1570726750,4.4256744,2.763504,0.20350647,0.63523865,0.5144348,-0.27290344,2.7940493,-6.396619,0.17915228
1570726750,3.407547,9.239822,0.40821838,0.4786377,-0.3132782,0.60913086,2.0717049,-0.35852432,0.14287266
1570726750,0.30825806,9.065048,0.6033325,0.8429718,0.37382507,0.44189453,-2.313879,-0.29137135,1.9859585
1570726750,1.320404,10.210678,-1.395813,0.5244446,0.52082825,0.45254517,-1.0767195,1.121172,-0.4408366
1570726750,1.5532379,11.115082,-1.6591797,0.36360168,0.23747253,0.4951477,-0.806582,1.9895945,-0.70263934
1570726750,1.1109161,13.487732,-0.9235687,0.39022827,-1.0163422,0.47384644,-0.78587484,4.359806,-0.5557103
1570726750,1.6699524,14.246704,2.6186523,-0.16584778,-1.2411194,0.5888977,-1.133589,5.5029078,3.7041452
1570726750,2.542038,15.03978,-0.45310974,-1.6614685,-1.0706787,0.5825043,-0.10172653,6.211191,0.6183606
1570726750,2.605484,10.3585205,-0.17477417,-2.4369812,-1.6118317,0.40673828,-0.17627358,1.9203386,0.34717116
1570726750,2.4402924,9.422379,-0.108932495,-2.6862488,-2.002777,0.37371826,-0.29698467,0.91320705,-0.41760546
1570726750,1.9865875,10.059235,6.2279205,-3.0303345,-1.6991882,0.5430908,-1.032923,0.8461094,4.654141
1570726750,4.0216675,13.496109,7.642288,-2.2921143,2.0686646,0.43762207,0.5677247,3.9892912,8.083723
1570726750,1.161789,9.88327,-5.0888824,-1.5837097,1.5924835,-0.29208374,-0.8648758,2.0283117,-5.349567
1570726750,-0.43574524,7.171829,-5.597046,-1.6881104,-0.44856262,-0.41778564,-3.011037,-0.8430939,-8.253328
1570726750,0.9313507,6.4685364,0.5422821,-0.8785095,-0.30688477,-0.7661133,-1.8960679,-2.584962,-2.4173532
1570726750,0.9313507,6.4685364,0.5422821,-0.8785095,-0.30688477,-0.7661133,-1.8960679,-2.584962,-2.4173532
1570726750,2.52948,4.9877167,0.502182,-2.066269,-2.0571136,-1.0867615,-0.14413643,-2.9426174,-3.476874
1570726750,2.52948,4.9877167,0.502182,-2.066269,-2.0571136,-1.0867615,-0.14413643,-2.9426174,-3.476874
1570726750,1.4215546,2.7144318,0.4620819,-0.6079254,-1.4243469,-0.84495544,-0.72601914,-5.2477612,-2.9164174
1570726750,1.4215546,2.7144318,0.4620819,-0.6079254,-1.4243469,-0.84495544,-0.72601914,-5.2477612,-2.9164174
1570726750,3.9821625,3.8576508,2.4241333,0.4147339,-1.9633636,-0.0811615,1.1314709,-4.2759743,-1.6676352
1570726750,3.9821625,3.8576508,2.4241333,0.4147339,-1.9633636,-0.0811615,1.1314709,-4.2759743,-1.6676352
1570726750,4.2084045,4.794388,5.47554,1.0016937,-1.5820007,-0.08328247,1.639559,-3.6356926,1.1711473
1570726750,3.2716827,10.193314,10.150223,1.5066223,-2.190277,0.11911011,0.9823861,0.21396065,6.39996
1570726750,3.26091,10.034103,4.225174,-0.4033966,-0.916214,-0.21005249,-0.37653708,2.5370703,1.8915658
1570726750,3.26091,10.034103,4.225174,-0.4033966,-0.916214,-0.21005249,-0.37653708,2.5370703,1.8915658
1570726751,5.610214,8.477875,5.661682,-0.44281006,-0.7478943,-0.22602844,1.8720698,0.078510284,3.0876098
1570726751,6.0633087,8.386887,5.213379,0.16651917,0.24491882,0.47703552,2.4271488,-0.07262325,2.4049866
1570726751,2.9658203,6.0657043,-3.719986,0.039749146,0.8159027,0.15000916,1.1404088,-3.0687237,-5.6835585
1570726751,2.9658203,6.0657043,-3.719986,0.039749146,0.8159027,0.15000916,1.1404088,-3.0687237,-5.6835585
1570726751,1.0654144,8.707108,-5.3157196,-1.2161865,0.4302826,0.049865723,-1.928021,0.7638464,-8.535976
1570726751,0.05986023,10.290283,-1.7202301,-1.5538788,-0.10235596,0.36839294,-3.283453,2.0305758,-5.359729
1570726751,0.55366516,10.93013,1.5310974,-0.53974915,-1.8696289,0.061584473,-2.7233171,3.2825289,-2.9288564
1570726751,0.70329285,8.344986,3.1567535,1.4778595,-3.7476807,-0.5573273,-3.157265,0.6594672,0.5428498
1570726751,1.9141693,9.876083,3.9480438,2.6198273,-2.6792297,-1.223114,-1.5375259,1.4874125,3.1543229
1570726751,1.9141693,9.876083,3.9480438,2.6198273,-2.6792297,-1.223114,-1.5375259,1.4874125,3.1543229
1570726751,2.8634644,7.151474,1.035492,1.3596191,0.48780823,-0.47529602,-0.5609083,-1.0566664,1.9426394
1570726751,2.8634644,7.151474,1.035492,1.3596191,0.48780823,-0.47529602,-0.5609083,-1.0566664,1.9426394
1570726751,1.2366028,7.7733765,-0.77212524,0.26878357,-1.0152893,-0.05558777,-0.9617367,-1.7105169,-0.27387
1570726751,1.490982,8.080429,0.11192322,0.06425476,0.485672,-0.11097717,-1.2836761,-0.5676737,0.8896498
1570726751,1.4173737,8.076248,0.15621948,0.06425476,0.59432983,-0.1408081,-1.4339898,-0.5578184,0.8835558
1570726751,0.42437744,9.834183,-2.3463135,0.107925415,-0.023529053,0.0317688,-2.374504,2.0987463,-1.4084327
1570726751,1.0582428,10.949875,-2.3361359,0.09194946,-0.17160034,0.039215088,-2.8416631,1.4947376,-1.4974754
1570726751,0.9894104,11.832748,-0.33877563,0.44561768,-2.4512634,-0.0055236816,-2.1362236,2.3647614,0.43997473
1570726751,1.4101868,9.867111,1.7729034,0.97932434,-3.6891022,-0.031082153,-1.1933663,1.5691643,3.3738284
1570726751,1.4101868,9.867111,1.7729034,0.97932434,-3.6891022,-0.031082153,-1.1933663,1.5691643,3.3738284
1570726751,-0.4513092,12.595291,1.0779877,-2.179184,0.16822815,0.6858368,-3.0199168,3.1408987,3.5782344
1570726751,-1.7369995,10.936707,0.8349762,-4.086014,-1.8504486,0.5388336,-4.488784,2.8279476,1.1323919
1570726751,-1.7369995,10.936707,0.8349762,-4.086014,-1.8504486,0.5388336,-4.488784,2.8279476,1.1323919
1570726751,-1.7549438,10.134064,0.8523407,-4.054062,-2.9828339,0.4397583,-5.2099648,1.1005011,0.17454459
1570726751,0.28431702,14.581284,-3.0939026,-3.7834778,0.22787476,0.35346985,-2.8338437,5.616534,-3.2440329
1570726751,0.5231323,14.525024,-3.7092133,-3.083603,-0.5316467,-0.19087219,-2.4501576,5.7522573,-6.575428
1570726751,-4.680664,15.275604,1.4742279,-0.94029236,-1.1921234,-1.9815826,-6.245137,7.009285,-1.038023
1570726751,-0.23522949,12.721588,-6.767212,-1.8138123,-2.4501953,-2.670807,-2.7111158,4.4282293,-11.0825405
1570726751,-0.23522949,12.721588,-6.767212,-1.8138123,-2.4501953,-2.670807,-2.7111158,4.4282293,-11.0825405
1570726751,1.7280121,8.696335,-3.138794,-2.944046,-4.8864594,-2.2052917,0.2941813,0.33106422,-7.6338654
1570726751,4.2167816,8.524551,0.79248047,-2.864151,-4.8598175,-2.191452,2.9383397,0.09850788,-3.2940674
1570726751,5.0344086,9.411606,2.7228088,-2.7427216,-3.6613922,-2.384262,3.8017776,1.2711649,-2.0884
1570726751,4.526245,8.454529,3.2902374,-2.5104828,-3.4845734,-2.39917,3.8567033,0.8876605,-2.2253246
1570726752,2.0440521,5.692215,4.5094757,-2.1823883,-3.368454,-2.4375153,1.507454,-1.4179969,-1.3070178
1570726752,1.6232758,3.4225159,6.0375824,-1.6763916,-2.8944092,-2.3288574,0.61071366,-3.4607697,0.21468163
1570726752,-1.0983429,1.398819,6.551132,-0.63775635,-2.2935944,-2.001831,-1.006522,-5.995324,1.2351155
1570726752,-2.237976,2.2792816,9.800659,0.8642731,-1.9122314,-1.2295074,-3.1965952,-4.3308268,3.7382112
1570726752,-2.237976,2.2792816,9.800659,0.8642731,-1.9122314,-1.2295074,-3.1965952,-4.3308268,3.7382112
1570726752,1.0917511,0.087387085,7.0299683,1.7942505,-0.67866516,-0.8833008,-0.45545965,-6.6085086,2.2934785
1570726752,6.475113,5.3187256,8.119934,2.8925323,1.3027344,-0.5370941,5.237595,-3.6888099,3.356544
1570726752,2.9322968,10.945694,-3.8714294,2.52182,2.8558807,0.67411804,2.881204,5.3802624,-7.878173
1570726752,2.9322968,10.945694,-3.8714294,2.52182,2.8558807,0.67411804,2.881204,5.3802624,-7.878173
1570726752,1.0133514,5.286392,1.2940674,1.8027649,1.664917,0.7273865,0.7476945,-3.014104,-1.7096939
1570726752,2.3941956,6.7815704,-2.3068085,1.899704,-0.053344727,1.9833221,1.4673886,-2.7209044,-3.8409588
1570726752,2.3941956,6.7815704,-2.3068085,1.899704,-0.053344727,1.9833221,1.4539523,-2.2147322,-4.133555
1570726752,2.0500336,18.671783,-3.3662415,0.16758728,-3.0573883,1.4560242,3.201963,10.079279,-8.617126
1570726752,-3.624817,13.344681,6.162674,0.28050232,-3.9160004,1.3196716,-5.1433525,6.2361774,4.2178617
1570726752,-1.1749573,7.6273346,0.9008179,-0.04547119,-3.9458313,0.17984009,-3.4404411,-1.038641,0.1954233
1570726752,-1.1749573,7.6273346,0.9008179,-0.04547119,-3.9458313,0.17984009,-3.4404411,-1.038641,0.1954233
1570726752,-1.5688019,7.593216,1.5753784,1.9678802,0.13946533,-1.6375122,-3.23985,-0.70429516,1.8308082
1570726752,-1.6077118,7.2753754,1.5634155,2.0637512,0.009506226,-1.635376,-3.23985,-0.70429516,1.8308082
1570726752,1.8309631,8.935165,4.596863,2.518631,-0.03630066,-1.6076813,-3.0784883,-0.75702286,3.1678464
1570726752,2.403183,7.53096,-0.39085388,0.6288452,0.1138916,0.58036804,1.2389296,-1.9364586,1.1717533
1570726752,2.0254974,7.794922,-0.5859833,0.6235199,0.042526245,0.6059418,1.2389296,-1.9364586,1.1717533
1570726752,-0.9139862,10.072403,-0.43215942,0.53404236,-0.70848083,0.6112671,-2.3854365,0.93158054,0.99243605
1570726752,0.20051575,12.4696045,-0.3549347,-0.14985657,-0.71487427,0.5196533,-1.8852042,3.1629715,1.3298606
1570726752,0.20709229,12.5121,-0.3244171,-0.17329407,-0.7415161,0.48130798,-1.7298954,3.5509129,1.270699
1570726752,3.660736,14.8619995,2.6342163,-1.6018219,-1.7662964,-0.2579956,1.7609135,6.8117104,3.7482252
1570726752,3.660736,14.8619995,2.6342163,-1.6018219,-1.7662964,-0.2579956,1.7609135,6.8117104,3.7482252
1570726752,5.149933,10.430939,3.43927,-2.5999756,-0.7500305,0.49728394,3.708963,1.563981,3.1602101
1570726752,5.149933,10.430939,3.43927,-2.5999756,-0.7500305,0.49728394,3.708963,1.563981,3.1602101
1570726752,7.466919,11.36647,11.397598,-3.2210236,1.789566,0.5867615,5.05311,1.7174377,10.184655
1570726752,1.395813,12.466614,-3.1130676,-1.9448395,1.346405,-0.5956726,0.26741993,3.8601103,-4.3224344
1570726752,0.802063,12.466614,-3.1130676,-1.9448395,1.346405,-0.5956726,0.26741993,3.8601103,-4.3224344
1570726752,-1.2689209,9.040512,-2.45047,-2.3112793,0.28753662,-1.4883728,-3.197703,0.5559349,-5.091891
1570726752,-1.2689209,9.040512,-2.45047,-2.3112793,0.28753662,-1.4883728,-3.197703,0.5559349,-5.091891
1570726753,2.7413635,5.94899,3.3800201,-2.6276703,-0.9992981,-1.3307037,1.2547346,-2.2950315,-0.9749677
1570726753,3.617035,4.6303864,1.122879,-2.1546936,-1.0152893,-1.5842438,3.3398852,-3.2350302,-1.3557048
1570726753,2.794632,4.076721,1.3868408,-1.8351135,-1.5106354,-1.6747894,2.8450887,-4.077941,-2.3678918
1570726753,1.0486603,0.51834106,4.408325,-1.0010071,-2.0549774,-0.8673248,0.6385822,-6.1603403,-1.7600245
1570726753,1.0486603,0.51834106,4.408325,-1.0010071,-2.0549774,-0.8673248,0.6385822,-6.1603403,-1.7600245
1570726753,1.8285675,-2.0446472,7.2430573,2.058426,-0.3633423,0.27996826,0.8339664,-9.846507,2.9711323
1570726753,2.2948456,-1.7268219,7.2747803,2.1500397,-0.16520691,0.3417511,1.1473923,-9.703712,2.307197
1570726753,6.6864014,12.603683,3.8426971,4.402008,3.3874512,1.4485626,4.4419603,1.6947651,0.4816482
1570726753,6.6864014,12.603683,3.8426971,4.402008,3.3874512,1.4485626,5.4924693,2.7837372,0.067732096
1570726753,3.8181458,13.738525,-3.838501,2.1926575,2.3850403,1.0959625,4.384325,7.2516727,-6.9557285
1570726753,-0.31604004,3.5883026,-0.98461914,2.1745453,1.3080597,1.6743927,-1.0973792,-5.1491966,-2.1127853
1570726753,5.7101746,16.504425,-10.242401,0.4200592,-0.9353943,1.8341827,3.8302267,5.903819,-13.017501
1570726753,4.173691,16.583435,-5.237915,0.06745911,-1.3092957,1.644577,3.6430078,7.6946783,-10.154528
1570726753,-2.5402527,11.298843,2.699463,0.6661377,-3.3972168,1.1449585,-5.24162,3.1460257,1.5699396
1570726753,-2.5402527,11.298843,2.699463,0.6661377,-3.3972168,1.1449585,-5.24162,3.1460257,1.5699396
1570726753,2.047638,8.218094,2.8215637,0.4743805,-2.1135712,-0.39646912,-1.144803,-1.234005,2.3065498
1570726753,2.047638,8.218094,2.8215637,0.4743805,-2.1135712,-0.39646912,-1.144803,-1.234005,2.3065498
1570726753,-0.41838074,6.1638794,1.9500732,2.8850708,3.479065,-1.9059601,-2.9164877,-2.9383125,4.429478
1570726753,-0.0077819824,6.503845,1.6454163,2.9862823,3.286255,-1.9006348,-2.9164877,-2.9383125,4.429478
1570726753,5.2750244,6.179428,-1.3257904,1.9678802,1.2931519,-1.541626,3.799841,-2.39038,-1.1086998
1570726753,2.82576,9.628876,1.2270355,0.4189911,-0.06613159,0.8914337,1.6243247,0.012813568,2.2595427
1570726753,1.885437,10.012558,1.8429413,0.511673,0.11495972,0.76252747,0.9380926,1.0361052,3.5464087
1570726753,-0.3501587,11.111496,-0.40701294,0.62991333,-0.04269409,0.31192017,-1.8322787,2.3514004,1.2763631
1570726753,2.533661,13.43985,1.5364838,0.18144226,-0.7915802,0.24801636,0.24424708,3.50027,3.9624567
1570726753,1.4101868,14.545975,3.2632904,-1.7189941,-0.5359192,0.16491699,-0.41143382,6.267806,4.7832046
1570726753,1.4101868,14.545975,3.2632904,-1.7189941,-0.5359192,0.16491699,-0.41143382,6.267806,4.7832046
1570726753,4.107849,9.648636,2.1960754,-2.4369812,0.97994995,-0.08328247,2.4789019,0.72838116,3.1941957
1570726753,4.107849,9.648636,2.1960754,-2.4369812,0.97994995,-0.08328247,2.4789019,0.72838116,3.1941957
1570726753,4.0462036,9.293686,2.2080536,-2.76828,1.2761078,0.2639923,2.145573,0.041853905,1.7365721
1570726753,2.881424,12.203842,-0.3531494,-2.206894,1.9195251,0.034957886,1.4366482,3.1363268,-0.38945377
1570726753,2.4929657,11.373062,-1.7794952,-2.1174011,1.7203217,-0.23348999,0.64054585,2.8361406,-3.1158433
1570726753,-0.21966553,12.076355,1.3473358,-1.5496216,1.6116638,-1.2486877,-1.1421357,2.7628956,0.09113073
1570726753,-0.7056885,8.81485,-3.65654,-2.76828,0.8585205,-1.3509521,-1.9794228,0.66124725,-5.3966074
1570726754,2.0614014,6.1177826,0.7338257,-2.353897,-0.27705383,-1.4894409,1.8479121,-1.6969242,-2.278576
1570726754,1.956665,5.9322357,0.22984314,-2.335785,-0.3494873,-1.5139313,1.8066629,-2.0231361,-3.275227
1570726754,-0.39144897,2.577362,-0.6386566,-2.478531,-2.446991,-1.3850403,-0.19120012,-4.5809526,-6.7105103
1570726754,-0.39144897,2.577362,-0.6386566,-2.478531,-2.446991,-1.3850403,-0.19120012,-4.5809526,-6.7105103
1570726754,1.1528015,-0.48661804,6.8671722,-0.5237732,-2.0986633,-0.27716064,0.735379,-7.346088,0.5410495
1570726754,1.1168976,-0.49440002,7.1963654,-0.39486694,-2.048584,-0.24839783,0.735379,-7.346088,0.5410495
1570726754,3.4853516,4.4167023,11.860275,2.281067,0.8872833,0.47598267,1.860086,-4.8896604,6.3924346
1570726754,4.7979736,8.054092,11.085754,2.1926575,1.329361,0.40353394,3.4576666,-0.8752718,5.767128
1570726754,4.7722473,9.862915,5.3630066,3.16951,1.456131,1.2099457,3.6102264,2.1712828,0.09693527
1570726754,4.7722473,9.862915,5.3630066,3.16951,1.456131,1.2099457,3.6102264,2.1712828,0.09693527
1570726754,3.6020813,8.107361,1.9734192,2.8339386,2.731247,1.3367157,2.8382974,0.17778301,-1.8550181
1570726754,2.9897614,7.344818,2.889801,2.870163,2.409546,1.5412445,1.9617962,-1.2334642,-0.14228392
1570726754,7.2993164,15.270218,-13.238739,2.1148834,1.0651855,2.0035706,3.1594102,2.6214895,-10.218396
1570726754,7.2993164,15.270218,-13.238739,2.1148834,1.0651855,2.0035706,3.1594102,2.6214895,-10.218396
1570726754,0.9720459,14.116806,-0.24002075,0.5787811,-0.9268646,1.2536163,0.50247025,6.105341,-4.856302
1570726754,-0.35614014,11.77887,0.5057678,1.22966,-2.9253082,1.0224609,-2.6759224,3.2555256,-0.30314946
1570726754,-0.036514282,8.139084,2.158371,0.41152954,-2.6153107,0.2948761,-2.805241,-0.39081383,2.8699503
1570726754,-0.10354614,8.294113,1.8489227,0.3966217,-2.6270294,0.23416138,-3.0506516,-0.6174965,2.0931034
1570726754,-1.1192932,10.437515,7.3747406,1.1263275,0.77648926,-1.9230042,-3.472302,1.3609142,5.8922553
1570726754,-1.1246796,10.437515,7.3747406,1.1263275,0.77648926,-1.9230042,-3.472302,1.3609142,5.8922553
1570726754,7.6279297,3.7726593,-2.4438782,1.1998291,0.95225525,-1.063324,7.707384,-4.75836,-3.6511226
1570726754,7.7829437,2.6192627,-1.2120667,1.0187378,0.7871399,-0.7959442,6.5292325,-4.4603624,-1.7989587
1570726754,-2.4768066,9.657608,0.4010315,0.753479,-0.43258667,0.45147705,-3.625319,1.3070507,2.5528824
1570726754,-2.4612427,9.652222,0.3471527,0.71513367,-0.36547852,0.4663849,-4.239098,0.900898,2.0232186
1570726754,-0.57699585,11.148605,-1.2366028,0.07064819,0.21829224,0.45680237,-3.1097355,2.3443508,1.042433
1570726754,2.6186523,15.352814,1.7561493,-0.22869873,-0.73405457,0.082901,-0.078938484,6.701045,3.1172786
1570726754,2.6186523,15.352814,1.7561493,-0.22869873,-0.73405457,0.082901,-0.078938484,6.701045,3.1172786
1570726754,3.32135,12.310989,3.0292664,-1.1884918,-0.77453613,0.18196106,1.3238289,4.1599855,4.24345
1570726754,3.1687317,10.011948,3.5877075,-2.3102112,-0.9130249,0.33216858,0.9872155,0.9943037,4.055215
1570726754,3.2956238,10.023926,3.5589752,-2.3570862,-0.8160858,0.34388733,1.0530579,1.0261316,4.0642548
1570726754,5.6940155,11.964432,2.8850098,-2.893982,1.1887512,0.20646667,3.304907,2.8477526,2.7680955
1570726754,5.7688293,12.131424,0.11791992,-2.6521606,1.4593201,0.17131042,3.346915,2.8275175,0.6242407
1570726754,2.6862946,9.372696,1.4921875,-1.780777,2.0590668,-0.25904846,1.1373396,0.7873974,-0.6993222
1570726754,2.6862946,9.372696,1.4921875,-1.780777,2.0590668,-0.25904846,1.1373396,0.7873974,-0.6993222
1570726755,0.017959595,8.156448,-2.2936401,-2.386917,1.4241791,-1.33284,-2.4984655,0.32865238,-6.032086
1570726755,0.017959595,8.156448,-2.2936401,-2.386917,1.4241791,-1.33284,-2.4984655,0.32865238,-6.032086
1570726755,2.2236176,5.2438965,2.2733002,-2.1195374,-0.13963318,-1.6481628,1.9460517,-2.5277262,-1.6704559
1570726755,2.063797,4.969162,2.031479,-2.0758667,-0.17372131,-1.649231,1.9460517,-2.5277262,-1.6704559
1570726755,0.16459656,1.2790985,0.82958984,-1.4888916,-1.4680176,-1.2582703,0.15744479,-6.2323318,-4.0034223
1570726755,0.09397888,1.2617493,0.4878235,-1.4739838,-1.521286,-1.20607,0.15744479,-6.2323318,-4.0034223
1570726755,1.327591,-0.0053863525,7.0970154,-0.22123718,-1.6917267,0.058395386,0.8568469,-7.083823,1.0013576
1570726755,1.3539276,-0.04309082,7.29393,-0.09979248,-1.6459198,0.11804199,0.8568469,-7.083823,1.0013576
1570726755,4.226364,3.7804413,10.722427,1.3031616,0.1799469,0.7188568,2.6197665,-4.6895013,5.399701
1570726755,5.7095795,8.759781,3.6008759,3.1332855,0.5357361,1.0363007,5.103597,0.7458701,-1.9234152
1570726755,5.783798,9.09079,4.490326,3.2728271,0.7104492,1.0693359,5.103597,0.7458701,-1.9234152
1570726755,4.273056,15.768219,1.3688812,3.3271637,3.5653534,0.690094,3.1407993,5.701227,-1.1298163
1570726755,0.03591919,5.929245,2.126648,2.583603,1.9717255,0.95747375,-0.72678894,-2.6306953,-0.4985788
1570726755,0.11013794,5.941803,2.0338745,2.5889282,2.0228577,1.0213928,-0.72678894,-2.6306953,-0.4985788
1570726755,0.07720947,12.457031,0.97624207,0.19741821,-0.6477661,1.3654785,-0.46220672,3.5117598,-3.946385
1570726755,0.07720947,12.457031,0.97624207,0.19741821,-0.6477661,1.3654785,-0.46220672,3.5117598,-3.946385
1570726755,1.1504211,12.710815,2.2547455,0.5787811,-2.1785583,1.2451019,-0.7149985,4.121709,1.2331319
1570726755,0.9822235,8.090607,2.0254974,0.591568,-2.574829,0.57717896,-1.3230557,-0.72381973,1.0474484
1570726755,0.9822235,8.090607,2.0254974,0.591568,-2.574829,0.57717896,-1.3230557,-0.72381973,1.0474484
1570726755,-0.40582275,7.5369415,2.4337006,0.5968933,-2.7751007,0.48023987,-2.630182,-1.2052422,1.4863617
1570726755,-2.3612823,9.818619,8.970474,1.3127441,1.5892944,-1.2252502,-4.265994,1.253932,8.857707
1570726755,4.7070007,6.131546,-2.4145508,2.807312,3.4013062,-2.1190033,2.3790245,-3.3756094,-0.00817126
1570726755,5.136154,6.131546,-2.4145508,2.807312,3.4013062,-2.1190033,2.3790245,-3.3756094,-0.00817126
1570726755,6.645111,4.3706207,-0.64105225,0.73324585,0.4494629,-0.28781128,5.733514,-4.097767,-0.8271704
1570726755,1.2024841,11.079773,0.8170166,0.5734558,-0.20355225,0.65600586,0.9388679,1.9290676,1.7707037
1570726755,-1.821991,9.56723,0.5740051,0.61605835,-0.1449585,0.40248108,-3.2052088,0.8848486,1.4942685
1570726755,0.93733215,11.981186,0.25558472,-0.09339905,-0.37612915,0.32577515,-1.0144639,3.2141428,1.3245069
1570726755,0.93733215,11.981186,0.25558472,-0.09339905,-0.37612915,0.32577515,-0.8920158,3.1799192,1.4062239
1570726755,1.8207855,15.136749,2.4678192,-1.4867706,-1.1111603,0.19581604,-0.06048417,6.4702168,3.3495107
1570726755,1.7878723,14.840454,2.4690247,-1.5794525,-1.0909119,0.17237854,-0.06048417,6.4702168,3.3495107
1570726755,3.0370483,9.54509,3.447647,-2.4870453,0.32055664,-0.10992432,1.0797869,0.5591564,3.232872
1570726755,3.0370483,9.54509,3.447647,-2.4870453,0.32055664,-0.10992432,1.0797869,0.5591564,3.232872
1570726755,5.215164,12.835907,1.5957336,-2.3016968,1.8140564,0.11911011,3.6289315,3.7017012,0.05115974
1570726756,5.215164,12.835907,1.5957336,-2.3016968,1.8140564,0.11911011,3.6289315,3.7017012,0.05115974
1570726756,-0.27653503,12.409744,1.3000488,-1.700882,1.4081879,-1.0782471,-1.2635822,3.3691387,-2.0207262
1570726756,-0.27653503,12.409744,1.3000488,-1.700882,1.4081879,-1.0782471,-1.2635822,3.3691387,-2.0207262
1570726756,-0.85772705,11.704651,-1.6005249,-1.9970245,1.1962128,-1.5331116,-2.1667542,3.4754076,-5.569041
1570726756,1.9369049,7.0946198,3.4434662,-2.4519043,-0.85975647,-1.6385651,1.5290188,-0.93672085,-0.9977989
1570726756,1.9369049,7.0946198,3.4434662,-2.4519043,-0.85975647,-1.6385651,1.5290188,-0.93672085,-0.9977989
1570726756,0.33818054,2.668335,1.3191986,-1.8468323,-2.1689606,-1.6620026,0.46461436,-4.4160147,-4.7757473
1570726756,0.17956543,2.5480347,1.4407043,-1.8319092,-2.190277,-1.6225891,0.46461436,-4.4160147,-4.7757473
1570726756,1.6992798,0.70988464,5.2953796,-0.78582764,-2.2158356,-0.5637207,1.4236352,-5.971641,-0.53117085
1570726756,1.6992798,0.70988464,5.2953796,-0.78582764,-2.2158356,-0.5637207,1.4236352,-5.971641,-0.53117085
1570726756,3.126236,1.043869,8.914215,1.7175446,-0.2983551,0.1894226,2.3257906,-5.891808,2.7862816
1570726756,3.126236,1.043869,8.914215,1.7175446,-0.2983551,0.1894226,2.3257906,-5.891808,2.7862816
1570726756,4.4059296,8.296509,12.108673,2.1500397,1.2239075,0.4855652,3.4178524,-0.74871206,5.5426497
1570726756,4.1407776,19.398422,10.3315735,1.5204773,1.1290894,0.26185608,2.9806244,11.910078,9.35455
1570726756,4.4861298,10.116104,5.5922546,2.4930573,0.59007263,1.1811829,3.2249398,2.5193195,-0.48750877
1570726756,3.035843,5.154114,2.6258392,2.4131622,2.7642822,1.149231,2.06271,-2.4030828,-1.0840378
1570726756,2.5510254,4.7848053,2.6946716,2.5644379,2.3892975,1.1566772,1.861712,-3.4442644,-1.1982465
1570726756,3.368637,12.236771,-7.019806,2.0701447,1.4657135,1.6893158,0.7770939,1.5397825,-5.9452353
1570726756,4.6040497,14.354431,-10.6081085,1.8869171,1.2590637,1.6403046,1.6186491,2.9438877,-8.434245
1570726756,-1.3168182,11.347321,0.7799072,0.8035431,-2.3628387,0.92658997,-3.173437,3.0516996,-1.0054924
1570726756,-1.3168182,11.347321,0.7799072,0.8035431,-2.3628387,0.92658997,-3.173437,3.0516996,-1.0054924
1570726756,-1.0205231,9.029129,2.367859,0.35720825,-2.4022522,0.83283997,-3.686601,0.37330437,0.629146
1570726756,0.16160583,8.486847,1.8501129,0.40620422,-2.9956055,0.04774475,-1.4534233,-0.76665974,0.44609213
1570726756,1.0480652,8.450333,2.6240387,0.32312012,-2.617447,-0.11418152,-2.4544084,-0.5668335,1.2816589
1570726756,-0.4800415,10.083786,8.492233,1.1593475,1.0555878,-1.1762543,-2.926654,1.3255243,8.001865
1570726756,3.2076263,7.2352753,1.6705475,2.8488617,2.4148712,-2.0891724,0.37473047,-1.4520721,3.5929265
1570726756,3.2076263,7.2352753,1.6705475,2.8488617,2.4148712,-2.0891724,0.37473047,-1.4520721,3.5929265
1570726756,1.3778687,8.834,-1.2575531,0.48503113,-0.3644104,0.8381653,1.2679901,-1.2269344,-0.4124657
1570726756,1.3778687,8.834,-1.2575531,0.48503113,-0.3644104,0.8381653,1.2679901,-1.2269344,-0.4124657
1570726756,-0.049682617,11.0271,0.91996765,0.08769226,-0.6658783,0.48770142,-2.1167238,1.2131577,1.7839806
1570726756,-0.049682617,11.0271,0.91996765,0.08769226,-0.6658783,0.48770142,-2.1167238,1.2131577,1.7839806
1570726756,3.047821,15.604202,0.9911957,-0.2457428,-1.4147644,0.19688416,1.3222984,6.1431303,2.0410295
1570726756,2.4438782,16.281174,1.1049194,-0.42790222,-1.4786682,0.19793701,1.1523169,6.774189,2.0634217
1570726756,2.3463135,13.251907,2.676117,-1.8787842,-1.2080994,0.1340332,0.4316702,5.0691156,2.8948586
1570726757,2.937088,12.139206,3.277069,-2.2175446,-0.88105774,0.044540405,0.888546,3.312749,3.670631
1570726757,3.6858673,9.360138,4.076126,-2.4870453,-0.056549072,0.13296509,1.6687921,0.3944664,3.2836735
1570726757,4.4807434,12.437881,2.300827,-2.558426,2.0090027,0.25653076,2.9129066,3.0977678,2.1784916
1570726757,4.356247,12.563568,1.5358734,-2.5019684,1.9791718,0.21818542,2.5745108,3.4345417,0.81366956
1570726757,-0.91937256,10.181946,1.3048401,-1.8894348,0.8073883,-0.45613098,-2.3572688,1.675128,-3.4241743
1570726757,-0.91937256,10.181946,1.3048401,-1.8894348,0.8073883,-0.45613098,-2.3572688,1.675128,-3.4241743
1570726757,1.2826996,8.877701,0.5398865,-2.6159515,-0.32925415,-0.9887543,-0.8295233,0.5112915,-4.6614237
1570726757,1.2826996,8.877701,0.5398865,-2.6159515,-0.32925415,-0.9887543,-0.8295233,0.5112915,-4.6614237
1570726757,2.7970276,6.1135864,2.0667877,-1.9916992,-0.8949127,-1.4873047,2.3018954,-1.5153708,-1.7311616
1570726757,2.4067688,5.9388123,0.7451935,-2.019394,-1.1345978,-1.5267181,1.799799,-1.8927522,-4.25319
1570726757,1.6490021,2.5641937,-0.3154297,-1.8510895,-1.6544342,-1.6268616,1.3117633,-4.292327,-6.136635
1570726757,0.5500641,0.36810303,4.8614197,-1.6071472,-2.3436737,-0.79382324,-0.29426748,-6.249496,-1.4845314
1570726757,0.5500641,0.36810303,4.8614197,-1.6071472,-2.3436737,-0.79382324,-0.29426748,-6.249496,-1.4845314
1570726757,1.3581085,-0.55784607,5.6108093,-0.7080536,-2.063507,-0.46891785,0.25021064,-7.0864463,-0.7785969
1570726757,3.4243011,-1.0049591,8.464706,0.67251587,-1.1772003,-0.3453369,2.067792,-7.4131303,1.6330128
1570726757,-0.8092346,14.930237,4.1365814,1.5588226,0.32588196,-0.33894348,-2.2519655,9.539376,4.717264
1570726757,-0.054473877,13.128601,-0.375885,1.7175446,0.13200378,-0.18981934,-2.2519655,9.539376,4.717264
1570726757,6.7390747,8.087616,9.731232,1.6546936,0.6486664,0.6219177,5.474319,1.508214,2.904708
1570726757,1.8956146,7.468109,6.5283966,1.9156799,0.5506592,1.0277863,2.3874478,-0.30135584,2.0057745
1570726757,2.4618378,6.036972,3.438675,2.8914642,2.5522919,0.90208435,1.6225388,-2.2923827,0.61096907
1570726757,2.0446472,10.41478,-0.95947266,2.4653625,1.6095276,1.4315186,0.7719102,1.8059464,-3.8337686
1570726757,2.0446472,10.41478,-0.95947266,2.4653625,1.6095276,1.4315186,0.7719102,1.8059464,-3.8337686
1570726757,0.4411316,14.672867,-1.719635,0.87171936,-0.869339,0.594223,1.6154729,6.4485073,-7.992848
1570726757,0.4411316,14.672867,-1.719635,0.87171936,-0.869339,0.594223,1.6154729,6.4485073,-7.992848
1570726757,-1.1258698,8.684372,0.92596436,1.1284485,-1.7567139,0.33535767,-3.7446258,-0.11174011,-0.75118923
1570726757,-1.1258698,8.684372,0.92596436,1.1284485,-1.7567139,0.33535767,-3.7446258,-0.11174011,-0.75118923
1570726757,-0.06643677,7.720703,2.1380157,0.7918396,-2.030487,-0.025756836,-2.6326165,-0.9761543,0.60707045
1570726757,3.1381989,7.799118,4.7177734,1.0325775,-1.5766754,-0.7544098,0.7785132,-0.9504366,3.9131978
1570726757,2.593521,7.474701,4.312561,1.1529541,-1.027008,-0.84814453,0.63139296,-1.295721,3.6391225
1570726757,1.6825256,7.1700287,3.5781403,1.3020935,0.28753662,-0.43055725,-0.368186,-1.7010431,3.3685834
1570726757,1.2078705,7.426819,-0.12928772,0.7311096,-0.12898254,0.060531616,-0.7792258,-1.6853142,-0.044670127
1570726757,-0.087387085,8.779541,0.89123535,0.07810974,-0.8192749,0.12550354,-1.8063354,0.0010433197,1.079517
1570726757,-0.087387085,8.779541,0.89123535,0.07810974,-0.8192749,0.12550354,-1.8063354,0.0010433197,1.079517
1570726758,0.5321045,8.318054,0.10354614,0.7076721,-0.09275818,-0.33042908,-1.5290504,-0.4521265,0.47502112
1570726758,0.5321045,8.318054,0.10354614,0.7076721,-0.09275818,-0.33042908,-1.5290504,-0.4521265,0.47502112
1570726758,1.7304077,8.028351,-0.15861511,0.96121216,0.37594604,-0.1599884,-0.35654604,-0.9366255,0.76167107
1570726758,1.8758545,8.231857,-0.59077454,1.0283203,0.276886,-0.008712769,-0.056364775,-0.70238304,0.5667686
1570726758,2.1607666,8.278549,-1.2240295,1.0869141,-0.22485352,0.26611328,0.09241676,-0.66699505,0.15355635
1570726758,2.3253632,9.306259,-0.9708557,0.43603516,-1.2262115,0.6144562,0.4044261,0.4921093,0.45468616
1570726758,1.2473755,11.607681,0.55426025,0.08769226,-1.4829407,0.6677246,-1.0582669,2.512288,1.9619868
1570726758,1.2473755,11.607681,0.55426025,0.08769226,-1.4829407,0.6677246,-1.0582669,2.512288,1.9619868
1570726758,-1.0007782,8.176804,0.22625732,-0.13388062,-0.70848083,0.25334167,-3.0181084,0.19325924,2.9159873
1570726758,-1.0007782,8.176804,0.22625732,-0.13388062,-0.70848083,0.25334167,-3.0181084,0.19325924,2.9159873
1570726758,-0.5135498,13.728958,-0.39982605,-1.4441528,-1.5958557,0.4365692,-2.915033,4.3865376,1.2924249
1570726758,-0.5135498,13.728958,-0.39982605,-1.4441528,-1.5958557,0.4365692,-2.915033,4.3865376,1.2924249
1570726758,0.9241638,9.010574,-0.5776062,-2.0236664,-2.6014557,0.013656616,-1.6295004,1.2281313,0.14748001
1570726758,0.9241638,9.010574,-0.5776062,-2.0236664,-2.6014557,0.013656616,-1.6295004,1.2281313,0.14748001
1570726758,2.0105286,8.666412,2.308014,-2.799179,-0.29942322,0.63150024,-0.09938407,-0.8172884,2.244639
1570726758,2.0254974,8.973465,2.1673584,-2.8066254,-0.10342407,0.6453552,-0.35949516,-0.34052086,2.1197782
1570726758,0.15142822,11.623245,-8.479065,-2.9504395,0.39726257,0.07437134,-1.15114,3.754201,-8.092472
1570726758,0.15142822,11.623245,-8.479065,-2.9504395,0.39726257,0.07437134,-1.15114,3.754201,-8.092472
1570726758,-6.736084,11.289856,4.201233,-0.07316589,-0.8714752,-1.5469666,-8.445009,3.2165356,3.5048602
1570726758,-6.7941437,11.163559,3.6673126,-0.09233093,-0.39849854,-1.6066132,-9.150007,2.7510328,2.6178598
1570726758,-0.36032104,9.694122,-5.5844727,-0.29367065,-1.4861298,-2.0455017,-2.3299441,0.7925215,-6.8862576
1570726758,-0.36032104,9.694122,-5.5844727,-0.29367065,-1.4861298,-2.0455017,-2.3299441,0.7925215,-6.8862576
1570726758,-0.6500244,9.830597,0.82121277,-1.2076721,-5.152771,-1.7131348,-1.6690888,0.69159317,-1.4421158
1570726758,-0.6937256,10.007172,0.8559265,-1.1799774,-5.1421204,-1.715271,-1.6690888,0.69159317,-1.4421158
1570726758,0.24061584,13.874405,-0.53630066,-1.8489532,-4.7351837,-2.081726,-0.9208902,4.970931,-3.2906864
1570726758,0.24061584,13.874405,-0.53630066,-1.8489532,-4.7351837,-2.081726,-0.9208902,4.970931,-3.2906864
1570726758,2.711441,10.133453,0.7164612,-1.4313812,-3.8318481,-2.4151459,2.28608,1.7413244,-2.656607
1570726758,2.711441,10.133453,0.7164612,-1.4313812,-3.8318481,-2.4151459,2.28608,1.7413244,-2.656607
1570726758,2.8550873,6.033386,0.33638,-1.2215118,-3.400406,-1.7759857,2.8059337,-1.9412699,-3.028151
1570726758,2.8550873,6.033386,0.33638,-1.2215118,-3.400406,-1.7759857,2.8059337,-1.9412699,-3.028151
1570726758,1.6460114,3.4380798,4.4256744,-1.2960815,-2.557785,-1.0920868,1.7983632,-4.49613,0.07104349
1570726758,1.6460114,3.4380798,4.4256744,-1.2960815,-2.557785,-1.0920868,1.7983632,-4.49613,0.07104349
1570726758,0.1879425,4.5795135,5.609619,-1.3972931,-3.2363586,-1.0420227,-0.3257583,-3.1549544,-0.8616953
1570726758,0.1879425,4.5795135,5.609619,-1.3972931,-3.2363586,-1.0420227,-0.3257583,-3.1549544,-0.8616953
1570726759,0.04788208,10.667969,10.939713,-0.1796875,-3.5857697,-1.1155243,-1.6855885,2.4645934,5.638388
1570726759,0.04788208,10.667969,10.939713,-0.1796875,-3.5857697,-1.1155243,-1.6855885,2.4645934,5.638388
1570726759,2.106903,4.594467,9.826996,0.530838,-2.3937378,-1.1315002,0.8120105,-2.527019,5.061334
1570726759,2.091339,4.28862,9.792877,0.57984924,-2.2989197,-1.0878296,0.8120105,-2.527019,5.061334
1570726759,1.2216339,1.3078308,10.290283,1.5162048,-0.8480377,-0.6127167,-0.012905359,-6.14729,5.457073
1570726759,11.972809,19.612701,-0.68473816,2.3108978,1.4476013,0.6996765,8.721813,11.292745,-0.98741245
1570726759,11.972809,19.612701,-0.68473816,2.3108978,1.4476013,0.6996765,8.721813,11.292745,-0.98741245
1570726759,2.9891663,-0.7739258,1.4526825,-0.3991394,-0.31860352,0.21498108,1.0654677,-8.695359,-2.3942714
1570726759,2.9891663,-0.7739258,1.4526825,-0.3991394,-0.31860352,0.21498108,1.0654677,-8.695359,-2.3942714
1570726759,1.6442108,-1.1635895,3.1286163,1.1156769,-0.75642395,0.9361725,0.58474624,-9.793128,-1.0282815
1570726759,-1.6526031,11.351501,2.1242523,3.0587158,1.1024628,1.105545,-2.7985032,1.4402828,-0.22235394
1570726759,-2.6234436,11.614868,-1.3808594,2.203308,1.904602,0.8115387,-4.6449885,3.3561773,-3.487471
1570726759,-2.6234436,11.614868,-1.3808594,2.203308,1.904602,0.8115387,-4.6449885,3.3561773,-3.487471
1570726759,1.272522,12.267288,-1.6130981,1.2839813,0.20870972,0.6655884,-0.87496686,3.8471346,-3.1297436
1570726759,0.5093689,7.2675934,-1.1019287,0.7779846,-1.4030457,0.3140564,-1.3153336,-1.0866213,-2.5693154
1570726759,1.312027,8.966278,-0.8816681,0.23362732,-2.9476776,0.467453,-1.1075728,-0.37940884,-1.9318476
1570726759,1.8291626,10.500961,2.1164703,0.15800476,-3.0648499,0.15107727,-0.52571654,1.7675123,0.61056274
1570726759,4.122818,11.489777,7.357376,0.8525543,-1.1835938,-0.70007324,1.7655313,2.9170418,6.8201942
1570726759,-0.3136444,8.644272,2.8921967,2.155365,0.22575378,-1.3136597,-2.0645735,-0.13885593,3.2601542
1570726759,1.3168182,7.502228,3.5110931,0.78863525,1.3655853,-1.1517487,-0.58247936,-0.6633282,4.3173456
1570726759,1.3168182,7.502228,3.5110931,0.78863525,1.3655853,-1.1517487,-0.58247936,-0.6633282,4.3173456
1570726759,3.831314,5.9310303,0.09397888,1.1241913,1.6382904,-0.6617279,2.420444,-2.921505,1.1606739
1570726759,1.5430603,7.57106,-4.5005035,0.4743805,-0.21420288,0.017913818,0.7840773,-1.3944654,-3.9286182
1570726759,0.12449646,9.795273,-0.5195465,0.36465454,-1.3827972,0.32791138,-0.81135714,0.055858612,-0.32317615
1570726759,0.17237854,11.377243,2.8515015,-0.30325317,-0.80329895,0.1926117,-1.5669612,1.7574854,4.1425
1570726759,0.17237854,11.377243,2.8515015,-0.30325317,-0.80329895,0.1926117,-1.5669612,1.7574854,4.1425
1570726759,1.4933777,16.893494,2.0937347,-0.71658325,-1.4009094,0.20539856,-0.038624644,7.67204,3.0886211
1570726759,3.2525177,15.410278,4.4466248,-1.9171295,-1.7098389,0.18089294,1.7442443,7.743367,4.2505555
1570726759,3.0065155,11.162369,6.3147125,-2.7363281,0.29818726,0.24162292,1.3811903,2.3504095,6.2820325
1570726759,4.7698517,10.855316,2.8245544,-2.672409,1.887558,0.40141296,2.6370256,1.1053715,2.6519654
1570726759,3.8450928,11.3389435,1.3682861,-2.5232697,1.9376373,0.14042664,2.428362,2.5038757,-0.3398837
1570726759,-0.0023956299,14.342468,4.988312,-1.4750519,1.5168457,-1.0601349,-0.662693,4.7977037,0.7351794
1570726759,-0.0023956299,14.342468,4.988312,-1.4750519,1.5168457,-1.0601349,-0.662693,4.7977037,0.7351794
1570726760,1.4101868,8.014587,-2.324173,-2.7533722,-0.8917084,-1.5352478,1.6835699,0.24918842,-8.521489
1570726760,0.33758545,6.893509,0.61172485,-2.623413,-0.95669556,-1.3541412,-0.32559523,-1.3780079,-3.390999
1570726760,1.4101868,4.261673,0.26275635,-2.1184692,-1.8323364,-1.6907654,1.5121535,-3.4134884,-5.332491
1570726760,1.4101868,4.261673,0.26275635,-2.1184692,-1.8323364,-1.6907654,1.5121535,-3.4134884,-5.332491
1570726760,0.27592468,2.3223724,1.0163422,-2.126999,-2.2477875,-1.4606781,0.6958904,-4.5309753,-4.90477
1570726760,1.0887604,-0.1592102,5.348648,-1.6646729,-2.4821472,-0.60313416,0.62318516,-6.8731313,-1.938086
1570726760,1.9351196,-0.41000366,5.992691,-0.61750793,-1.8110352,-0.313385,1.5474029,-7.2558813,0.09619188
1570726760,1.7333984,-1.0450745,8.97406,1.1401672,-1.0078278,-0.06944275,1.0638456,-7.543223,2.7764297
1570726760,5.162491,3.0448303,7.778763,2.8286133,0.8627777,0.14147949,3.312717,-6.279449,1.1220388
1570726760,6.9036865,15.544357,2.3648682,2.6560516,2.4702606,0.7902374,7.302812,9.201101,-3.1576219
1570726760,6.9036865,15.544357,2.3648682,2.6560516,2.4702606,0.7902374,7.302812,9.201101,-3.1576219
1570726760,0.517746,4.7979736,3.3189697,2.4621735,2.6843872,1.1289825,0.21672872,-3.984662,0.6361003
1570726760,0.517746,4.7979736,3.3189697,2.4621735,2.6843872,1.1289825,0.21672872,-3.984662,0.6361003
1570726760,7.6392975,18.252197,-12.737747,1.8571014,0.438797,1.7436371,5.4338145,6.6307507,-11.681321
1570726760,7.6392975,18.252197,-12.737747,1.8571014,0.438797,1.7436371,5.4338145,6.6307507,-11.681321
1570726760,0.13407898,10.900803,0.88764954,0.6949005,-2.1316833,0.79981995,-1.5332106,1.9373941,-0.8301172
1570726760,0.13407898,10.900803,0.88764954,0.6949005,-2.1316833,0.79981995,-1.5332106,1.9373941,-0.8301172
1570726760,1.0049591,8.051102,2.1164703,0.40727234,-2.1572418,0.2128601,-1.2578678,-0.87536716,1.6520517
1570726760,1.0049591,8.051102,2.1164703,0.40727234,-2.1572418,0.2128601,-1.2578678,-0.87536716,1.6520517
1570726760,0.3866577,10.273514,3.6511536,0.32312012,-1.853653,-0.5924835,-2.03431,0.83113194,2.3479846
1570726760,0.3866577,10.273514,3.6511536,0.32312012,-1.853653,-0.5924835,-2.03431,0.83113194,2.3479846
1570726760,-1.359909,7.395691,4.3221283,2.0999756,3.0593567,-1.9560242,-3.2822213,-1.4308901,5.0556316
1570726760,5.9274445,4.11084,-1.4478912,0.973999,0.08407593,-0.3442688,5.965528,-4.204709,-1.3275942
1570726760,5.3223114,3.778656,-0.8523407,0.8269806,-0.060806274,-0.3442688,5.965528,-4.204709,-1.3275942
1570726760,-3.6385956,9.184158,0.6039429,0.6799774,0.19059753,0.5984802,-4.8617005,0.17612648,3.2404895
1570726760,-3.6385956,9.184158,0.6039429,0.6799774,0.19059753,0.5984802,-4.8617005,0.17612648,3.2404895
1570726760,-1.7776947,11.035477,-2.2547455,-0.124298096,0.1522522,0.2639923,-3.398513,1.6776552,-0.70497966
1570726760,1.624466,16.215927,0.4010315,0.2155304,-1.1953125,-0.028961182,-0.07701337,6.0859814,1.8337421
1570726760,1.624466,16.215927,0.4010315,0.2155304,-1.1953125,-0.028961182,-0.07701337,6.0859814,1.8337421
1570726760,4.337097,13.386581,2.526474,-0.96798706,-0.7713318,-0.16957092,3.5628963,5.3031063,4.004841
1570726760,3.870224,12.07576,2.3433228,-1.1458893,-0.72447205,-0.16105652,3.024457,3.7149057,3.5725749
1570726760,2.0530243,9.589981,1.2976532,-2.3166046,-0.6051636,0.38755798,0.51072264,0.22472191,0.8711904
1570726760,2.0530243,9.589981,1.2976532,-2.3166046,-0.6051636,0.38755798,0.51072264,0.22472191,0.8711904
1570726761,4.115631,12.852676,1.7872772,-2.6990356,2.0516205,0.11804199,3.1256318,4.015641,1.0031947
1570726761,4.115631,12.852676,1.7872772,-2.6990356,2.0516205,0.11804199,3.1256318,4.015641,1.0031947
1570726761,2.1865082,10.828369,1.0953522,-2.3155518,2.0260468,-0.115249634,1.2471472,2.206727,-1.5438795
1570726761,0.7451935,11.348511,-1.9429016,-1.7722626,1.692627,-0.60313416,-0.004971266,2.5621624,-2.3282058
1570726761,1.2030792,8.89267,-2.0099335,-2.8961182,0.62416077,-1.1016846,0.3525027,0.4102583,-5.491063
1570726761,0.5237274,4.305969,2.2601318,-2.5019684,-0.9694824,-1.7983551,0.8902273,-3.394042,-2.7050495
1570726761,0.25437927,4.2006226,1.8034363,-2.5019684,-0.9694824,-1.7983551,0.8902273,-3.394042,-2.7050495
1570726761,-0.12808228,-1.2868805,2.4001923,-1.6966248,-2.286148,-0.6127167,-0.10239601,-8.181135,-4.5707016
1570726761,-0.037704468,-1.4335327,2.9412842,-1.6209869,-2.2371368,-0.54667664,-0.10239601,-8.181135,-4.5707016
1570726761,1.0977478,-1.5029602,5.104431,-0.9338989,-1.681076,-0.1642456,0.8803887,-8.542141,-0.85804224
1570726761,4.687256,3.376419,11.610687,1.9029083,1.1429443,0.63682556,2.8185942,-6.177609,7.518968
1570726761,4.687256,3.376419,11.610687,1.9029083,1.1429443,0.63682556,2.8185942,-6.177609,7.518968
1570726761,3.6798859,15.366592,6.5954285,3.0991974,2.5331116,1.1854401,3.131599,6.120991,1.6559439
1570726761,3.6798859,15.366592,6.5954285,3.0991974,2.5331116,1.1854401,3.131599,6.120991,1.6559439
1570726761,-0.6949158,5.5922546,3.1136627,2.29599,1.9770508,0.97984314,-0.50791335,-2.5221968,0.09955859
1570726761,-0.6949158,5.5922546,3.1136627,2.29599,1.9770508,0.97984314,-0.50791335,-2.5221968,0.09955859
1570726761,-0.8720856,5.881958,1.4299316,2.39505,2.1783752,1.5231323,-1.2516098,-2.9275417,-1.2301342
1570726761,4.8285065,18.174393,-7.8841095,0.19316101,-1.1686859,1.328186,7.496439,10.729752,-17.886902
1570726761,4.8285065,18.174393,-7.8841095,0.19316101,-1.1686859,1.328186,7.496439,10.729752,-17.886902
1570726761,-0.683548,8.819641,1.8567047,0.7705231,-2.5641785,0.7881012,-2.8944516,0.48445034,1.133274
1570726761,-0.683548,8.819641,1.8567047,0.7705231,-2.5641785,0.7881012,-2.8944516,0.48445034,1.133274
1570726761,1.3156128,7.944565,2.905365,0.5681305,-2.8496704,0.14894104,-0.89241004,-0.8602495,2.0744057
1570726761,1.2348022,7.961914,3.0286713,0.57025146,-2.793213,0.09034729,-1.0128996,-0.9300518,2.1461082
1570726761,-0.16998291,8.847168,4.203018,0.6970215,-1.3199463,-0.57543945,-2.5353696,-0.67823505,3.1752446
1570726761,-1.3401489,7.7572174,7.9667053,1.4917145,2.6641388,-1.6119385,-3.6368268,-0.649436,7.819154
1570726761,-0.11730957,6.0058594,0.93852234,2.8275452,3.5280762,-2.147766,-0.93887484,-2.4521675,3.3531542
1570726761,6.016037,5.564728,-0.6482239,1.1486969,1.0119171,-0.8790436,4.7488866,-3.27349,-0.074968755
1570726761,3.1286163,7.6201477,0.52612305,0.66293335,-0.07678223,0.7476196,2.6936288,-2.4482718,1.5976809
1570726761,-1.1264648,9.403824,-0.77153015,0.4275055,0.6348114,0.610199,-2.913461,0.16998577,0.43235064
1570726761,-0.9104004,9.630081,-0.6889343,0.4051361,0.6252289,0.608078,-2.913461,0.16998577,0.43235064
1570726761,0.70988464,13.670288,-2.4139557,0.6789093,-0.95137024,0.31619263,-1.3512412,4.2864056,-0.45550275
1570726761,0.70988464,13.670288,-2.4139557,0.6789093,-0.95137024,0.31619263,-1.3512412,4.2864056,-0.45550275
1570726761,3.7415314,15.322891,-0.56204224,-0.08488464,-1.1473694,0.12124634,1.8476077,6.7102118,1.084077
1570726762,2.9281158,12.0386505,1.1432343,-0.77197266,-1.3700104,-0.09925842,1.7980635,3.7806902,2.8425891
1570726762,1.8980103,10.033508,1.3072357,-1.2875671,-1.1015625,0.021102905,0.48465288,1.1292887,2.7947025
1570726762,2.8933868,10.8211975,1.2826996,-2.206894,-0.31221008,0.3183136,1.1059551,1.5884132,1.81092
1570726762,2.8933868,10.8211975,1.2826996,-2.206894,-0.31221008,0.3183136,1.1059551,1.5884132,1.81092
1570726762,1.7316132,10.198105,2.1128845,-2.1642761,0.7274933,-0.0012664795,0.27345753,1.2121878,1.3995751
1570726762,1.7316132,10.198105,2.1128845,-2.1642761,0.7274933,-0.0012664795,0.27345753,1.2121878,1.3995751
1570726762,2.5552063,9.588776,-1.9614563,-2.0705261,1.2601166,-0.17703247,1.2304704,0.46642494,-2.8417296
1570726762,2.5552063,9.588776,-1.9614563,-2.0705261,1.2601166,-0.17703247,1.2304704,0.46642494,-2.8417296
1570726762,1.3377533,13.528442,-1.3838501,-1.700882,0.49206543,-1.0111389,0.5622202,3.262783,-4.2111244
1570726762,1.8207855,7.743454,3.2345734,-3.0910645,0.030807495,-1.4084778,1.43941,-0.43881416,0.15771246
1570726762,1.8207855,7.743454,3.2345734,-3.0910645,0.030807495,-1.4084778,1.43941,-0.43881416,0.15771246
1570726762,1.2192535,4.7381287,-0.62667847,-2.2324524,-1.1569672,-1.8739929,1.6941768,-2.6068363,-5.3610306
1570726762,1.2192535,4.7381287,-0.62667847,-2.2324524,-1.1569672,-1.8739929,1.6941768,-2.6068363,-5.3610306
1570726762,-0.5925598,-0.37709045,6.8258667,-1.4974213,-2.0741577,-0.55200195,-0.7396861,-7.0593925,0.15732908
1570726762,-0.5925598,-0.37709045,6.8258667,-1.4974213,-2.0741577,-0.55200195,-0.7396861,-7.0593925,0.15732908
1570726762,0.8720856,-0.46148682,5.735916,-0.43748474,-1.601181,-0.19514465,0.48367694,-7.131108,-0.15539408
1570726762,2.355896,0.10055542,6.6277466,0.894104,-0.95562744,-0.018310547,1.8270793,-6.394796,0.49776363
1570726762,2.2463531,18.967468,16.681595,1.0773163,0.38127136,-0.13973999,2.0709434,9.948965,13.714817
1570726762,2.2463531,18.967468,16.681595,1.0773163,0.38127136,-0.13973999,2.0709434,9.948965,13.714817
1570726762,2.778473,14.338867,5.9190674,1.8560333,1.2558594,1.1716003,0.9711161,7.337289,0.2449274
1570726762,5.8047485,10.87027,4.173691,2.0019684,1.3655853,1.199295,4.5857196,4.6629286,0.3547678
1570726762,2.857483,3.6816864,5.764633,2.5473938,2.3179321,0.7912903,2.5445821,-4.319145,1.4953218
1570726762,2.363678,10.994171,-2.8431091,3.173767,2.5522919,1.7372437,1.2594281,1.5406046,-4.017043
1570726762,2.2912445,11.087555,-3.4189148,3.1173096,2.4862366,1.7649536,1.4636629,2.1178026,-5.041911
1570726762,-0.7362213,12.621628,2.8078003,0.80249023,-1.5457916,1.055481,-2.2735217,4.245635,-0.049204946
1570726762,-0.61172485,12.31517,2.9574432,0.86746216,-1.6427307,1.0458984,-2.3254163,3.8013449,1.0342629
1570726762,0.557251,7.569275,0.61291504,0.5585327,-2.0187683,0.5175171,-1.8704367,-1.3097982,0.045636535
1570726762,0.5985565,7.513611,0.47584534,0.530838,-2.063507,0.4951477,-1.8704367,-1.3097982,0.045636535
1570726762,0.25737,8.200745,2.4127502,0.35720825,-2.078415,-0.15252686,-2.030568,-0.76767445,1.1920848
1570726762,0.48362732,8.306686,2.8532867,0.36039734,-1.9942627,-0.17810059,-2.0136244,-0.73194027,1.8210888
1570726762,-0.22685242,9.135071,7.842209,1.7889252,2.6385803,-1.5363007,-2.269175,0.75427246,9.248305
1570726762,4.3897705,7.0964203,-0.9720459,1.9156799,2.536316,-1.5437622,2.5748687,-2.1204786,-0.10195905
1570726762,4.3897705,7.0964203,-0.9720459,1.9156799,2.536316,-1.5437622,2.5748687,-2.1204786,-0.10195905
1570726763,-1.411377,10.739792,-0.90501404,0.7502899,-0.78305054,0.66026306,-1.970134,1.8161182,-0.052997947
1570726763,-1.411377,10.739792,-0.90501404,0.7502899,-0.78305054,0.66026306,-1.970134,1.8161182,-0.052997947
1570726763,-0.35794067,11.879425,1.1043243,-0.065704346,-0.48797607,0.08076477,-2.1770062,2.1734905,2.3145285
1570726763,-0.35794067,11.879425,1.1043243,-0.065704346,-0.48797607,0.08076477,-1.9862357,2.5155134,2.484262
1570726763,3.533249,17.76677,2.2014618,-0.20631409,-1.364685,-0.13973999,2.0621402,8.159228,3.499328
1570726763,3.533249,17.76677,2.2014618,-0.20631409,-1.364685,-0.13973999,2.0621402,8.159228,3.499328
1570726763,2.8844147,10.014938,2.5288696,-2.3272552,1.0374756,-0.11097717,1.9145832,1.0429544,3.2767901
1570726763,2.8844147,10.014938,2.5288696,-2.3272552,1.0374756,-0.11097717,1.9145832,1.0429544,3.2767901
1570726763,2.0254974,10.310623,4.029434,-3.2508392,0.8009949,0.43762207,0.52005255,0.7251282,2.5438817
1570726763,4.146759,13.040024,2.9502563,-3.166687,2.542694,0.6293793,2.2441788,3.6884003,1.7676575
1570726763,4.4448395,13.292603,2.4289246,-3.0761414,2.6204681,0.5622711,2.2441788,3.6884003,1.7676575
1570726763,-0.0688324,9.925156,0.9229584,-0.71658325,0.97036743,-1.3520203,-0.5888123,1.2811012,-5.2345934
1570726763,-0.30825806,10.048462,1.4778137,-0.73576355,1.076889,-1.4244537,-0.82776064,1.1818428,-3.661176
1570726763,0.40582275,7.811676,4.4621887,-2.7373962,-0.4112854,-1.5458984,0.076503634,-0.17731476,0.009217739
1570726763,0.25798035,7.4328003,3.4344788,-2.6755981,-0.4197998,-1.5746613,0.47640303,-0.3447094,0.2583294
1570726763,1.0791931,4.2718506,0.14485168,-2.2335205,-1.8909302,-1.6460266,1.7626858,-2.9438224,-5.3691363
1570726763,1.0791931,4.2718506,0.14485168,-2.2335205,-1.8909302,-1.6460266,1.7626858,-2.9438224,-5.3691363
1570726763,1.5424652,0.40342712,6.8330536,-1.522995,-2.1029205,-0.75653076,1.3051316,-6.1462173,-0.23722696
1570726763,1.5424652,0.40342712,6.8330536,-1.522995,-2.1029205,-0.75653076,1.3051316,-6.1462173,-0.23722696
1570726763,2.0105286,-0.37887573,6.8605804,0.86213684,-1.0408478,-0.36026,1.876261,-6.898674,0.43240166
1570726763,2.0105286,-0.37887573,6.8605804,0.86213684,-1.0408478,-0.36026,1.876261,-6.898674,0.43240166
1570726763,2.6904907,7.7931213,12.465408,2.2736206,1.0055237,0.35560608,1.8716515,-2.2640405,5.767574
1570726763,1.742981,12.318771,14.511261,1.8954468,1.2771606,0.32470703,2.029061,2.765818,7.5358295
1570726763,4.2383423,8.331223,3.49852,2.2224884,1.5040741,1.4347229,4.613665,1.4339619,-0.48634577
1570726763,3.7774506,7.503433,3.5440216,2.2565765,1.4976807,1.4464264,4.613665,1.4339619,-0.48634577
1570726763,2.5330658,4.091095,4.598068,2.4813385,2.5352478,1.6019592,1.9737207,-3.6661148,0.30384302
1570726763,8.720276,19.612701,-14.991898,2.3428497,1.2878113,1.7276611,5.092454,7.8984146,-12.131796
1570726763,8.720276,19.612701,-14.991898,2.3428497,1.2878113,1.7276611,5.092454,7.8984146,-12.131796
1570726763,-2.1182709,10.375275,1.3299866,1.6046295,-1.4019775,0.7689209,-3.4117703,1.8800907,-0.4796691
1570726763,-2.1182709,10.375275,1.3299866,1.6046295,-1.4019775,0.7689209,-3.4117703,1.8800907,-0.4796691
1570726763,-2.7407684,8.276154,1.1528015,1.1231232,-1.2528381,0.6304474,-4.606506,-0.5256748,0.009156346
1570726763,0.12988281,6.028,2.5151062,0.48823547,-2.1391296,-0.16850281,-1.6966834,-2.8678427,2.104047
1570726763,0.12988281,6.028,2.5151062,0.48823547,-2.1391296,-0.16850281,-1.6966834,-2.8678427,2.104047
1570726764,-0.61231995,8.922592,2.9005737,0.039749146,-0.11300659,-0.65426636,-2.277572,-0.4360838,2.1578827
1570726764,-0.61231995,8.922592,2.9005737,0.039749146,-0.11300659,-0.65426636,-2.277572,-0.4360838,2.1578827
1570726764,3.989334,8.735245,2.7467499,2.2150269,2.8814545,-1.9453735,2.5594876,0.12390709,3.4867356
1570726764,3.989334,8.735245,2.7467499,2.2150269,2.8814545,-1.9453735,2.5594876,0.12390709,3.4867356
1570726764,6.4757233,7.202957,-2.5923157,1.1561584,1.5935516,-1.2827759,5.6233997,-1.1315079,-0.9315816
1570726764,0.43754578,9.208099,1.5119324,0.17930603,-0.8640137,0.17770386,0.7414511,0.6224308,0.64444876
1570726764,0.20889282,8.981247,-0.8265991,0.29968262,0.7594452,0.44508362,-0.71870553,-0.2983179,0.102722585
1570726764,0.38067627,8.981247,-0.8265991,0.29968262,0.7594452,0.44508362,-0.71870553,-0.2983179,0.102722585
1570726764,0.7799072,9.456497,-1.8190002,0.35932922,0.54000854,0.50579834,-0.1064437,0.35894585,-0.9956812
1570726764,0.7445984,9.2901,-1.5825653,0.44882202,-0.35269165,0.67518616,-0.3591869,-0.027825356,-1.1856883
1570726764,-1.4945831,12.169128,0.63027954,0.9239197,-1.3423157,0.36412048,-2.8037512,3.4210777,0.4214865
1570726764,2.0440521,14.935623,-2.3906097,-0.1605072,-1.009964,0.3343048,0.8647779,6.1968927,-1.3349724
1570726764,1.8429413,14.442429,-1.9123688,-0.18075562,-1.1345978,0.33216858,0.7905197,6.0491343,-1.2350043
1570726764,0.3537445,11.357498,0.596756,-0.48861694,-1.8749542,0.4908905,-0.8120618,2.5849333,1.6487176
1570726764,0.6464386,11.041458,1.6065063,-1.0052643,-1.7311401,0.6357727,-0.9463148,1.9762802,2.747096
1570726764,1.8016357,10.841537,2.9855652,-2.099289,-1.3220825,0.45787048,0.014310479,1.5874863,2.7695813
1570726764,1.7878723,10.9157715,3.250122,-2.1237946,-1.2943878,0.44615173,0.08551574,1.6912775,3.079233
1570726764,0.47525024,10.101135,1.8890228,-2.1259308,1.52005,0.14575195,-1.2995573,1.0623598,1.031056
1570726764,0.32800293,10.308243,1.2066803,-2.0758667,1.5243073,0.14575195,-1.2995573,1.0623598,1.031056
1570726764,0.344162,8.584412,-0.93074036,-1.780777,0.8531952,0.14468384,-1.4728141,0.2633276,-2.4308534
1570726764,0.33937073,6.2207336,-3.312973,-2.0460358,0.47821045,0.067977905,-1.6427059,-2.2005978,-5.490408
1570726764,0.041305542,5.503067,0.89123535,-1.0510712,-0.9641571,0.15426636,-1.904296,-3.4497633,-2.6295683
1570726764,-0.55126953,7.9822693,4.696228,-0.71125793,-0.80862427,-0.47424316,-2.3334675,-0.7767601,2.1203554
1570726764,-1.3706818,7.823059,3.6104584,-0.7506714,-0.18118286,-0.8140564,-2.8811765,-0.56897163,0.54008317
1570726764,2.142212,6.709152,0.006576538,-1.0766449,-1.1590881,-1.0420227,0.5509871,-1.5976353,-2.9320915
1570726764,2.142212,6.709152,0.006576538,-1.0766449,-1.1590881,-1.0420227,0.5509871,-1.5976353,-2.9320915
1570726764,2.7856598,5.7305145,1.6041107,-0.48435974,-1.617157,-0.7405548,1.433444,-2.4477072,-2.0618234
1570726764,2.7856598,5.7305145,1.6041107,-0.48435974,-1.617157,-0.7405548,1.433444,-2.4477072,-2.0618234
1570726764,2.7335815,4.74411,4.450226,0.66400146,-1.4648285,-0.72457886,1.5080069,-3.3456964,0.6269059
1570726764,2.7335815,4.74411,4.450226,0.66400146,-1.4648285,-0.72457886,1.5080069,-3.3456964,0.6269059
1570726764,1.7076569,4.6148224,6.1165924,1.2957001,-1.363617,-0.7767792,1.0028238,-3.8292265,2.3289323
1570726764,-1.5951385,8.443756,8.665207,2.0477753,-1.1835938,-0.031082153,-2.3296623,-1.6017733,6.0830526
1570726764,-2.5857391,16.506226,2.8945923,0.16119385,-2.366043,0.77319336,-4.3658857,8.07675,0.917403
1570726764,-0.4303589,12.41095,3.0939026,-0.332016,-2.5854797,0.42697144,-2.2837257,4.475321,0.80935454
1570726765,9.037506,10.621277,2.4438782,-0.64627075,0.39831543,0.47917175,7.008025,2.375967,-0.9405451
1570726765,9.037506,10.621277,2.4438782,-0.64627075,0.39831543,0.47917175,7.008025,2.375967,-0.9405451
1570726765,2.810791,5.8089294,-0.7757263,0.4520111,2.0718536,-0.14613342,1.093548,-3.2215347,-2.5870383
1570726765,2.810791,5.8089294,-0.7757263,0.4520111,2.0718536,-0.14613342,1.093548,-3.2215347,-2.5870383
1570726765,2.4564514,9.238632,-5.254669,-1.0436249,1.2952728,0.23309326,0.9005132,0.5215502,-7.799443
1570726765,2.3175812,9.037506,-3.3572693,-1.5336456,0.1053772,0.32151794,0.58270645,0.63777065,-6.618249
1570726765,0.7805023,9.4457245,2.0961304,0.56599426,-3.4259796,0.07118225,-1.3077469,0.83572865,-0.931
1570726765,0.7805023,9.4457245,2.0961304,0.56599426,-3.4259796,0.07118225,-1.3077469,0.83572865,-0.931
1570726765,-0.8445587,9.065048,4.055176,2.520752,-6.5823517,-0.27290344,-3.563533,0.7044239,0.8476751
1570726765,-0.8445587,9.065048,4.055176,2.520752,-6.5823517,-0.27290344,-3.563533,0.7044239,0.8476751
1570726765,1.4269409,8.168411,2.976593,1.0038147,-0.46879578,-0.522171,-1.1111526,-0.32397747,3.769693
1570726765,1.4832153,8.030151,2.7054443,0.9036865,-0.40275574,-0.55625916,-1.1111526,-0.32397747,3.769693
1570726765,0.9714508,8.189362,1.3000488,0.76200867,0.48780823,-0.5402832,-1.3336077,-0.51699924,2.8008614
1570726765,0.9714508,8.189362,1.3000488,0.76200867,0.48780823,-0.5402832,-1.3336077,-0.51699924,2.8008614
1570726765,0.87986755,7.562683,-0.9145813,0.7726593,-0.10874939,-0.0012664795,-1.1225076,-1.2464161,0.14153981
1570726765,0.87986755,7.562683,-0.9145813,0.7726593,-0.10874939,-0.0012664795,-1.1225076,-1.2464161,0.14153981
1570726765,0.06285095,9.619904,-1.790268,0.15161133,-1.9292755,0.34707642,-2.083639,0.7197771,-0.6577071
1570726765,0.0023956299,9.686935,-1.6526031,0.13563538,-2.0347443,0.34388733,-2.083639,0.7197771,-0.6577071
1570726765,-0.051467896,11.229401,4.8650208,0.720459,-2.4054565,-0.007659912,-1.9752159,2.7229252,6.0048256
1570726765,-0.051467896,11.229401,4.8650208,0.720459,-2.4054565,-0.007659912,-1.9752159,2.7229252,6.0048256
1570726765,-1.4963837,13.490128,2.0296783,0.063186646,-0.13537598,0.3843689,-3.2385879,3.2233696,6.625354
1570726765,-2.743164,14.022842,-5.6509094,-2.7480469,-1.4392548,0.47598267,-4.398719,5.5025434,-3.9362783
1570726765,-5.0038757,12.078751,-0.47883606,-3.3168945,-3.528244,0.5739746,-6.897826,3.4659176,-0.5938195
1570726765,-0.061050415,8.2282715,2.850296,-3.0974426,-3.2331696,-0.24839783,-2.4716918,-0.59026814,2.8352735
1570726765,-0.53570557,11.774078,4.8320923,-3.439392,0.40151978,-0.28248596,-2.0977204,2.0141983,3.5583541
1570726765,5.443817,14.817108,-2.7832642,-1.6103363,3.207428,0.13722229,2.2315903,5.359643,-0.83147764
1570726765,-3.2207947,11.414963,-2.3546906,-1.7988892,-3.4089355,-1.3370972,-3.7933168,2.5724306,-8.56976
1570726765,-3.2207947,11.414963,-2.3546906,-1.7903748,-3.608139,-1.3754578,-3.7933168,2.5724306,-8.56976
1570726765,-8.005615,13.409332,3.7373505,-1.9906311,-2.2041168,-2.0327148,-9.679377,3.954443,0.72792315
1570726765,-2.6946716,12.107483,-5.890335,-1.605011,-1.457367,-2.4535065,-3.679875,3.328167,-8.111187
1570726765,1.6202698,12.345108,-7.1053925,-2.54245,-4.326126,-2.3885193,0.0373694,3.841156,-10.805979
1570726765,3.8157654,8.244431,3.712204,-2.1110077,-3.2874908,-2.4556274,3.762473,0.4305048,-0.3979268
1570726765,3.6942596,8.244431,3.712204,-2.1110077,-3.2874908,-2.4556274,3.7767668,0.37606525,-0.7236552
1570726766,0.9235687,5.4563904,-0.04548645,-1.7104797,-3.2470093,-1.748291,1.3430701,-1.6363258,-5.1380277
1570726766,0.9235687,5.4563904,-0.04548645,-1.7104797,-3.2470093,-1.748291,1.3430701,-1.6363258,-5.1380277
1570726766,1.1605835,4.071335,4.3777924,-1.6454926,-3.4067993,-1.4734497,0.38186115,-3.0286055,-2.6274285
1570726766,2.505539,2.7808685,6.4649506,-1.1054077,-2.6781616,-1.4841156,2.2914379,-3.8449187,-0.1427207
1570726766,0.296875,2.5360565,7.1682434,-0.24147034,-2.6707,-1.4372406,-0.15635145,-4.01816,0.6713996
1570726766,0.11073303,1.9590607,8.153458,0.26239014,-2.366043,-1.3232574,-0.6114333,-4.5924916,1.7869253
1570726766,1.8153992,6.7767944,10.155609,1.7441711,0.38980103,-0.6851654,1.0451698,-1.9195371,4.3610435
1570726766,1.8153992,6.7767944,10.155609,1.7441711,0.38980103,-0.6851654,1.0451698,-1.9195371,4.3610435
1570726766,-0.10354614,12.817963,10.579376,2.3961182,1.0300293,-0.63082886,0.6888354,3.9123712,3.8568025
1570726766,-0.37768555,16.909042,1.6693573,2.1628265,2.6929016,0.16279602,-1.5696229,9.3621025,-1.0187407
1570726766,4.6818542,6.5439453,5.5946503,2.1447144,1.5285645,0.1894226,5.098438,-0.7273569,0.27072334
1570726766,0.29508972,4.9799347,1.414978,2.4525757,2.6716003,1.0714569,0.45487157,-3.7015772,-2.5047286
1570726766,0.8206177,7.899063,0.80804443,2.6997223,2.5011597,1.5923767,0.63977605,-1.7084055,-1.2938769
1570726766,3.1292267,12.247543,-4.5603485,2.232071,0.97676086,1.8160858,2.6147447,3.4322033,-6.6215324
1570726766,-0.72784424,10.778091,-3.9228973,0.8983612,-1.2720184,1.5156708,-0.7169674,1.1258879,-5.603199
1570726766,-1.6274567,10.424957,3.3973694,0.24534607,-3.5985565,0.945755,-3.6749966,1.8600225,2.2198553
1570726766,-1.6274567,10.424957,3.3973694,0.24534607,-3.5985565,0.945755,-3.6749966,1.8600225,2.2198553
1570726766,-0.4554901,9.354141,0.3818817,0.15586853,-3.4621887,0.24694824,-2.7437112,0.30932713,-0.23682022
1570726766,0.7559662,10.199295,6.040573,0.6331024,-2.1274261,-1.0899658,-0.5622301,1.6097212,4.506559
1570726766,-0.11730957,9.80365,6.4601593,1.4949036,0.31629944,-1.8303223,-0.98603845,0.67255116,7.0207067
1570726766,0.46388245,7.3986816,0.8140259,2.1617584,1.1472015,-1.3445587,-1.7873207,-1.8710365,1.6826069
1570726766,5.300766,5.136154,2.7503357,0.8056793,0.26091003,-0.3165741,5.0123477,-3.4235735,3.4521537
1570726766,5.300766,5.136154,2.7503357,0.8056793,0.26091003,-0.3165741,5.0123477,-3.4235735,3.4521537
1570726766,1.3251953,7.1101837,-2.090744,1.0187378,-0.1641388,0.49195862,0.9946215,-2.4638252,-0.77377343
1570726766,-1.043869,10.596741,0.89901733,0.3955536,-0.9929199,0.9660034,-2.1776586,1.4560995,2.2549477
1570726766,-0.98760986,10.677536,0.9211731,0.36039734,-0.9918518,0.97772217,-2.1776586,1.4560995,2.2549477
1570726766,-0.81881714,13.035233,0.2340393,0.032302856,-1.7758789,0.7934265,-1.8569027,3.409298,1.7301078
1570726766,-2.015915,18.85733,3.838501,-0.6622467,-2.3127747,0.3918152,-3.9797592,9.713063,4.846713
1570726766,1.9859924,14.059952,5.254074,-1.6241913,-0.87680054,-0.16210938,0.663555,5.567547,6.107454
1570726766,2.6312256,8.331818,2.7730865,-2.5019684,-0.15667725,0.4131317,1.4445361,-0.72576714,2.7526686
1570726766,2.5989075,8.331223,3.1004944,-2.6010284,-0.08850098,0.47384644,1.4445361,-0.72576714,2.7526686
1570726766,0.75357056,11.526886,-2.4833832,-2.1216736,1.5296326,-0.27503967,0.38942766,3.2279654,-3.5509582
1570726766,0.34117126,11.235992,-2.2996368,-2.1056824,1.4199066,-0.29101562,0.38942766,3.2279654,-3.5509582
1570726766,-0.79907227,9.727646,-1.2120667,-1.7967682,1.057724,-0.37516785,-1.6501285,0.99428463,-3.6407707
1570726767,-4.106659,9.634262,2.913147,-0.761322,0.84254456,-1.3786469,-4.12313,1.0830841,0.25563025
1570726767,-4.7028046,9.3667145,-7.028183,-1.7626648,0.6795502,-1.666275,-4.8180904,1.7091818,-5.2620497
1570726767,3.2243958,7.363968,2.3379364,-2.6319275,-1.9090424,-1.621521,3.287432,-1.0666943,-0.943275
1570726767,2.5085297,6.6103973,1.5131378,-2.511551,-1.9868011,-1.7472229,2.674341,-1.3917456,-2.4669738
1570726767,0.9499054,4.7489014,2.2631226,-2.0108795,-1.9591064,-1.6897125,1.4347625,-2.7553716,-2.5424314
1570726767,0.4303589,4.1168365,2.2954407,-1.9256592,-1.9868011,-1.5448303,1.1025573,-3.0912585,-3.083476
1570726767,0.4734497,2.5635986,5.13855,-1.6082153,-2.2904053,-0.9823761,0.34970522,-4.3149843,-2.1931868
1570726767,1.3162079,1.217453,5.276825,-0.53974915,-1.7449951,-0.582901,1.2985888,-5.754205,-0.3533969
1570726767,2.0655975,0.91218567,8.608353,1.932724,-0.2664032,-0.0811615,1.8791444,-6.2321057,2.695054
1570726767,2.0386658,0.8744812,8.8759,2.0222168,-0.16732788,-0.0342865,1.8791444,-6.2321057,2.695054
1570726767,3.154953,4.782425,10.201691,2.2512512,0.9650421,0.26078796,2.5202503,-4.5443974,4.4947863
1570726767,3.6613312,10.144836,6.472122,2.8254242,1.5466766,0.55693054,3.829131,2.2609138,2.6228547
1570726767,2.652176,13.47995,6.119583,3.4304962,2.3892975,1.3260651,2.9835777,3.426591,0.9057627
1570726767,2.8754425,13.12561,-0.20410156,2.3385925,3.0518951,1.3537598,2.4172893,7.2989655,-3.877106
1570726767,1.328186,3.8869934,0.09516907,1.6962433,1.6617279,1.484787,0.7856211,-5.208724,-1.8060439
1570726767,1.3856506,4.0234528,-0.14544678,1.6664124,1.6595917,1.531662,0.7856211,-5.208724,-1.8060439
1570726767,5.725128,13.342285,-11.505341,1.0581512,0.9277649,1.7500305,2.0483868,-1.6078548,-5.6126513
1570726767,1.8028412,14.462769,2.82576,1.149765,-3.547409,1.0608063,0.21459758,5.992528,1.1994568
1570726767,-1.6693573,9.296082,2.8131866,1.3606873,-2.3841553,0.3183136,-3.0662832,0.8381815,2.2682958
1570726767,-2.3463135,8.127716,2.621048,1.1252594,-1.551117,0.30340576,-4.143457,-0.6425352,1.9134421
1570726767,0.111328125,8.038528,2.4612427,0.93670654,-0.7819824,0.09248352,-2.1698623,-0.9306803,2.2665699
1570726767,-1.0085602,8.415024,0.6643982,0.61286926,-0.7681427,-0.43055725,-2.9508576,-0.71793365,0.41778833
1570726767,0.47644043,7.373535,4.130005,2.2853394,3.1158142,-1.9166107,-2.729497,-1.8802986,4.5501685
1570726767,0.47644043,7.373535,4.130005,2.2853394,3.1158142,-1.9166107,-2.729497,-1.8802986,4.5501685
1570726767,2.2308044,7.483673,-0.09397888,0.4743805,0.34613037,0.5558777,2.208407,-3.4478178,1.5674306
1570726767,2.2308044,7.483673,-0.09397888,0.4743805,0.34613037,0.5558777,2.208407,-3.4478178,1.5674306
1570726767,-2.9466705,8.880096,0.25138855,0.5074005,0.044662476,0.52604675,-3.9119685,-0.19765854,1.874527
1570726767,-2.6635437,9.204514,-0.11013794,0.31459045,0.0126953125,0.6070099,-3.7673883,0.040460587,1.5023264
1570726767,-0.90979004,10.714645,-0.59317017,0.02909851,-0.056549072,0.66026306,-2.2556973,1.4428473,1.0278208
1570726767,0.9319458,14.411301,1.0109558,0.18782043,-1.1132812,0.305542,-0.25833476,5.106576,1.6553226
1570726767,1.3114166,15.9687195,1.8124084,-0.013504028,-1.0770721,0.008331299,0.11770129,6.8632584,3.7876031
1570726767,1.9542694,13.444046,1.4855957,-1.3951569,-1.3497772,-0.05026245,0.9482311,5.454303,2.5583444
1570726767,2.0650024,10.612305,2.6725311,-1.9181976,-1.3582916,0.089279175,1.1775297,1.6593933,3.3001642
1570726768,2.98378,12.426498,5.2313232,-3.037796,0.7850189,0.46958923,1.1078792,2.3574162,4.9789352
1570726768,2.98378,12.426498,5.2313232,-3.037796,0.7850189,0.46958923,1.1078792,2.3574162,4.9789352
1570726768,5.265442,12.922104,1.7304077,-2.860962,1.9877014,-0.0055236816,4.010174,3.85186,0.96529174
1570726768,3.0430298,11.465836,-1.7597351,-2.3411102,1.6723785,-0.37516785,1.8680109,2.1156588,-1.9323741
1570726768,0.82240295,9.6983185,-0.096969604,-1.5613403,1.1440125,-0.5967407,-0.08306366,0.6635523,-2.6608803
1570726768,-1.8752594,11.106705,0.49440002,-1.3642578,0.7232361,-1.3136597,-1.6283278,2.3393517,-2.9331858
1570726768,-1.2503662,8.933365,0.49320984,-2.6287384,0.36210632,-1.3871765,-2.335711,0.3193779,-3.6354957
1570726768,2.6264343,5.444412,2.7886505,-2.1514893,-0.85975647,-1.6588135,3.0494432,-2.6163988,-2.181363
1570726768,2.6264343,5.444412,2.7886505,-2.1514893,-0.85975647,-1.6588135,3.0494432,-2.6163988,-2.181363
1570726768,0.72184753,2.9095612,1.359314,-1.5485535,-1.1963806,-1.7078094,1.4515085,-4.254467,-3.7220144
1570726768,-0.5381012,-0.54707336,3.28125,-1.3152618,-2.016632,-0.7086029,0.25345534,-7.359974,-3.0956511
1570726768,0.82899475,-1.1198883,5.297165,-0.76239014,-1.6885376,-0.2111206,0.88805085,-8.1477165,-1.0431333
1570726768,2.0183105,-2.56958,9.560638,1.4842529,-0.31967163,0.5888977,2.0784874,-9.623591,3.4321103
1570726768,3.3871918,1.1127014,10.409393,2.0531006,0.930954,0.9329834,3.0776339,-7.424438,4.9356656
1570726768,2.0979156,18.400635,0.7008972,2.8051758,0.8990021,1.0490875,1.3532023,9.495342,-2.839375
1570726768,2.0979156,18.400635,0.7008972,2.8051758,0.8990021,1.0490875,1.3532023,9.495342,-2.839375
1570726768,3.08313,10.709259,2.7838593,1.6429749,1.9099274,1.0182037,3.2541237,4.13402,-1.6253982
1570726768,1.2527618,7.0168,2.8323364,2.4770813,2.124054,1.6104889,1.0076393,-2.0370789,-0.13913012
1570726768,1.2527618,7.0168,2.8323364,2.4770813,2.124054,1.6104889,1.0076393,-2.0370789,-0.13913012
1570726768,1.9662323,17.047913,-6.2135468,0.75561523,-0.10661316,1.2429657,5.0961328,10.669348,-17.17234
1570726768,1.9662323,17.047913,-6.2135468,0.75561523,-0.10661316,1.2429657,5.0961328,10.669348,-17.17234
1570726768,-1.4652557,13.49971,0.5057678,1.038971,-1.8344727,1.1918335,-2.4267535,4.896371,-1.33031
1570726768,-0.912796,8.428192,1.0001831,0.75668335,-1.683197,0.6847687,-3.5094004,-0.5035505,0.9947072
1570726768,-0.912796,8.428192,1.0001831,0.75668335,-1.683197,0.6847687,-3.5094004,-0.5035505,0.9947072
1570726768,0.29388428,8.652054,2.858078,0.51911926,-1.7567139,-0.30699158,-2.2090957,-0.5416069,2.0453632
1570726768,0.29388428,8.652054,2.858078,0.51911926,-1.7567139,-0.30699158,-2.2090957,-0.5416069,2.0453632
1570726768,0.74938965,9.051285,5.2744293,0.69595337,-0.30474854,-0.95040894,-1.3108609,-0.32946396,3.740502
1570726768,-0.5321045,7.2436523,3.1088715,2.0616302,2.8186035,-1.6705322,-2.210403,-1.4221163,4.266548
1570726768,4.639969,4.2365417,-1.5759888,0.8184662,1.5019379,-0.54348755,4.4271574,-4.3494062,-0.5921053
1570726768,4.639969,4.2365417,-1.5759888,0.8184662,1.5019379,-0.54348755,4.4271574,-4.3494062,-0.5921053
1570726768,-2.6695404,9.150635,1.905777,0.69062805,-0.6978302,0.594223,-3.4938464,0.15419292,2.9718838
1570726768,-2.6695404,9.150635,1.905777,0.69062805,-0.6978302,0.594223,-3.4938464,0.15419292,2.9718838
1570726768,0.5913696,12.564774,0.9528961,0.16119385,-0.13537598,0.43762207,-0.7811787,3.0792646,2.4217353
1570726768,0.47465515,14.803345,0.10354614,0.17184448,-0.38996887,0.28315735,-0.7227775,5.3413277,1.7229848
1570726769,1.719635,15.557526,1.3862457,-0.26811218,-0.85549927,0.07543945,0.14655936,6.7166204,2.547876
1570726769,2.803009,12.115265,2.9029694,-1.6433563,-0.81074524,-0.019363403,1.4298102,3.2662868,3.7615952
1570726769,2.929306,10.705078,2.9335022,-2.084381,-0.62753296,0.037094116,1.77118,1.7978096,3.3438993
1570726769,2.4552612,10.45369,2.7341766,-2.558426,0.49525452,0.32470703,1.2210766,1.2810488,2.426197
1570726769,3.16214,11.364075,1.5873566,-2.226059,1.6745148,-0.041748047,2.4116068,2.806983,0.31181502
1570726769,3.16214,11.364075,1.5873566,-2.226059,1.6745148,-0.041748047,2.4116068,2.806983,0.31181502
1570726769,0.53330994,8.470688,-0.9038086,-2.1237946,1.390091,-0.022567749,-0.7451334,-0.4593277,-3.4066877
1570726769,-0.07901001,10.656586,0.5805969,-1.4750519,0.21936035,-0.30699158,-0.92711425,0.86648464,-2.6592839
1570726769,2.9987335,7.6674347,1.8130035,-2.8119507,-0.58384705,-1.1954193,1.5661905,-0.98266506,-5.135721
1570726769,2.9987335,7.6674347,1.8130035,-2.8119507,-0.58384705,-1.1954193,1.5661905,-0.98266506,-5.135721
1570726769,2.364273,7.0646973,1.3712769,-2.3986359,-0.820343,-1.6609497,2.4529696,-1.1051369,-3.0496087
1570726769,0.06643677,5.2032013,-0.0077819824,-1.8031464,-1.2251434,-1.888916,0.5834477,-2.178999,-4.9455976
1570726769,-0.087387085,4.9943085,0.38786316,-1.841507,-1.3391266,-1.8228607,0.38635826,-2.511269,-5.0867805
1570726769,0.5297241,0.44651794,4.4969025,-1.2279053,-2.0752258,-0.7373657,0.54339325,-6.227736,-2.0936527
1570726769,0.5297241,0.44651794,4.4969025,-1.2279053,-2.0752258,-0.7373657,0.54339325,-6.227736,-2.0936527
1570726769,1.8028412,-0.3148346,8.079239,0.96333313,-0.9194031,-0.06304932,1.6643718,-7.136171,1.5761805
1570726769,2.632431,8.822632,10.631454,2.0456543,1.4454803,0.420578,2.1134934,-0.49920893,5.498462
1570726769,2.632431,8.822632,10.631454,2.0456543,1.4454803,0.420578,2.1134934,-0.49920893,5.498462
1570726769,3.2746735,14.440628,5.9154663,2.7348785,0.44093323,0.46426392,4.33152,6.207731,-0.27847958
1570726769,1.9973602,6.9994507,2.6174622,2.0989075,2.5267181,1.1630707,1.6921601,0.019104004,-1.3655949
1570726769,1.9973602,6.9994507,2.6174622,2.0989075,2.5267181,1.1630707,1.8077148,-0.792202,-1.043396
1570726769,2.7449493,7.9188232,1.6196747,2.1713562,2.1197968,2.4616241,1.343709,-1.3451223,-0.7120929
1570726769,2.7449493,7.9188232,1.6196747,2.1713562,2.1197968,2.4616241,1.343709,-1.3451223,-0.7120929
1570726769,3.6164398,13.044205,-8.034348,0.847229,-1.1026306,2.0664215,2.1182477,4.0633955,-8.842878
1570726769,3.6164398,13.044205,-8.034348,0.847229,-1.1026306,2.0664215,2.1182477,4.0633955,-8.842878
1570726769,1.7381897,9.5325165,-0.4010315,-0.14241028,-3.923462,1.3675995,-1.0214925,0.7157097,-3.663941
1570726769,1.8207855,10.253174,4.529831,0.36360168,-4.15036,0.7476196,-0.6915138,1.4721193,2.0731468
1570726769,1.114502,9.844955,3.1992493,1.6451111,-2.0699005,-0.8002167,-1.5344796,1.1193209,3.7415822
1570726769,-0.62428284,8.414429,-1.2755127,0.9313812,-1.4562988,-1.1709137,-2.1920881,-0.121953964,-1.5715165
1570726769,-0.26515198,9.168594,5.6245728,1.468277,0.99061584,-1.5533447,-1.931845,0.17276764,5.972725
1570726769,-0.45729065,9.057266,5.3265076,1.581192,1.2015381,-1.6364441,-1.931845,0.17276764,5.972725
1570726769,-0.79966736,6.6588745,3.2662964,2.2288666,2.7174072,-2.0028992,-3.0522716,-2.4743671,4.0053
1570726769,4.265274,6.783371,2.9143372,1.694107,4.2343445,-1.3914337,1.3507605,-2.4801264,5.615407
1570726769,3.861847,6.408081,-3.4440613,0.38064575,2.1165924,-0.7032776,6.374738,-1.724185,-2.851567
1570726770,-0.89004517,7.890091,-3.178894,0.30075073,-1.0983734,0.77957153,-1.8078709,-1.7214622,-3.0030408
1570726770,0.1490326,11.456848,0.73202515,0.13882446,-0.6008911,0.24694824,-0.81055737,2.7378645,2.4615688
1570726770,1.585556,12.799408,0.9044037,0.27198792,-1.3913269,0.27783203,0.3811046,3.4171162,2.680676
1570726770,1.585556,12.799408,0.9044037,0.27198792,-1.3913269,0.27783203,0.3811046,3.4171162,2.680676
1570726770,2.2834625,14.468155,1.1031342,-1.3685303,-1.1367188,0.19581604,1.0246243,6.0225153,2.4408095
1570726770,2.4893646,14.17247,1.1240845,-1.4335022,-1.0834656,0.19793701,1.0246243,6.0225153,2.4408095
1570726770,3.6493683,9.917984,2.9239197,-3.1070404,1.1450806,0.96173096,1.8153951,0.3030634,3.1690893
1570726770,3.6493683,9.7270355,2.8987732,-3.1453857,1.1685028,0.93403625,2.0010595,0.58811855,2.9888673
1570726770,2.7030487,11.519699,2.1470032,-2.956833,0.42175293,0.24269104,0.78181744,2.4036455,0.70558214
1570726770,0.9499054,11.896194,0.6775665,-2.8108978,0.3290863,0.100997925,-0.065627456,2.6068897,0.1521411
1570726770,0.104141235,8.961502,4.2120056,-1.2651978,0.6571808,-0.29740906,-1.738571,0.19092655,0.5420399
1570726770,0.104141235,8.961502,4.2120056,-1.2651978,0.6571808,-0.29740906,-1.738571,0.19092655,0.5420399
1570726770,-4.4065247,6.395508,1.6454163,-1.5166016,-0.11833191,-0.3687744,-7.3982973,-2.8185806,-0.9447644
1570726770,1.115097,8.285141,-1.8992004,-2.543518,-0.8757324,-0.022567749,-0.20946085,0.46141052,-6.781424
1570726770,3.7331543,6.7660065,-0.30166626,-2.3506927,-0.76600647,-0.88116455,2.132578,-0.3000884,-5.2236753
1570726770,3.7331543,6.7660065,-0.30166626,-2.3506927,-0.76600647,-0.88116455,2.132578,-0.3000884,-5.2236753
1570726770,4.814743,4.034836,2.0368652,-2.3016968,-1.042984,-1.1719818,3.2948108,-2.770965,-4.1226654
1570726770,5.2582703,3.0011292,3.6080627,-1.9224548,-0.88319397,-1.5437622,4.6873937,-4.080312,-2.056519
1570726770,2.2086487,0.9499054,5.0176544,-0.5237732,-0.41233826,-0.7107239,1.0431582,-5.9546866,-1.540175
1570726770,2.2194214,0.9499054,5.0176544,-0.5237732,-0.41233826,-0.7107239,1.0431582,-5.9546866,-1.540175
1570726770,2.3044128,2.7850494,6.5720825,0.53404236,-0.23124695,-0.08648682,1.2770581,-4.478788,0.25454807
1570726770,2.659958,4.325119,7.4405823,0.7034149,-0.2110138,0.042419434,1.6746596,-2.9136934,1.0325713
1570726770,2.4337006,12.977768,15.801132,0.75668335,-0.4890442,0.07650757,1.1289366,3.317512,6.2441854
1570726770,3.0023346,6.3266754,7.5561066,1.6536255,-0.19290161,-0.17596436,1.0559815,-1.5706682,0.31956625
1570726770,2.2828674,6.882126,4.353256,2.0648193,0.61457825,-0.15785217,1.7400267,0.4216137,0.9256983
1570726770,4.122223,7.929596,9.008789,2.8126373,2.6044922,-0.47956848,4.192913,-0.37351513,4.9298496
1570726770,1.2294159,10.496185,-0.8547363,2.8829498,2.1485596,-1.5533447,2.608907,2.2671585,-3.9818509
1570726770,1.2294159,10.496185,-0.8547363,2.8829498,2.1485596,-1.5533447,2.608907,2.2671585,-3.9818509
1570726770,-2.0171204,9.866501,-1.3928223,2.3822784,1.5541382,-0.8161926,-1.1409698,1.3100939,-4.474679
1570726770,-2.6156616,8.749603,0.3645172,0.8461609,-0.1641388,0.48023987,-1.8204057,-0.020479202,-2.2401633
1570726770,-2.6378174,8.629898,1.0325012,0.7779846,-0.08850098,0.5100708,-1.7934058,-0.28259754,-1.2467476
1570726770,-2.0440521,11.981781,1.1845245,0.43070984,1.7735748,1.4933014,-2.3463588,2.3832579,-0.9158069
1570726770,-2.0440521,11.981781,1.1845245,0.43070984,1.7735748,1.4933014,-2.3463588,2.3832579,-0.9158069
1570726771,-2.3780365,8.633484,1.924942,1.3819885,-0.66267395,0.7316437,-2.7860913,-0.6199932,0.91512555
1570726771,-2.3780365,8.633484,1.924942,1.3819885,-0.66267395,0.7316437,-2.7860913,-0.6199932,0.91512555
1570726771,-1.0253143,8.006805,2.5552063,0.80781555,0.77542114,0.004058838,-1.2502984,-1.1500235,2.4004755
1570726771,-1.0253143,8.006805,2.5552063,0.80781555,0.77542114,0.004058838,-1.2502984,-1.1500235,2.4004755
1570726771,0.017959595,8.757385,1.3581085,0.7034149,1.3943481,-0.42204285,-0.051146403,-0.39331722,1.5807314
1570726771,0.017959595,8.757385,1.3581085,0.7034149,1.3943481,-0.42204285,-0.051146403,-0.39331722,1.5807314
1570726771,-0.2735443,10.104721,-0.33638,0.2506714,1.901413,0.37158203,-0.62164533,0.73647404,0.34128517
1570726771,-0.2735443,10.104721,-0.33638,0.2506714,1.901413,0.37158203,-0.62164533,0.73647404,0.34128517
1570726771,-0.6751709,11.155777,-0.43933105,0.26133728,-0.27279663,0.6304474,-1.2207932,1.9162674,-0.025708288
1570726771,-0.40881348,11.294052,-0.41778564,0.26878357,-0.3718567,0.6378937,-1.2207932,1.9162674,-0.025708288
1570726771,1.9081726,12.558792,0.8930359,-0.17329407,0.37808228,-0.63508606,1.0460827,2.4750547,1.0153079
1570726771,2.0284882,12.86525,0.6458435,-0.1988678,0.43347168,-0.7075348,1.2517638,3.1185493,1.3737522
1570726771,1.9219513,9.03212,0.36631775,-0.43855286,1.26651,-1.3647919,2.01991,0.6012783,2.818963
1570726771,2.66893,9.096771,0.9181824,-0.46199036,1.3613281,-1.3743896,1.8165112,-0.13754463,0.68636227
1570726771,3.8528748,11.568787,8.614929,-0.71551514,1.2068634,-1.6982269,1.585126,1.9340191,1.3059407
1570726771,3.8528748,11.568787,8.614929,-0.71551514,1.2068634,-1.6982269,5.437751,2.6296778,7.4185414
1570726771,-5.5485687,9.8688965,3.4051514,-1.0926208,-0.23657227,-1.4351044,-3.4081135,0.8594942,1.0961368
1570726771,-5.898117,9.6642,3.8456879,-1.0596008,-0.06187439,-1.4148712,-3.683426,0.743371,2.632689
1570726771,-3.2644958,9.600754,1.8453369,-0.378891,0.47288513,-0.6095276,-0.95365024,0.17384529,0.977994
1570726771,-3.213623,9.670181,1.948288,-0.34373474,0.44732666,-0.6052704,-0.95365024,0.17384529,0.977994
1570726771,-0.95947266,8.545502,-0.6542206,0.9505615,1.3719788,0.2948761,-0.31770802,-0.5956583,0.26332647
1570726771,-0.95947266,8.545502,-0.6542206,0.9505615,1.3719788,0.2948761,-0.31770802,-0.5956583,0.26332647
1570726771,-0.4411316,7.7703857,-0.8547363,0.43710327,-0.41233826,-0.744812,2.5869875,-0.8880091,-0.5992748
1570726771,-0.4411316,7.7703857,-0.8547363,0.43710327,-0.41233826,-0.744812,2.5869875,-0.8880091,-0.5992748
1570726771,-3.7840424,5.85083,-0.106536865,0.3305664,0.2353363,-0.44548035,-0.73147273,-2.7715845,-0.11156525
1570726771,-3.7840424,5.85083,-0.106536865,0.3305664,0.2353363,-0.44548035,-0.73147273,-2.7715845,-0.11156525
1570726771,-3.9426575,5.841858,-0.015563965,-0.15945435,0.2619629,1.5582886,-1.8824399,-3.770895,0.4754603
1570726771,-3.9426575,5.841858,-0.015563965,-0.15945435,0.2619629,1.5582886,-1.8824399,-3.770895,0.4754603
1570726771,0.03591919,6.6708374,-0.38426208,0.78544617,0.6848755,2.4871979,0.8254615,-1.8056316,1.0575898
1570726771,0.03591919,6.6708374,-0.38426208,0.78544617,0.6848755,2.4871979,0.8254615,-1.8056316,1.0575898
1570726771,0.87927246,8.408432,-2.7976227,0.25387573,-2.0187683,2.3668213,0.29155374,-1.0464249,-2.838975
1570726771,0.87927246,8.408432,-2.7976227,0.25387573,-2.0187683,2.3668213,0.29155374,-1.0464249,-2.838975
1570726772,2.260727,9.418793,2.5725708,-0.17436218,0.1522522,2.2400513,0.7491287,0.43869114,4.1687818
1570726772,2.260727,9.418793,2.5725708,-0.17436218,0.1522522,2.2400513,0.7491287,0.43869114,4.1687818
1570726772,6.2913666,5.901108,2.3511047,0.2240448,-1.21875,2.5084991,3.0701473,-2.574109,3.7124794
1570726772,6.2913666,5.901108,2.3511047,0.2240448,-1.21875,2.5084991,3.0701473,-2.574109,3.7124794
1570726772,4.491516,11.666351,4.542404,0.46266174,-1.0791931,3.3287506,0.602128,3.9182425,3.4185023
1570726772,4.491516,11.666351,4.542404,0.46266174,-1.0791931,3.3287506,0.602128,3.9182425,3.4185023
1570726772,5.495285,6.9713135,-3.538025,-0.100860596,-1.1612244,0.88822937,1.2020068,-1.1602135,-2.965489
1570726772,5.495285,6.9713135,-3.538025,-0.100860596,-1.1612244,0.88822937,1.2020068,-1.1602135,-2.965489
1570726772,7.523773,6.1417236,1.8800507,0.33270264,3.3640137,0.6496124,1.4970784,-1.8285913,3.03932
1570726772,7.523773,6.1417236,1.8800507,0.33270264,3.3640137,0.6496124,1.4970784,-1.8285913,3.03932
1570726772,6.3075256,9.332596,-0.81762695,1.0272522,1.3123169,0.22776794,1.4116716,2.8319101,-0.7041487
1570726772,6.3075256,9.332596,-0.81762695,1.0272522,1.3123169,0.22776794,1.4116716,2.8319101,-0.7041487
1570726772,5.459976,7.337036,-1.9626465,0.79289246,1.9120636,-0.5498657,0.10097265,0.13109064,-1.2413871
1570726772,3.6774902,9.106949,-4.392166,1.5684052,2.445755,-1.1869049,-1.3800201,2.2674446,-2.6455598
1570726772,3.6774902,9.106949,-4.392166,1.5684052,2.445755,-1.1869049,-1.3061223,1.7985148,-3.911146
1570726772,2.1398163,7.3591766,-7.435791,3.5061188,0.8095093,-0.99942017,-2.7558384,-0.38823986,-7.07962
1570726772,2.6910858,6.2434845,-7.674011,3.2738953,-0.6712036,-1.2465515,-1.7054915,-1.6351075,-6.0193653
1570726772,2.6910858,6.2434845,-7.674011,3.2738953,-0.6712036,-1.2465515,-1.7054915,-1.6351075,-6.0193653
1570726772,3.5619812,6.044754,-6.0298004,3.2738953,-1.2666779,-1.4191284,-0.7287283,-1.727612,-4.034785
1570726772,2.7060394,5.0116577,-5.3342743,3.3282318,-1.0461731,-1.5512238,-0.6622138,-2.6433334,-1.3669887
1570726772,3.9773712,4.225174,-3.297409,2.7455292,-0.88531494,-0.711792,1.120424,-2.7533774,1.6366458
1570726772,3.9773712,4.225174,-3.297409,2.7455292,-0.88531494,-0.711792,1.120424,-2.7533774,1.6366458
1570726772,3.0777435,4.596863,-5.3157196,2.0509796,-0.6424408,0.46533203,0.23855591,-1.9309654,0.020745277
1570726772,4.380783,4.8488617,-3.7726593,2.1500397,-0.38890076,0.49835205,1.4244714,-1.3800135,2.035462
1570726772,5.1331635,5.4539948,-6.498459,-0.025222778,2.0558777,0.17024231,1.2418551,-0.1939497,-1.4676042
1570726772,5.1331635,5.4539948,-6.498459,-0.025222778,2.0558777,0.17024231,1.2418551,-0.1939497,-1.4676042
1570726772,5.648514,5.2839966,-6.7845764,0.786499,-0.27705383,-0.8108673,2.3601851,-0.33912802,-1.5041428
1570726772,5.648514,5.2839966,-6.7845764,0.786499,-0.27705383,-0.8108673,2.3601851,-0.33912802,-1.5041428
1570726772,4.2275543,4.914093,-4.1365814,1.1092834,0.27156067,-0.39328003,0.8599868,-0.71232843,1.6893167
1570726772,5.604828,5.2582703,-5.5521545,0.9122009,1.868393,0.050933838,1.2941349,-0.16224384,2.4634376
1570726772,6.361389,4.688446,-7.7661896,-0.14241028,0.21083069,-0.4699707,2.4533086,-0.5450964,-1.7385235
1570726772,5.617401,4.5795135,-5.696411,-0.09233093,-0.33351135,-0.24520874,1.5879316,-0.87933254,-0.08357239
1570726772,6.1961975,4.092285,-6.025009,0.7811737,0.30776978,0.4855652,2.2417426,-1.0438929,2.3335953
1570726772,6.6750336,6.34404,-8.760986,-0.18501282,-0.65948486,-0.015106201,2.3973799,0.8775883,-3.3781972
1570726773,4.858429,4.098282,-1.7633362,-0.06463623,0.34931946,-0.45292664,0.88358545,-1.074132,5.815897
1570726773,5.2564697,4.707596,-4.594467,-0.3565216,0.5378723,-0.18447876,1.255754,-0.6928725,0.96087646
1570726773,4.775238,4.7722473,-2.9981384,-0.79434204,2.0718536,0.030700684,0.065626144,-0.71872616,2.2292008
1570726773,4.775238,4.7722473,-2.9981384,-0.79434204,2.0718536,0.030700684,0.065626144,-0.71872616,2.2292008
1570726773,8.511383,6.0058594,-0.7344208,-1.6955566,4.2194214,-0.47850037,3.037531,-0.026875973,3.103581
1570726773,8.511383,6.0058594,-0.7344208,-1.6955566,4.2194214,-0.47850037,3.037531,-0.026875973,3.103581
1570726773,7.6782074,6.4344177,-3.1669312,-3.469223,6.3861694,-0.9770355,1.9198928,-0.3231516,-1.7429954
1570726773,7.6782074,6.4344177,-3.1669312,-3.469223,6.3861694,-0.9770355,1.9198928,-0.3231516,-1.7429954
1570726773,5.4061127,5.2558746,2.4606476,-3.4894714,4.262039,-1.0015411,-0.371624,-1.4909487,0.428802
1570726773,5.146942,5.6401367,4.845871,-3.3009186,4.2194214,-0.934433,-0.30257845,-1.3320804,2.4075096
1570726773,4.9637756,6.0070496,4.4418488,-2.7970428,3.8689575,-0.8843689,-0.12696981,-0.8527045,1.3282938
1570726773,4.6944275,6.206375,4.973358,-2.4849243,3.2138214,-0.8705139,0.044222355,-0.3090787,0.6246824
1570726773,2.7611084,5.5527496,6.7935486,-2.293167,2.8431091,-0.7906189,-0.43884754,-0.4765134,0.74056053
1570726773,2.7611084,5.5527496,6.7935486,-2.293167,2.8431091,-0.7906189,-0.43884754,-0.4765134,0.74056053
1570726773,2.3612823,5.1301727,8.012802,-2.356018,2.7024841,-0.72776794,-0.22643542,-0.28041553,1.1503568
1570726773,0.47705078,3.9228973,9.958679,-1.9224548,1.9216461,-0.4188385,-0.70258987,-0.7881398,2.2899184
1570726773,0.6212921,3.8809967,9.752777,-1.8521576,1.8428192,-0.38902283,-0.70258987,-0.7881398,2.2899184
1570726773,0.43215942,3.4895477,9.985611,-1.3056793,0.8990021,-0.20046997,-0.46147907,-0.9145994,1.9940143
1570726773,0.81044006,3.470993,10.658981,-0.6271057,0.54000854,8.69751E-4,0.24946922,-0.49706125,2.5459547
1570726773,0.81044006,3.470993,10.658981,-0.6271057,0.54000854,8.69751E-4,0.24946922,-0.49706125,2.5459547
1570726773,0.4985962,3.5476074,10.57399,-0.46624756,0.21722412,0.004058838,0.17037481,-0.32999015,2.1536894
1570726773,0.70628357,3.4518433,10.853516,-0.3831482,-0.030975342,0.017913818,0.34658802,-0.18424487,1.9869041
1570726773,0.6961212,3.4410706,11.200668,-0.27555847,0.07875061,0.037094116,0.21700686,-0.2620418,2.8610735
1570726773,0.6572113,3.3578644,10.043076,-0.124298096,0.21510315,0.008331299,0.2887126,-0.14031744,1.9742069
1570726773,0.34477234,3.5924988,10.053848,-0.54826355,0.60391235,-0.03640747,0.17181325,0.19415021,1.5588293
1570726773,0.34477234,3.5924988,10.053848,-0.54826355,0.60391235,-0.03640747,0.17181325,0.19415021,1.5588293
1570726773,-0.5452728,2.9460602,10.591354,-0.23934937,0.27581787,0.09034729,-0.5016924,-0.2001946,1.9262733
1570726773,-0.5452728,2.9460602,10.591354,-0.23934937,0.27581787,0.09034729,-0.5016924,-0.2001946,1.9262733
1570726773,-0.4524994,3.1525726,9.828796,0.27304077,-0.1375122,0.27464294,-0.40196812,-0.009672642,1.38731
1570726773,-0.5632324,3.0909119,9.815628,0.28796387,-0.17160034,0.2821045,-0.4503301,-0.044592857,1.2220945
1570726773,0.98402405,2.5234833,10.864883,0.34335327,-0.28131104,0.7359009,0.55718255,-0.85241866,2.2520971
1570726773,0.98402405,2.5234833,10.864883,0.34335327,-0.28131104,0.7359009,0.55718255,-0.85241866,2.2520971
1570726773,0.44293213,2.7180176,7.2442627,0.15054321,-0.27812195,0.6709137,-0.047443986,-0.8493283,-1.2442169
1570726773,0.45370483,2.668335,7.2717896,0.1026001,-0.28131104,0.67944336,-0.047443986,-0.8493283,-1.2442169
1570726774,1.0396881,2.52948,8.401855,-0.33415222,0.47076416,0.6773071,0.5013648,-0.84777737,-0.032931328
1570726774,0.95648193,2.5043335,8.312668,-0.3554535,0.4537201,0.6687927,0.5013648,-0.84777737,-0.032931328
1570726774,0.6326752,2.0817566,8.31926,-0.46624756,0.17248535,0.6208496,0.0178805,-1.1376462,-0.31752586
1570726774,1.3647003,1.9620514,9.48642,-0.56211853,-0.21206665,0.5590668,0.48408914,-1.1787622,0.6467285
1570726774,1.4431,1.8435364,9.401428,-0.71977234,0.059570312,0.49942017,0.66505843,-1.0671268,0.8819246
1570726774,2.2182312,1.6735535,9.506775,0.17823792,0.19485474,0.47491455,1.3316305,-1.164999,2.2957544
1570726774,1.5783844,1.5634155,9.007584,0.17823792,-0.2674713,0.36412048,0.8080546,-1.1896422,0.385808
1570726774,1.8830414,1.6765442,9.819214,-0.59620667,0.20231628,0.46426392,0.8930716,-0.95047903,0.76412964
1570726774,1.8830414,1.6765442,9.819214,-0.59620667,0.20231628,0.46426392,0.8930716,-0.95047903,0.76412964
1570726774,1.5927429,1.3479309,11.339539,-0.79222107,0.6326752,0.5100708,0.8112065,-1.0809512,2.26723
1570726774,1.4634552,1.1186981,8.762772,-0.4023285,-0.24510193,0.70606995,0.60230106,-1.104492,0.1285572
1570726774,1.4419098,1.1372528,8.77475,-0.43748474,-0.27919006,0.7082062,0.65323097,-1.0296078,-0.20985126
1570726774,2.1613617,0.7122803,11.22821,-0.38102722,0.83187866,0.978775,1.2328466,-0.987906,2.486641
1570726774,2.2014618,0.6584015,10.961258,-0.36398315,0.80418396,0.96173096,1.2328466,-0.987906,2.486641
1570726774,1.327591,0.51116943,10.882843,-0.1796875,0.276886,0.8381653,0.9183167,-0.99417436,1.5314474
1570726774,1.5622101,0.49620056,11.829758,0.08343506,0.07980347,0.87332153,0.7095638,-1.2155576,2.4915152
1570726774,0.84994507,0.14724731,10.55304,-0.15625,0.70085144,0.99583435,0.26796395,-1.5084846,1.27244
1570726774,0.8822632,0.120910645,10.59494,-0.16371155,0.6838074,1.008606,0.33566248,-1.4439833,1.2824259
1570726774,0.7398071,-0.004196167,12.562973,0.077041626,1.3101959,1.2067566,0.7424293,-1.3981364,3.363802
1570726774,0.7398071,-0.004196167,12.562973,0.077041626,1.3101959,1.2067566,0.7424293,-1.3981364,3.363802
1570726774,0.28970337,-0.50038147,10.393829,0.5276489,1.4433441,1.7127533,1.0573152,-2.0510025,1.356493
1570726774,0.28970337,-0.50038147,10.393829,0.5276489,1.4433441,1.7127533,1.0573152,-2.0510025,1.356493
1570726774,0.17297363,-0.30226135,9.358337,0.23043823,1.3368225,1.9535065,0.2465797,-2.2733617,0.18547535
1570726774,0.036514282,0.56921387,9.335587,0.044021606,1.3400116,1.7351227,1.4793361,-1.4722118,0.1992693
1570726774,0.036514282,0.56921387,9.335587,0.044021606,1.3400116,1.7351227,1.4793361,-1.4722118,0.1992693
1570726774,0.10774231,0.7697296,8.663422,-0.38528442,0.7700958,1.9982452,1.5052353,-1.3470764,-0.4333868
1570726774,0.7116699,1.3353729,11.834534,0.9154053,-0.6562958,1.6712036,2.2444947,-0.74115396,4.1437397
1570726774,0.7116699,1.3353729,11.834534,0.9154053,-0.6562958,1.6712036,2.2444947,-0.74115396,4.1437397
1570726774,1.8734589,2.1954803,9.984421,0.68318176,-0.14389038,1.6083527,2.477956,-0.4525087,1.0765486
1570726774,1.7016754,1.8399506,9.448715,0.11326599,0.32162476,1.4070129,2.7792404,-0.59567237,0.242033
1570726774,-1.1127014,0.7254486,10.536285,-0.14241028,0.51763916,1.2695923,-0.23163718,-1.8593113,1.5304937
1570726774,-1.1127014,0.7254486,10.536285,-0.14241028,0.51763916,1.2695923,-0.23163718,-1.8593113,1.5304937
1570726775,-0.25079346,1.7322083,9.110535,0.16012573,0.46437073,0.94363403,0.7272458,-1.0107944,0.30714893
1570726775,-0.25079346,1.7322083,9.110535,0.16012573,0.46437073,0.94363403,0.7272458,-1.0107944,0.30714893
1570726775,-1.161789,1.987793,10.031708,-0.053985596,0.8617096,1.0043488,-0.26312375,-0.94537306,0.58086395
1570726775,-1.2874756,1.6741486,10.233414,-0.049728394,0.86491394,0.9745178,-0.26312375,-0.94537306,0.58086395
1570726775,-1.6400299,2.1769257,11.214447,-0.04119873,1.0822296,0.5931549,-0.04185152,-0.5647001,2.298047
1570726775,-2.0392609,1.6454163,11.4496765,-0.004989624,1.0779572,0.46533203,-0.9737531,-1.5588784,2.4494534
1570726775,-1.2683258,1.2988586,10.610504,0.107925415,0.6017914,0.6112671,0.2881385,-1.4184291,2.0461636
1570726775,-1.2683258,1.2988586,10.610504,0.107925415,0.6017914,0.6112671,0.2881385,-1.4184291,2.0461636
1570726775,-1.4029999,2.4121552,9.801865,0.31884766,0.21722412,1.1449585,0.5297519,-0.645051,1.1288376
1570726775,-1.7142487,2.3834229,9.995789,0.33377075,0.24279785,1.1396332,0.5297519,-0.645051,1.1288376
1570726775,-1.2258301,2.4223328,9.415192,0.4711914,1.170639,0.47810364,0.40831232,-0.5034702,0.18946743
1570726775,-1.2258301,2.4223328,9.415192,0.4711914,1.170639,0.47810364,0.40831232,-0.5034702,0.18946743
1570726775,-1.1121063,3.3722382,10.286682,-1.4931641,0.74028015,1.6286011,1.2819486,0.76237416,1.7813845
1570726775,-1.1336517,3.2615051,10.155014,-1.4878387,0.6838074,1.5614777,1.2819486,0.76237416,1.7813845
1570726775,-1.4915924,2.1577759,11.218033,-1.4015503,-0.484787,0.9830475,0.77238536,-0.22385669,2.1244373
1570726775,-1.4915924,2.1577759,11.218033,-1.4015503,-0.484787,0.9830475,0.77238536,-0.22385669,2.1244373
1570726775,-0.8966217,1.332367,11.532867,-0.3799591,-0.8885193,0.88822937,0.8889084,-0.47173405,1.9921303
1570726775,-0.8966217,1.332367,11.532867,-0.3799591,-0.8885193,0.88822937,0.8889084,-0.47173405,1.9921303
1570726775,-1.1965027,2.2828674,9.674377,0.40834045,-0.8171387,0.12231445,0.052648067,0.06312466,0.121665955
1570726775,-1.1965027,2.2828674,9.674377,0.40834045,-0.8171387,0.12231445,0.052648067,0.06312466,0.121665955
1570726775,0.31124878,2.0129242,11.398193,0.35188293,0.077682495,-0.17063904,1.4494946,-0.37718177,2.1269817
1570726775,0.31124878,2.0129242,11.398193,0.35188293,0.077682495,-0.17063904,1.4494946,-0.37718177,2.1269817
1570726775,-0.96725464,1.5921478,9.414597,0.019515991,0.34399414,-0.06944275,0.19219053,-0.7284212,0.0054426193
1570726775,-0.9924011,1.4873962,9.52832,-0.013504028,0.33866882,-0.060913086,0.12282622,-0.91709757,0.11490536
1570726775,-1.177948,0.9977875,10.245392,-0.16371155,0.29393005,0.017913818,-0.031286836,-1.4518652,0.85140705
1570726775,-1.2402039,0.74998474,10.509949,-0.09339905,0.06915283,0.16065979,-0.056818962,-1.6880774,1.1882801
1570726775,-1.1043243,0.64105225,10.702087,-0.06037903,0.15118408,0.2671814,0.08783913,-1.7739406,1.4648762
1570726775,-1.3772583,0.9211731,10.597336,0.14840698,0.13946533,0.4717102,-0.058227777,-1.5255489,1.2285118
1570726775,-1.3772583,0.9211731,10.597336,0.14840698,0.13946533,0.4717102,-0.17242312,-1.5255489,1.2285118
1570726775,-0.017364502,1.4526825,10.59375,0.2741089,0.09579468,0.52711487,0.99509764,-1.1984453,1.3016539
1570726775,-0.013763428,1.569397,10.688919,0.27731323,0.46437073,0.21818542,1.3880984,-1.126442,1.4184856
1570726775,-0.12988281,1.5723877,10.687714,0.26452637,0.5080414,0.22351074,1.2747507,-1.1548588,1.4542513
1570726775,-0.70269775,2.3139954,8.728668,0.1920929,0.3290863,0.14894104,0.8917903,-0.5097213,-0.4713173
1570726775,-0.70269775,2.3139954,8.728668,0.1920929,0.3290863,0.14894104,0.8917903,-0.5097213,-0.4713173
1570726776,-0.77871704,0.93074036,12.000931,-0.35865784,0.4814148,0.12763977,0.97084045,-1.4176152,2.6793938
1570726776,-0.77871704,0.93074036,12.000931,-0.35865784,0.4814148,0.12763977,0.97084045,-1.4176152,2.6793938
1570726776,-1.2874756,2.1793213,9.618103,0.05253601,0.60498047,0.058395386,0.528576,-0.6335583,1.2963972
1570726776,-1.4317322,2.1865082,8.8094635,0.065322876,0.41003418,0.07223511,0.48218465,-0.43583298,-0.04593754
1570726776,-1.4317322,2.1865082,8.8094635,0.065322876,0.41003418,0.07223511,0.48218465,-0.43583298,-0.04593754
1570726776,-1.4317322,2.1865082,8.8094635,0.065322876,0.41003418,0.07223511,0.48218465,-0.43583298,-0.04593754
1570726776,-1.4317322,2.1865082,8.8094635,0.065322876,0.41003418,0.07223511,0.48218465,-0.43583298,-0.04593754
1570726776,-1.3215942,1.2659302,10.372284,-0.19993591,-0.13537598,0.14361572,0.11797047,-1.295671,1.1412783
1570726776,-1.2515717,1.3856506,10.178345,-0.21058655,-0.16520691,0.17131042,0.07789743,-1.2198238,0.9571104
1570726776,-0.31663513,1.6531982,9.601944,-0.41830444,-0.27598572,0.10845947,0.95446014,-0.700212,0.29293728
1570726776,-0.31663513,1.6531982,9.601944,-0.41830444,-0.27598572,0.10845947,0.95446014,-0.700212,0.29293728
1570726776,-0.31663513,1.6531982,9.601944,-0.41830444,-0.27598572,0.10845947,0.95446014,-0.700212,0.29293728
1570726776,-0.31663513,1.6531982,9.601944,-0.41830444,-0.27598572,0.10845947,0.95446014,-0.700212,0.29293728
1570726776,-0.31663513,1.6531982,9.601944,-0.41830444,-0.27598572,0.10845947,0.95446014,-0.700212,0.29293728
1570726776,-0.08319092,0.7475891,11.190506,-0.3277588,0.120285034,-0.05026245,0.7052653,-1.1213943,1.5441017
1570726776,-0.6171112,0.7655487,11.507736,-0.1051178,0.2587738,-0.017242432,0.30058545,-1.003244,1.9206982
1570726776,-0.41000366,0.7404022,11.525681,0.16012573,0.25984192,0.0072631836,0.51896995,-0.9996686,1.880065
1570726776,-0.41000366,0.7404022,11.525681,0.16012573,0.25984192,0.0072631836,0.51896995,-0.9996686,1.880065
1570726776,-0.41000366,0.7404022,11.525681,0.16012573,0.25984192,0.0072631836,0.51896995,-0.9996686,1.880065
1570726776,-0.41000366,0.7404022,11.525681,0.16012573,0.25984192,0.0072631836,0.51896995,-0.9996686,1.880065
1570726776,-0.6985016,1.4425049,10.486008,0.23150635,-0.6488342,-0.20046997,0.1639731,-0.81823087,0.60811806
1570726776,-0.33459473,1.4550781,11.01033,0.10899353,-0.35908508,-0.12057495,0.31942397,-0.8460605,1.4291496
1570726776,-0.05506897,1.4293365,10.491394,-0.13813782,0.120285034,-0.05984497,-0.3258831,-0.7285836,0.9471493
1570726776,-0.05506897,1.4293365,10.491394,-0.13813782,0.120285034,-0.05984497,-0.3258831,-0.7285836,0.9471493
1570726776,-0.05506897,1.4293365,10.491394,-0.13813782,0.120285034,-0.05984497,-0.3258831,-0.7285836,0.9471493
1570726776,-0.05506897,1.4293365,10.491394,-0.13813782,0.120285034,-0.05984497,-0.3258831,-0.7285836,0.9471493
1570726776,-0.97624207,1.3497314,11.448471,0.58410645,0.0052337646,0.023239136,-0.023555994,-0.85715985,2.2846298
1570726776,-0.97624207,1.3497314,11.448471,0.58410645,0.0052337646,0.023239136,-0.023555994,-0.85715985,2.2846298
1570726776,-0.7805023,1.9393005,9.457703,0.368927,0.063827515,0.058395386,-0.020789742,-0.962317,0.19283581
1570726776,-0.37469482,1.8668823,8.958511,0.1452179,-0.029907227,0.10845947,0.014512181,-0.7160213,-0.6130171
1570726776,-0.37469482,1.8668823,8.958511,0.1452179,-0.029907227,0.10845947,0.014512181,-0.7160213,-0.6130171
1570726776,-0.37469482,1.8668823,8.958511,0.1452179,-0.029907227,0.10845947,0.014512181,-0.7160213,-0.6130171
1570726776,-0.37469482,1.8668823,8.958511,0.1452179,-0.029907227,0.10845947,0.014512181,-0.7160213,-0.6130171
1570726777,-0.48362732,2.0129242,9.282913,0.21020508,-0.11407471,0.082901,0.3301512,-0.9511068,0.14200974
1570726777,-0.41539,1.7836761,10.349533,-0.22442627,-0.14283752,-0.035354614,0.2910784,-0.8403373,0.74652576
1570726777,-0.4297638,1.8489227,10.480026,-0.23188782,-0.13323975,-0.0342865,0.2910784,-0.8403373,0.74652576
1570726777,0.26275635,2.505539,10.53569,-0.16477966,0.17034912,0.1105957,0.46651447,-1.4519234,0.85778713
1570726777,0.26275635,2.505539,10.53569,-0.16477966,0.17034912,0.1105957,0.46651447,-1.4519234,0.85778713
1570726777,-0.4004364,1.7238312,10.247177,-0.0816803,-0.032043457,0.17024231,0.17425227,-0.8396342,0.62768555
1570726777,-0.52911377,1.5849609,10.595535,-0.02947998,-0.058670044,0.12231445,0.19821143,-0.714967,0.7323265
1570726777,-0.39505005,1.7956543,10.647614,-0.047592163,0.0126953125,0.030700684,0.23483706,-0.63485146,0.96088123
1570726777,-0.39505005,1.7956543,10.647614,-0.047592163,0.0126953125,0.030700684,0.23483706,-0.63485146,0.96088123
1570726777,-0.5674286,1.783081,10.417175,0.05041504,-0.17478943,-0.02470398,0.07833946,-0.6268604,0.79035854
1570726777,-0.557251,1.743576,10.394424,0.05041504,-0.17478943,-0.023635864,0.07833946,-0.6268604,0.79035854
1570726777,-0.47883606,1.7202301,10.5686035,0.05041504,-0.12046814,-0.020431519,0.17080969,-0.72061086,1.032548
1570726777,-0.3722992,1.7752991,10.366287,0.06958008,-0.11193848,0.027496338,0.17361957,-0.7092738,0.7670021
