time,ax,ay,az,gx,gy,gz,la_x,la_y,la_z,fox,foy,foz
1570714991,-7.723694,6.7582397,-0.21368408,0.46922302,0.58335876,-0.06542969,-0.29325676,0.24325609,-0.6243887
1570714991,-4.3771973,8.059479,1.4790192,0.7642975,0.53222656,0.27651978,2.7927475,1.8082438,1.8287867
1570714991,-3.815155,8.494629,-1.3455353,1.024231,-0.45739746,0.23815918,3.657312,2.1260676,-1.1326613
1570714991,-5.5054626,7.140106,-0.22206116,1.5888214,-0.5852356,0.27331543,2.112153,0.7885113,0.32200545
1570714991,-9.010574,6.2668304,0.016159058,0.6694946,0.9008179,-0.7152405,-2.2694492,-0.23572779,0.21312809
1570714991,-11.270111,4.1012726,-1.5963287,-0.3670044,2.3836517,-2.1043549,-5.9154425,-2.6874938,-1.7628167
1570714991,-9.05368,2.3924103,-4.560959,0.12088013,2.0331879,-1.8987579,-1.2773266,-3.0330968,-2.7266712
1570714991,-6.2674255,1.7184448,-3.5218658,1.3043976,0.60253906,-1.5120697,1.7179728,-3.0661917,-1.6483943
1570714991,-3.0861206,0.16879272,0.026931763,0.2828064,-0.09628296,-0.37223816,5.2338276,-4.447522,1.382848
1570714991,-4.523239,1.2533722,0.802063,-0.29563904,-0.17190552,0.4384308,3.917448,-3.3437448,3.1936228
1570714991,-5.1601105,-0.0688324,-0.13287354,0.30943298,0.008117676,0.7889099,2.8805175,-4.5984473,2.0153577
1570714991,-6.0866547,0.9295502,-1.6693573,0.33180237,0.13595581,1.0520325,1.8685784,-4.121777,0.42938566
1570714991,-5.7538605,1.9279327,-1.6819305,-0.015472412,0.30532837,1.157486,1.7261147,-2.827033,0.35034704
1570714991,-5.598236,4.4101257,-2.510315,-0.2604828,0.32983398,1.2778625,2.002962,-1.4097486,-0.5825167
1570714991,-7.9319916,9.821014,-3.0573883,-0.41174316,0.29042053,1.4717407,-0.47261906,2.8087206,0.083875656
1570714991,-9.339188,11.411957,-4.7303467,-0.32226562,-0.17404175,1.6730804,-3.2379866,4.825279,0.7057588
1570714991,-12.09491,11.60051,-0.4159851,-0.7771301,-0.6448822,1.0988922,-3.012364,4.378792,1.7047443
1570714991,-10.031113,10.778702,0.5087738,-0.9252014,0.67071533,0.5886383,-3.7134113,3.8575125,5.2982635
1570714991,-10.639832,9.011169,0.52493286,-0.7377167,-1.0507507,0.5353699,-3.3839097,2.682249,2.3041
1570714991,-11.941681,7.1293335,-2.494751,-0.44371033,-1.0816498,1.5740051,-4.9802504,0.37985182,-0.748119
1570714991,-12.586914,4.0384216,-4.817734,-1.3981781,-1.7580872,1.9575043,-6.318101,-2.6861324,-5.6191387
1570714991,-8.93277,3.1561584,-0.78230286,-3.1942139,-2.7136383,3.501068,-4.99082,-4.894908,-0.3207114
1570714991,-0.32859802,2.3175812,7.6991577,-3.0536041,-0.80999756,5.3258667,1.1380434,-7.2161646,6.6302776
1570714992,2.834137,2.2637177,3.9444427,-1.4322662,0.3713684,5.3056335,6.834053,-5.920336,3.4384375
1570714992,2.4444733,0.22685242,0.63027954,0.04737854,-1.2723236,5.4323883,3.4446726,-8.09759,0.20399284
1570714992,4.6746826,3.541626,-3.4979248,-1.45784,-4.9325714,4.183899,5.965304,-5.350671,-8.924865
1570714992,9.933548,18.248001,-6.096237,-2.6722412,-5.7741394,3.019577,10.335033,1.5729303,-10.422917
1570714992,11.508331,18.59996,19.51155,-2.7745056,0.40545654,-0.16769409,14.048828,11.083392,16.463602
1570714992,1.8369446,4.241928,-2.2966309,-1.6485138,-0.23049927,-0.5181732,-0.61237526,-3.754984,-5.6125875
1570714992,3.5356445,3.3506927,2.518097,-1.5771484,-1.482193,-0.5543976,1.2328899,-4.170354,-2.6511908
1570714992,2.581543,1.4628601,2.8048096,-0.5587616,-0.8270416,-0.6183014,0.37649894,-6.59136,-1.1592045
1570714992,2.7970276,1.8578949,1.2713165,0.26150513,-0.49041748,-0.10058594,0.47437334,-5.947729,-2.8297396
1570714992,2.7970276,1.8578949,1.2713165,0.26150513,-0.49041748,-0.10058594,0.47437334,-5.947729,-2.8297396
1570714992,4.402939,13.775635,10.483017,1.6772308,-0.06752014,-0.008972168,1.8245785,3.9924736,6.01005
1570714992,4.402939,13.775635,10.483017,1.6772308,-0.06752014,-0.008972168,1.8245785,3.9924736,6.01005
1570714992,-0.98521423,12.0979,6.606201,-0.10494995,-0.6033478,-0.4425354,-2.8557882,7.3435802,5.5351315
1570714992,3.3716278,4.9877167,4.2108,-0.5427704,-1.4747314,-0.16131592,0.8792546,-2.9553986,1.1978617
1570714992,4.4089203,4.672287,4.1287994,0.7110443,-0.25500488,0.6056824,1.6407275,-3.7544498,1.3329127
1570714992,4.790802,5.1325684,3.683487,0.82395935,-0.085617065,0.6951599,1.6407275,-3.7544498,1.3329127
1570714992,8.488037,11.184509,0.88764954,1.8093262,1.9618073,-0.37010193,9.349432,6.0425167,-3.2696579
1570714992,8.488037,11.184509,0.88764954,1.8093262,1.9618073,-0.37010193,9.349432,6.0425167,-3.2696579
1570714992,2.9352875,4.9667664,-2.4337006,1.8018646,-0.7386322,-0.4414673,1.211998,-2.6149702,-3.9006848
1570714992,0.052078247,4.50589,-0.80085754,0.48094177,-0.9612732,0.825119,-2.2870164,-4.890439,-2.942748
1570714992,-0.10295105,4.965576,-0.61231995,0.4596405,-0.9420929,0.88264465,-2.6573257,-4.367487,-2.1770384
1570714992,1.0582428,12.49115,-4.541794,2.4964294,5.5315094,-1.1338959,0.1717689,5.802765,-3.877392
1570714992,-1.2108612,9.926361,-8.304886,2.5539398,5.3536224,-1.5227203,-2.7011948,2.240903,-6.152905
1570714992,-2.7778778,7.6398926,-11.629837,1.2106476,-2.4185486,-1.0827637,-8.478124,-1.8288345,-14.297657
1570714992,10.939713,8.265381,5.288788,0.562973,-4.307266,-2.1725311,9.957646,0.19895554,5.827015
1570714992,10.939713,8.265381,5.288788,0.562973,-4.307266,-2.1725311,9.957646,0.19895554,5.827015
1570714992,4.6902466,7.193985,-2.7503357,0.3062439,2.9035034,-0.1836853,2.843736,-2.3188734,-0.7710501
1570714992,4.6902466,7.193985,-2.7503357,0.3062439,2.9035034,-0.1836853,2.843736,-2.3188734,-0.7710501
1570714992,0.6979065,8.404251,2.4151459,0.5800171,-0.17723083,-0.10165405,-0.24008012,-0.68164825,2.5690153
1570714992,-0.041900635,8.886078,-1.7525482,1.3065186,0.111450195,0.24029541,-1.1654359,-0.33322716,-1.3215014
1570714992,-0.041900635,8.886078,-1.7525482,1.3065186,0.111450195,0.24029541,-1.1654359,-0.33322716,-1.3215014
1570714992,0.83917236,9.928162,1.704071,1.0774841,0.3713684,0.43310547,-0.5982566,1.0138512,3.0954704
1570714992,0.83917236,9.928162,1.704071,1.0774841,0.3713684,0.43310547,-0.5982566,1.0138512,3.0954704
1570714993,1.632843,11.5807495,1.1743622,0.39146423,2.3101501,0.17318726,0.6086749,3.2806559,4.0502553
1570714993,1.632843,11.5807495,1.1743622,0.39146423,2.3101501,0.17318726,0.6086749,3.2806559,4.0502553
1570714993,-0.25138855,15.687408,-0.95648193,-2.8586578,1.2193298,-0.108047485,-2.1917205,6.536646,-0.035065174
1570714993,-0.25138855,15.687408,-0.95648193,-2.8586578,1.2193298,-0.108047485,-2.1917205,6.536646,-0.035065174
1570714993,-4.9033203,10.1059265,1.4299316,-4.310623,-0.9516907,-0.20072937,-6.222808,0.5822792,-0.6407086
1570714993,-4.9033203,10.1059265,1.4299316,-4.310623,-0.9516907,-0.20072937,-6.222808,0.5822792,-0.6407086
1570714993,10.934921,11.938095,3.4644165,-1.1222839,3.1325378,-2.0031586,8.696655,2.9253387,1.7021573
1570714993,10.800842,11.861481,3.1022797,-0.89964294,3.136795,-2.0404358,8.696655,2.9253387,1.7021573
1570714993,2.4229279,7.652466,-1.9422913,0.18373108,0.65367126,-1.8401642,3.6371984,-0.95032215,-4.4476233
1570714993,-0.38426208,8.319855,-3.0591888,-1.7401276,-0.2645874,-0.62364197,-0.60638607,-0.57889843,-5.2644544
1570714993,0.46148682,8.245026,-4.8763885,-1.6879425,-0.90267944,-0.6609192,0.06582299,-0.3421774,-6.804986
1570714993,2.395401,6.4182587,-2.609085,-1.8956604,-3.7245636,-0.7418823,2.0678308,-1.9014025,-7.412758
1570714993,2.6970673,4.2191772,4.312561,-1.4674225,-3.331482,-0.61724854,2.3331733,-3.991315,0.7025986
1570714993,3.1717224,4.284424,1.8369446,-0.22958374,-2.1895294,-0.55226135,2.6980298,-3.4883213,-2.6757545
1570714993,3.1717224,4.284424,1.8369446,-0.22958374,-2.1895294,-0.55226135,2.6980298,-3.4883213,-2.6757545
1570714993,1.7812805,3.218399,4.6692963,1.4279633,0.1391449,0.112457275,0.66167843,-5.635497,0.28380442
1570714993,1.8369446,3.573349,4.7638702,1.4918823,0.21903992,0.12844849,0.9023975,-4.990287,0.55479574
1570714993,1.5185242,6.446991,6.5726776,2.0021362,0.63449097,0.15293884,1.3000226,-2.83574,1.7416997
1570714993,0.03831482,13.02626,9.015961,-0.5480957,-0.78230286,-0.38928223,-1.1908199,7.1064596,5.836584
1570714993,0.19752502,11.489777,8.763977,-0.58325195,-0.7247772,-0.43188477,-1.1908199,7.1064596,5.836584
1570714993,2.1577759,5.4414215,5.84964,0.74513245,-0.5884247,0.4948883,0.71002793,-4.85264,2.026532
1570714993,2.1577759,5.4414215,5.84964,0.74513245,-0.5884247,0.4948883,0.71002793,-4.85264,2.026532
1570714993,10.159195,15.43721,-1.0624237,1.5291595,3.535202,1.0807953,8.875024,5.9049187,-3.5524604
1570714993,10.329788,16.346405,-1.6621704,1.5462036,3.4350739,1.0637512,8.875024,5.9049187,-3.5524604
1570714993,0.09158325,4.34906,-2.4067688,-0.13052368,-0.6044159,0.4352417,-1.1678957,-3.8908339,-4.738976
1570714993,0.09158325,4.34906,-2.4067688,-0.13052368,-0.6044159,0.4352417,-1.1678957,-3.8908339,-4.738976
1570714993,1.7788849,11.329361,-1.0941467,0.5619049,-1.2371826,0.5183258,-0.3221438,1.2788572,-2.5567484
1570714993,1.798645,11.820175,-1.3090363,0.6545868,-1.3106842,0.45440674,-0.35701513,2.4199276,-2.8777683
1570714993,1.624466,14.459778,-2.9065552,0.9326172,-1.6856537,0.053878784,-0.6555462,5.0834236,-4.094763
1570714993,-0.6458435,6.498459,3.6152496,2.2354279,1.7104187,-0.93362427,-2.6020598,-2.1971827,3.4246683
1570714993,-0.6458435,6.498459,3.6152496,2.2354279,1.7104187,-0.93362427,-2.6020598,-2.1971827,3.4246683
1570714993,0.23103333,6.573883,-0.22865295,1.5898895,3.08461,-0.98049927,-1.5129961,-2.3662233,-0.78629416
1570714993,-0.5093689,7.541733,1.0696106,1.5099945,2.8598328,-1.0380249,-1.4890752,-1.8178682,0.88993657
1570714994,0.13227844,8.294113,0.41838074,1.5909424,2.6925812,-0.71951294,-1.2201738,-0.75399685,0.39139083
1570714994,0.77511597,8.161835,-0.4985962,1.7454071,1.7924347,-0.21031189,0.08275223,-0.9428482,0.5892739
1570714994,0.8236084,8.252213,-0.54348755,1.7145233,1.7391663,-0.16343689,0.08275223,-0.9428482,0.5892739
1570714994,1.0301056,9.797668,-2.1835175,0.7568512,0.22010803,0.59609985,0.08241606,0.4070034,-1.118561
1570714994,0.10534668,11.688492,0.18136597,0.33180237,-1.4395752,0.7665405,-1.0199509,2.70292,1.662568
1570714994,0.035308838,11.827957,0.34117126,0.32647705,-1.4853821,0.743103,-1.0199509,2.70292,1.662568
1570714994,-2.7299957,10.954666,4.2305603,0.4127655,-0.8174591,0.2946167,-3.7131987,2.2595215,6.249445
1570714994,-2.4959564,12.451645,1.2635345,-0.3861847,0.25845337,0.11672974,-3.760442,2.7860918,4.0547247
1570714994,-2.8886108,13.360245,-1.0654144,-1.7252197,0.46618652,-0.16131592,-3.839109,4.5913305,0.48402572
1570714994,-3.289032,12.820358,-1.9111786,-2.7382812,-0.8579407,-0.6140442,-4.676135,3.8135242,-1.1698723
1570714994,2.4127502,7.752426,-0.67277527,-2.8075256,-3.4561157,-0.53308105,1.4868586,-1.2040977,-1.2775073
1570714994,2.4127502,7.752426,-0.67277527,-2.8075256,-3.4561157,-0.53308105,1.4868586,-1.2040977,-1.2775073
1570714994,2.7066498,10.932526,0.8631134,-2.4325562,0.7655182,2.068283,0.67739415,1.5492334,-0.6313884
1570714994,4.083908,12.188873,0.07720947,-2.4325562,0.7655182,2.068283,0.67739415,1.5492334,-0.6313884
1570714994,2.3391418,9.657608,-1.0576324,-0.62054443,-0.19854736,-0.59381104,3.230747,0.81223774,-1.7622888
1570714994,-2.1416168,9.70549,1.1737518,-1.1947174,-1.0944366,-0.39886475,-3.5757825,-0.13214874,-1.5659688
1570714994,-2.1416168,9.70549,1.1737518,-1.1947174,-1.0944366,-0.39886475,-3.4040434,0.7276468,-1.7331314
1570714994,-3.9624023,9.707886,-2.5905304,-1.6591797,-0.30081177,-1.1924896,-4.720529,1.9228163,-4.446773
1570714994,3.8211517,4.155136,2.3020325,-1.2256165,-2.058487,-0.818573,2.7625446,-3.822215,-2.2934003
1570714994,3.8211517,4.155136,2.3020325,-1.2256165,-2.058487,-0.818573,2.7625446,-3.822215,-2.2934003
1570714994,2.5552063,2.779068,1.8369446,0.7557831,-0.6832428,-0.675827,1.6523896,-5.2245646,-2.1015925
1570714994,2.5552063,2.779068,1.8369446,0.7557831,-0.6832428,-0.675827,1.6523896,-5.2245646,-2.1015925
1570714994,1.328186,5.419876,3.6266174,1.4354248,0.036880493,-0.24440002,0.2926662,-3.2555122,-0.26463175
1570714994,1.328186,5.419876,3.6266174,1.4354248,0.036880493,-0.24440002,0.2926662,-3.2555122,-0.26463175
1570714994,1.4347229,13.251312,7.9637146,1.5749664,0.0113220215,-0.09526062,0.60110843,2.7230787,3.360968
1570714994,-1.5137329,8.142685,8.661621,0.32647705,-0.4637909,-0.3040619,-3.471633,2.1695967,7.993136
1570714994,-1.5137329,8.142685,8.661621,0.32647705,-0.4637909,-0.3040619,-3.471633,2.1695967,7.993136
1570714994,0.46627808,5.068527,4.05278,0.30517578,-0.19961548,-0.012176514,-0.8612836,-3.0828943,1.9057729
1570714994,2.5324707,6.926422,4.3197327,1.0380707,-0.27098083,0.95614624,1.4262009,-3.1534452,1.3879778
1570714994,9.7845,15.461151,-2.8706512,1.3800201,0.82624817,1.8275452,8.924189,6.9108715,-5.4367228
1570714994,1.9710236,5.2283325,1.3712769,0.65245056,2.3847198,0.38197327,1.140906,-3.3705225,-1.1281836
1570714994,1.9710236,5.2283325,1.3712769,0.65245056,2.3847198,0.38197327,1.140906,-3.3705225,-1.1281836
1570714994,-0.5386963,5.98909,-5.1810455,0.5128937,-1.0347748,0.5620117,-1.9207048,-2.9381924,-6.907033
1570714995,-0.5817871,8.949524,-4.5046844,0.5001221,-2.0808716,0.52153015,-2.4112802,-0.41764545,-6.258294
1570714995,0.08859253,12.810776,4.1730957,1.2841492,0.04220581,0.11672974,-2.1713772,4.14904,3.2760985
1570714995,0.13348389,12.568954,3.8869934,1.3555298,0.1817627,0.010192871,-2.015767,4.0281363,3.2484965
1570714995,1.0295105,7.4890594,0.56503296,1.0348816,1.8052216,-1.234024,-0.74536836,-1.3956413,-0.04854396
1570714995,1.0295105,7.4890594,0.56503296,1.0348816,1.8052216,-1.234024,-0.74536836,-1.3956413,-0.04854396
1570714995,1.1402435,6.9671326,2.6216583,0.947525,2.3644867,-1.421524,0.19489372,-1.999279,2.0067375
1570714995,1.4011993,8.271973,0.34776306,1.0966644,2.5072327,-0.4350891,0.6720414,-0.8409023,0.5585499
1570714995,1.4011993,8.271973,0.34776306,1.0966644,2.5072327,-0.4350891,0.6720414,-0.8409023,0.5585499
1570714995,0.8457489,7.6225433,0.7553711,1.0551147,2.4379883,0.12631226,0.197492,-1.3084555,1.2860312
1570714995,0.8457489,7.6225433,0.7553711,1.0551147,2.4379883,0.12631226,0.197492,-1.3084555,1.2860312
1570714995,1.2461853,10.086166,-1.4239502,0.92303467,1.1703186,0.536438,0.46762973,1.0390682,-0.30264807
1570714995,1.1450195,10.1609955,-1.4897919,0.92303467,1.1703186,0.536438,0.46762973,1.0390682,-0.30264807
1570714995,-0.79907227,10.509949,-0.64224243,0.67907715,-2.7487793,0.5662689,-1.857738,1.5455952,0.14413774
1570714995,-1.5406647,10.638031,4.854843,0.74086,-2.7850037,0.34042358,-2.393426,1.7795839,5.9023776
1570714995,-1.5406647,10.638031,4.854843,0.74086,-2.7850037,0.34042358,-2.393426,1.7795839,5.9023776
1570714995,-1.8920135,12.796402,0.46447754,-1.076477,0.8699188,-4.5776367E-4,-2.9623933,3.787672,2.9407167
1570714995,-1.9554596,14.423264,-1.6537933,-2.287674,1.079773,-0.51498413,-3.000464,5.0622053,-0.0044869184
1570714995,-0.33998108,9.631271,-0.8307953,-2.6413422,-2.121338,-0.80366516,-2.9808877,1.3714743,-0.71333057
1570714995,2.7365723,8.548492,0.09996033,-2.8171234,-2.121338,-0.68115234,2.3497322,-0.19276047,-0.06883215
1570714995,1.2898712,8.097794,0.502182,-3.0397491,-1.4662018,0.18383789,1.1458174,-1.0685081,-0.46348053
1570714995,15.111603,13.878586,0.4794464,-1.8051147,0.1860199,0.12098694,15.211027,5.6278133,-1.3860352
1570714995,4.2940063,8.298309,-0.23283386,-0.9475708,0.9285126,0.2861023,4.615811,-0.043004036,-0.84446454
1570714995,1.4359283,9.364914,-3.9743805,-1.3534393,0.017700195,0.34788513,1.9057128,0.114048004,-5.260357
1570714995,-1.2473755,10.863098,6.2781982,-1.9894104,-1.388443,0.7079468,-2.9625404,0.3342495,1.0583515
1570714995,-4.147354,10.823593,-4.1605225,-2.0426636,0.7367554,-0.29766846,-5.096788,3.4817572,-3.4497483
1570714995,2.9299011,6.0309906,0.47584534,-2.7031403,-1.3468933,-0.2529297,1.6165549,-1.3540497,-4.723558
1570714995,3.4332886,3.759491,1.8638916,-0.7345276,-1.2020264,-0.7493286,2.4735537,-3.9315834,-2.7111073
1570714995,3.0567932,3.281845,2.1200714,-0.55555725,-1.1412964,-0.7812958,2.1959753,-4.0569687,-2.6332512
1570714995,1.2479706,2.3906097,1.529892,1.0828247,-0.4126587,-0.3551941,0.074664354,-5.578528,-2.6832862
1570714995,1.2479706,2.3906097,1.529892,1.0828247,-0.4126587,-0.3551941,0.074664354,-5.578528,-2.6832862
1570714995,1.0690155,14.243103,12.102097,1.6026611,0.921051,-0.13999939,-0.056010008,3.6705894,7.882771
1570714995,1.0690155,14.243103,12.102097,1.6026611,0.921051,-0.13999939,-0.056010008,3.6705894,7.882771
1570714995,0.39624023,8.32164,5.7897797,-0.18804932,-0.88456726,-0.26463318,-0.9926932,1.869873,2.5661168
1570714995,0.5985565,7.478882,5.802353,-0.2381134,-0.80999756,-0.25930786,-0.7074554,0.17879868,2.7192245
1570714996,12.029663,12.622238,-2.4211426,1.0615082,3.3146973,1.1372528,9.840344,2.8331442,-4.442265
1570714996,12.707825,13.365631,-2.8916016,1.0615082,3.4712982,1.1266022,9.840344,2.8331442,-4.442265
1570714996,15.79216,16.451752,-2.252945,0.8665619,3.4712982,0.5417633,14.288143,7.6110535,-6.6169047
1570714996,0.715271,5.182251,-5.096054,0.47348022,1.2576752,0.9966278,0.22204137,-2.9035597,-6.7137346
1570714996,0.39683533,6.6947937,-5.181656,-0.2839203,0.17855835,1.2437744,-1.4342433,-2.8021145,-7.958061
1570714996,-0.047286987,9.056061,-5.443817,0.27427673,-1.4736633,0.71113586,-1.3373718,-0.779665,-7.4243174
1570714996,-2.4462738,11.438293,-3.7211914,0.82289124,-3.0257568,0.049606323,-3.3980289,2.2799997,-6.1721897
1570714996,-3.7960052,14.0156555,9.578003,1.3736267,-1.1615448,0.10501099,-5.808602,4.8494663,4.7645645
1570714996,-0.6111145,7.442383,-0.3615265,2.535843,3.1091003,-1.1392212,-2.5489545,-0.6368799,0.38686168
1570714996,1.1288605,6.1842194,1.4957733,1.4769592,3.5447998,-1.6516113,0.075645566,-2.809761,0.1209164
1570714996,0.7667389,6.225525,3.2327728,1.6836243,3.7003326,-1.6121979,0.21175158,-3.0277433,2.7741942
1570714996,1.098938,8.471878,-0.82899475,1.887085,2.1674042,-0.50219727,0.8198701,-0.33924866,0.047318816
1570714996,1.098938,8.471878,-0.82899475,1.887085,2.1674042,-0.50219727,0.8198701,-0.33924866,0.047318816
1570714996,0.8571167,7.593216,-1.5646057,0.82928467,0.4640503,0.058135986,0.558468,-1.2899618,-0.3011284
1570714996,0.21308899,7.566269,-0.8032532,0.104904175,0.3117218,0.47572327,-0.090093374,-1.5090246,0.40784192
1570714996,0.56622314,8.853165,0.039505005,-0.2104187,0.6632538,0.8911743,-0.1472215,-0.38384724,1.3074975
1570714996,2.8359375,11.672928,1.5119324,0.23486328,0.7250366,0.77293396,1.9462421,2.52394,2.9982953
1570714996,-1.953064,10.436325,-0.40701294,0.34458923,-1.1253204,0.20513916,-2.86538,1.6693544,0.84153557
1570714996,-1.953064,10.436325,-0.40701294,0.34458923,-1.1253204,0.20513916,-2.86538,1.6693544,0.84153557
1570714996,-1.9782104,12.275665,1.8118134,0.25723267,-1.7016296,-0.075027466,-2.9372518,2.8632498,3.4147308
1570714996,-1.7405853,14.0629425,-1.4526825,-1.6921997,0.21478271,-0.57569885,-2.6702256,5.0734663,0.9063343
1570714996,-1.7405853,14.0629425,-1.4526825,-1.6921997,0.21478271,-0.57569885,-2.6702256,5.0734663,0.9063343
1570714996,3.016693,9.271545,-0.78230286,-3.5872955,-2.6880646,-0.3594513,2.2546084,0.24015713,-0.69574404
1570714996,2.6629486,8.8962555,0.18495178,-3.8291168,-2.517624,-0.37435913,2.6237717,-0.15503502,-0.14510559
1570714996,0.42736816,10.406998,2.5091248,-3.16333,-0.13781738,0.74417114,-0.028789788,0.9934797,0.75659275
1570714996,5.1792603,9.361923,-0.27114868,-0.7164154,0.8422241,-0.48301697,8.030845,1.6626997,-2.2573047
1570714996,5.1792603,9.361923,-0.27114868,-0.7164154,0.8422241,-0.48301697,8.030845,1.6626997,-2.2573047
1570714996,-2.573166,7.5004425,-3.6780853,-1.3119049,-2.3067017,0.1572113,-2.9602625,-1.1674795,-8.699464
1570714996,-1.4484863,10.848724,1.948288,-2.2503967,-0.45846558,0.06878662,-2.6495285,1.8566914,0.1543293
1570714996,1.8267822,8.899841,-2.4989471,-2.6147156,-0.9559479,-0.17303467,-1.9439313,0.9924936,-9.942567
1570714996,3.0651703,4.896744,-0.31243896,-2.6029968,-1.9722137,-0.34666443,2.0340927,-2.578392,-5.7003756
1570714996,2.7844543,1.9943695,2.4414825,0.22634888,-0.5863037,-0.3882141,1.669168,-5.9165483,-1.8002515
1570714996,2.7844543,1.9943695,2.4414825,0.22634888,-0.5863037,-0.3882141,1.669168,-5.9165483,-1.8002515
1570714997,0.8894501,3.9282837,3.541626,1.5312958,-0.16764832,-0.04626465,-0.27164555,-4.4150925,-1.1029396
1570714997,0.8894501,3.9282837,3.541626,1.5312958,-0.16764832,-0.04626465,-0.27164555,-4.4150925,-1.1029396
1570714997,0.64164734,19.612701,14.202408,1.0647125,0.111450195,-0.121902466,0.0073064566,10.823373,10.4271965
1570714997,0.64164734,19.612701,14.202408,1.0647125,0.111450195,-0.121902466,0.0073064566,10.823373,10.4271965
1570714997,2.6503754,4.0545807,5.747284,0.02394104,-0.5095978,-0.1559906,1.2276385,-3.9990778,2.4643269
1570714997,2.6503754,4.0545807,5.747284,0.02394104,-0.5095978,-0.1559906,1.2276385,-3.9990778,2.4643269
1570714997,11.348511,14.076706,-2.111679,1.2276917,2.3335876,1.5942535,7.618263,3.0820608,-1.9724543
1570714997,13.168106,15.343246,-3.5505981,1.0252991,1.8701935,0.9838562,11.719306,7.172551,-8.080588
1570714997,1.4053955,6.1363373,-3.1914673,0.28067017,2.5104218,0.82299805,-0.11335945,-3.0189724,-5.393536
1570714997,1.4053955,6.1363373,-3.1914673,0.28067017,2.5104218,0.82299805,-0.11335945,-3.0189724,-5.393536
1570714997,0.6458435,9.555862,-4.865616,0.5065155,0.9764404,0.8581543,-0.748142,1.0770674,-7.321194
1570714997,-2.2673035,12.0961,6.5918427,0.8633728,-1.75383,0.5321808,-4.0189333,3.0467415,0.42093372
1570714997,-2.2673035,12.0961,6.5918427,0.8633728,-1.75383,0.5321808,-4.0189333,3.0467415,0.42093372
1570714997,-0.97862244,7.558502,0.7080841,2.7744598,0.60040283,-0.67477417,-3.1198015,-0.88492966,0.1357038
1570714997,-0.97862244,7.558502,0.7080841,2.7744598,0.60040283,-0.67477417,-3.1198015,-0.88492966,0.1357038
1570714997,1.7232208,7.419037,1.6184845,1.8370209,1.9532928,-1.0433502,-0.1474396,-1.6687136,1.5131335
1570714997,0.20291138,7.404068,-0.6069336,0.85697937,1.9309235,-1.201004,-1.033494,-1.4337368,-0.65120035
1570714997,0.7008972,8.022369,1.7938538,0.8612366,1.1468811,-0.82496643,-0.25496876,-1.1051712,1.7228335
1570714997,0.5698242,8.684372,0.16998291,1.1073151,0.70906067,-0.47236633,-0.16472077,-0.3610611,1.0390335
1570714997,0.8840637,7.8045044,0.25498962,0.45643616,1.1341095,0.15187073,0.032579422,-1.2606125,0.8617476
1570714997,0.925354,7.8069,0.24481201,0.436203,1.1937561,0.18276978,0.07798445,-1.2046967,1.0113714
1570714997,1.8650818,9.285904,1.2773132,0.4628296,1.6752625,0.39369202,0.73559487,0.077254295,1.9450591
1570714997,1.2006989,10.383057,-0.64164734,1.0668335,0.9881592,0.37557983,0.13959932,1.3967896,0.76441205
1570714997,-1.3838501,10.110718,-2.079361,0.7611084,-1.545044,0.2818451,-2.391766,1.2887907,-0.9612982
1570714997,-1.7537537,9.947311,-0.22026062,0.7121124,-3.1077728,0.30633545,-2.9363682,1.1208057,0.84866595
1570714997,-2.8718414,12.45105,3.1854858,-0.6461029,-1.1530151,0.3894348,-3.8997693,3.2786446,5.9461484
1570714997,-2.9340973,12.62941,2.4606476,-0.8591614,-0.910141,0.3926239,-3.8997693,3.2786446,5.9461484
1570714997,-1.7752991,14.028229,0.03591919,-3.6501465,-0.3391571,-0.55758667,-2.9316173,5.559263,0.13047576
1570714997,0.55844116,8.71788,-1.6478119,-3.3412323,-1.8518372,-0.50006104,0.16662139,-0.22794151,-2.1707888
1570714997,0.60453796,8.796295,-1.6370392,-3.3327026,-1.8283997,-0.4350891,-0.04379785,-0.3912878,-2.397545
1570714997,15.207367,13.396164,0.38546753,-1.7784882,0.6217041,0.09329224,13.896046,5.537382,-2.2120867
1570714997,15.207367,13.396164,0.38546753,-1.7784882,0.6217041,0.09329224,13.896046,5.537382,-2.2120867
1570714997,-5.033203,7.9038544,-1.2868805,-1.6325378,-1.4086761,-0.1410675,-4.1335773,-0.30152607,-3.6407824
1570714997,-5.033203,7.9038544,-1.2868805,-1.6325378,-1.4086761,-0.1410675,-4.1335773,-0.30152607,-3.6407824
1570714998,-3.2004547,10.51413,-3.7325592,-1.5388031,-0.6395569,-0.71951294,-3.4145384,2.1716805,-5.3756866
1570714998,3.0406342,6.281189,0.008972168,-2.653061,-2.26622,-0.19859314,1.1856349,-1.604353,-5.4552784
1570714998,4.360443,3.4255066,3.178894,-1.5696869,-2.0212097,-0.51924133,3.3305736,-4.5919113,-0.8596859
1570714998,4.585495,3.530243,3.3345184,-1.1457214,-1.9232025,-0.5597229,3.4356844,-4.4570932,-1.4436827
1570714998,2.6342163,2.7581177,2.2008667,0.50224304,-0.5383606,-0.42123413,1.7662596,-5.275009,-1.7413793
1570714998,2.1769257,2.9107513,2.0667877,0.7344818,-0.34661865,-0.33815002,1.1728487,-5.1381063,-1.8506823
1570714998,1.0642242,6.3572083,2.7180176,1.376831,0.004928589,-0.026016235,-0.020493627,-2.6370497,-1.3620262
1570714998,0.85832214,8.902832,5.1565094,1.4194336,-0.122909546,-0.121902466,-0.25789046,-0.17493916,1.0249326
1570714998,0.6099243,17.004211,11.4227295,1.0114441,-0.45100403,-0.11869812,-0.23175669,7.158145,7.531228
1570714998,-0.3250122,11.717819,8.24324,0.19865417,-0.53622437,-0.22309875,-1.5244696,4.7518816,5.6787643
1570714998,2.858673,5.5330048,5.0529633,0.5714874,-0.34448242,0.29675293,1.1892451,-3.7702703,1.7384257
1570714998,4.062958,8.248032,4.2149963,1.2191772,0.28614807,0.7878418,2.1746774,-1.4543543,2.787294
1570714998,6.442795,10.032303,-0.96665955,1.0359497,2.290985,0.5332489,5.5697517,2.3553982,-3.5569148
1570714998,5.977127,9.606735,-0.91578674,1.0178375,2.2952423,0.49916077,5.025241,1.5241766,-3.21013
1570714998,2.4803925,7.5722656,-3.3249512,0.625824,1.476059,0.649353,1.1889954,-1.277503,-4.746352
1570714998,0.0909729,6.7737885,-4.044403,0.22314453,0.35646057,0.77186584,-1.1972774,-1.8747511,-5.8944564
1570714998,-0.42736816,7.039551,-4.061157,0.37760925,-0.9420929,0.838974,-2.2148788,-1.8730631,-5.8129706
1570714998,0.4405365,13.274658,3.7451324,0.61517334,-3.0353394,0.5918274,-1.9961286,4.1602917,-0.04736507
1570714998,-0.30586243,12.881409,7.139511,1.9265137,-1.5514221,-0.5352173,-2.1712112,5.16615,6.3434033
1570714998,-2.6396027,7.9164276,3.5948944,2.3536835,0.4086609,-1.2297668,-4.598803,-0.329422,3.538016
1570714998,0.3609314,6.700775,-0.3501587,1.2841492,2.449707,-1.1413574,-1.8379815,-2.2457695,-0.278336
1570714998,0.7008972,6.3781586,1.9620514,0.9240875,2.5658112,-1.5099335,-0.6951362,-2.6737137,1.4595448
1570714998,0.89901733,9.608536,1.7100525,1.9872284,2.9365234,-1.0071259,-0.20425749,0.85475063,2.7618952
1570714998,1.2868805,9.103958,1.138443,1.99469,2.7788696,-0.8516083,0.35076064,0.23707485,1.8321048
1570714998,1.2024841,7.5399323,-0.75956726,1.8508759,2.1695404,-0.47129822,0.2985645,-1.2210541,1.0969259
1570714998,0.28251648,7.000046,-3.2483368,0.41490173,1.0467529,0.10501099,-0.35387677,-1.9458857,-1.8094499
1570714998,2.482193,10.919952,1.5646057,-0.4000244,-0.607605,0.7313843,0.8480365,1.5638103,2.1924539
1570714998,2.482193,10.919952,1.5646057,-0.4000244,-0.607605,0.7313843,0.8480365,1.5638103,2.1924539
1570714998,0.82121277,10.639832,0.6979065,0.41062927,-0.9143982,0.17744446,0.15786874,1.8820162,2.343412
1570714998,-1.8453369,9.5720215,1.398819,0.4042511,-0.39242554,0.102874756,-2.8894868,0.554471,2.410582
1570714998,-2.5067291,12.163742,0.04309082,0.6162262,-0.82385254,0.15081787,-3.506597,2.617487,1.9268227
1570714998,-3.8606567,13.945023,-1.5466614,-0.1592865,-1.4491577,0.07411194,-4.502295,4.834548,-0.33621573
1570714999,1.617279,9.570221,0.1484375,-2.411255,-1.8294678,-0.97836304,0.71770906,0.54692173,0.7779887
1570714999,1.9686279,9.334991,0.12269592,-2.4730377,-1.8497009,-0.992218,0.71770906,0.54692173,0.7779887
1570714999,1.7657166,10.004166,0.4339447,-3.607544,-1.4054871,0.9124756,0.8749829,-0.057099342,-1.4791474
1570714999,1.7657166,10.004166,0.4339447,-3.607544,-1.4054871,0.9124756,0.8749829,-0.057099342,-1.4791474
1570714999,13.719376,14.233536,2.2828674,-2.4538574,0.34687805,0.19023132,13.0212145,6.010044,0.7318908
1570714999,2.8945923,8.851959,-2.2469635,-0.5992279,0.91252136,-0.012176514,2.9650445,0.213274,-3.4675035
1570714999,-2.637207,10.83017,1.9506683,-1.5611725,-0.701355,-0.07609558,-3.50879,2.038909,-0.5336158
1570714999,-2.8012085,10.997772,1.6699524,-1.5601044,-0.50213623,-0.07609558,-3.50879,2.038909,-0.5336158
1570714999,4.3023834,6.3081207,0.32859802,-2.6360168,-1.0901642,-0.13894653,2.250084,-2.1815376,-3.6480207
1570714999,4.056381,4.8871613,0.7757263,-2.3473358,-1.4289246,-0.3839569,3.431572,-2.616521,-3.4037132
1570714999,3.1759033,2.2750854,2.6533813,-0.60136414,-1.4054871,-0.5096588,2.2158666,-5.415892,-2.1250997
1570714999,1.9243469,2.629425,2.1727448,1.0093079,-0.30187988,-0.15811157,0.84590983,-5.5157685,-2.2115788
1570714999,1.9243469,2.629425,2.1727448,1.0093079,-0.30187988,-0.15811157,0.84590983,-5.5157685,-2.2115788
1570714999,1.3748779,3.8504791,2.300232,1.6069336,0.021972656,0.03895569,0.2214489,-4.663307,-1.9139848
1570714999,1.0576324,7.791931,4.6932373,1.8647156,0.30851746,0.048553467,-0.069985986,-1.5127811,0.51456976
1570714999,1.2336121,19.612701,13.524841,0.82289124,0.8390198,-0.14639282,0.35847747,8.281306,8.781801
1570714999,2.5210876,3.9288788,4.6393585,-0.40748596,-0.6044159,-0.086746216,0.38833046,-3.5155334,1.8682871
1570714999,2.5210876,3.9288788,4.6393585,-0.40748596,-0.6044159,-0.086746216,0.38833046,-3.5155334,1.8682871
1570714999,3.3117828,3.4045563,6.597824,0.42662048,-0.6395569,0.2637329,2.001029,-5.9301605,2.4276261
1570714999,10.650604,13.813339,-1.91716,1.4023895,2.9674225,1.2661438,7.6367655,3.7653265,-5.5457125
1570714999,3.257904,9.431366,0.53330994,2.1257172,1.4877777,0.5353699,2.0101633,1.6491184,-0.65516925
1570714999,1.3706818,6.4649506,-5.197815,0.36695862,1.7551575,0.4629364,0.70638657,-1.6051941,-7.237111
1570714999,0.41299438,5.826889,-5.0900726,-0.111343384,1.6912384,0.5385742,-0.5944693,-2.5587387,-7.136677
1570714999,0.0071868896,6.5714874,-3.589508,-0.10069275,-1.1008148,0.80274963,-1.676096,-2.2886171,-5.4587555
1570714999,-1.0007782,9.959274,-2.9891663,0.7195587,-3.444397,0.5396271,-2.882003,0.7117691,-5.246927
1570714999,-0.8236084,14.083298,4.3197327,1.293747,-2.680603,0.30740356,-2.946402,4.5719843,1.7539356
1570714999,-1.6765442,9.450516,4.3903656,2.651947,0.8092041,-0.85798645,-3.747739,2.0866013,4.69509
1570714999,1.6681671,6.9066772,0.16938782,1.6910858,3.3221588,-1.421524,-0.14798152,-1.95751,0.021891654
1570714999,0.4219818,7.9912415,2.1368256,1.7400818,3.8803558,-1.1253815,-0.55574614,-1.4391832,2.489164
1570714999,0.56622314,8.246826,2.063202,1.7773743,3.8313599,-1.0625305,-0.48180813,-1.1407957,2.4390068
1570714999,1.0983429,8.270767,-1.0067596,1.8061371,2.2196045,-0.50538635,0.64946383,-0.4608755,0.50269943
1570714999,0.67097473,7.6267242,-2.1601715,1.2436676,1.3013458,-0.23054504,0.13328117,-1.1414957,-0.7702321
1570714999,0.45788574,8.71489,0.5297241,-0.4692688,-0.46592712,0.7090149,-0.5627779,-0.57940674,1.053887
1570714999,0.48483276,8.850174,0.6901245,-0.45115662,-0.49787903,0.73031616,-0.42907768,-0.3045292,1.5145187
1570715000,0.90979004,10.668564,0.30107117,0.07295227,-0.14741516,0.49169922,-0.20719028,1.7259264,1.43245
1570715000,0.91937256,10.699081,0.3256073,0.079330444,-0.10586548,0.45440674,-0.20719028,1.7259264,1.43245
1570715000,-1.9518738,10.431534,1.3365631,0.59706116,-0.13995361,-0.12509155,-3.065812,1.5670471,2.619343
1570715000,-1.9662323,10.39563,1.3353729,0.62475586,-0.18362427,-0.1325531,-3.1287766,1.522809,2.5422168
1570715000,-1.869278,10.438721,2.2565308,0.8612366,-0.6310425,-0.28701782,-2.947147,1.4253788,3.677871
1570715000,-1.656784,11.152191,1.5227051,0.41490173,-0.27737427,-0.25079346,-2.5886178,1.8822308,3.7413077
1570715000,-1.6705475,14.284409,-2.3229675,-1.9276276,-0.33596802,-0.3360138,-2.5567546,5.005474,-0.82450795
1570715000,0.8672943,9.539093,-0.14186096,-3.929245,-2.6869965,-0.52349854,0.4619828,0.9239197,-0.44299388
1570715000,0.8672943,9.539093,-0.14186096,-3.929245,-2.6869965,-0.52349854,0.4619828,0.9239197,-0.44299388
1570715000,-0.11013794,9.880875,0.69252014,-3.3124695,-1.5982971,0.12738037,-0.6852353,0.4085045,-0.62800646
1570715000,10.658981,9.58519,1.8261719,-1.1798096,1.7082825,-0.7823639,15.196346,3.7144327,-2.7106378
1570715000,10.658981,9.58519,1.8261719,-1.1798096,1.7082825,-0.7823639,15.196346,3.7144327,-2.7106378
1570715000,0.43754578,7.677002,-4.905121,0.13899231,-1.3735352,-0.48301697,0.8424963,-0.422184,-6.0330925
1570715000,-2.510315,10.411789,-0.15681458,-2.1555939,-2.039322,-0.19859314,-2.8098328,1.2318573,-2.7951622
1570715000,-4.355057,8.521561,-2.3415222,-2.5934143,-1.5940399,-0.17941284,-5.629316,0.9038,-6.2802916
1570715000,3.0190887,5.151123,0.51116943,-2.3398743,-1.1732635,-0.22949219,1.6136938,-2.3590698,-3.0087929
1570715000,4.3508606,3.7056274,3.2124176,-0.50442505,-1.3522186,-0.7599945,3.368287,-3.863368,-1.2153835
1570715000,3.0107117,2.2337952,3.1142578,0.2636261,-0.53622437,-0.6119232,1.9251276,-5.569102,-1.2536554
1570715000,0.6296692,3.9606018,2.21344,1.3704376,0.012374878,-0.19326782,-0.4651749,-4.3016386,-1.9431908
1570715000,0.6296692,3.9606018,2.21344,1.3704376,0.012374878,-0.19326782,-0.4651749,-4.3016386,-1.9431908
1570715000,0.620697,19.612701,12.146378,0.9837494,0.25099182,0.2637329,0.12690699,7.9907026,8.609558
1570715000,0.620697,19.612701,12.146378,0.9837494,0.25099182,0.2637329,0.12690699,7.9907026,8.609558
1570715000,-0.6141052,11.810593,8.254608,0.107040405,-1.0028229,-0.121902466,-1.5291886,6.4655857,6.0437965
1570715000,0.65301514,6.2674255,5.5515594,-0.07299805,-0.7759094,-0.16557312,-1.0608622,-1.0608797,3.124732
1570715000,2.82576,4.897934,4.550186,0.8612366,0.2637787,0.23390198,1.4653064,-4.099184,2.1836257
1570715000,5.036804,7.0808563,1.2120667,1.3203735,1.6805878,0.64723206,3.3891563,-2.0156069,-0.75769854
1570715000,11.131836,19.15062,-3.182495,0.9517822,3.08461,0.8645325,9.516313,10.09583,-5.672381
1570715000,3.0585938,9.491806,0.48542786,1.4290314,1.6070862,0.77293396,0.8456522,1.385109,0.50200295
1570715000,2.1805267,7.458542,-3.97258,1.1051941,0.3905487,0.47572327,1.4954377,-0.47983074,-5.049652
1570715000,-0.53689575,4.1880646,-4.751892,0.20397949,-0.87498474,0.6216583,-1.7018691,-4.212804,-5.985182
1570715000,-0.27174377,7.863159,0.0,0.5864105,-3.508316,0.5375061,-1.9961048,-2.1548214,-3.0663896
1570715000,-2.2900543,11.654373,7.8613586,1.2138519,-0.054733276,-0.69714355,-4.3806114,3.5495195,6.595934
1570715000,-2.2900543,11.654373,7.8613586,1.2138519,-0.054733276,-0.69714355,-4.3806114,3.5495195,6.595934
1570715001,1.2701263,6.6103973,-0.7745209,1.0998688,3.3551788,-1.4140625,-0.36492252,-2.1451502,-0.32713267
1570715001,0.023345947,5.185837,0.07841492,0.5065155,3.2614288,-1.5876923,-1.0380083,-3.717987,-1.2466264
1570715001,-0.13287354,6.6181793,3.5553894,0.82714844,3.3328094,-1.3011475,-0.8853219,-3.0193167,2.5823624
1570715001,0.18675232,8.868118,-0.41778564,1.4577942,2.959961,-0.3647766,-0.6814485,-0.41084385,-0.07416271
1570715001,0.89123535,8.418015,-0.5883789,1.2372742,2.5743408,-0.06756592,0.17853296,-0.5078287,-0.43453118
1570715001,1.8190002,8.446747,0.40881348,1.3576508,1.7167969,0.124176025,0.99765646,-0.5646,1.018144
1570715001,1.3263855,8.696335,-1.2060852,1.3224945,0.74102783,0.11352539,0.8260846,-0.3691578,-0.22589701
1570715001,1.1085205,10.049057,-1.0402832,0.88360596,-0.2837677,0.57691956,0.3988006,0.9079075,0.26010358
1570715001,-0.09996033,10.73201,-1.7968445,0.8079834,-2.1447754,0.46400452,-0.6169278,1.9419336,-0.40180337
1570715001,-2.0823517,9.84137,1.0456696,0.6322174,-3.0172272,0.45547485,-2.713235,1.1067247,2.2265968
1570715001,-1.2892761,10.755951,5.6239777,0.47348022,-1.8465118,0.41394043,-2.3487594,1.8734751,7.3650465
1570715001,-1.6448212,10.650009,3.052002,-0.6098938,0.8155823,0.05493164,-2.5331628,1.8373184,5.500792
1570715001,-2.111084,13.522446,-1.4514923,-1.967041,0.5641937,-0.27209473,-2.8719602,4.3736563,0.03962171
1570715001,-1.5287018,13.310562,-2.525879,-2.8320312,-1.9338531,-0.45957947,-2.245948,4.917532,-1.9411757
1570715001,0.030532837,10.285492,-1.217453,-3.6725159,-3.3868866,-0.3317566,-0.86706984,1.0748138,-1.8546169
1570715001,-0.4447174,9.835983,1.1970978,-3.6192627,-1.8081512,-0.23161316,-0.6257507,0.53753376,0.052006125
1570715001,-0.8200073,11.190506,2.0153198,-2.4187012,-0.5383606,1.1180725,-1.8761468,1.9579811,-0.10762441
1570715001,2.1338348,9.256577,-3.178299,-0.14329529,-0.42012024,-0.19433594,2.4429717,0.08622074,-4.2616124
1570715001,1.8243866,9.471466,-3.384201,-0.21786499,-0.74502563,-0.22416687,1.559463,0.37652302,-5.608327
1570715001,-3.272873,9.441528,-0.046691895,-1.9808807,-1.8518372,-0.16664124,-3.9175723,0.1584034,-3.4910882
1570715001,-1.5292969,7.843399,-0.7577667,-2.654129,-1.4832458,-0.20817566,-5.4195538,0.4007597,-4.358884
1570715001,2.66893,4.8255157,-0.40222168,-2.4890137,-1.4715271,-0.21244812,1.3110747,-2.8517551,-4.55733
1570715001,4.0216675,1.9740143,3.462616,-0.32972717,-1.3202667,-0.6119232,2.921752,-5.666619,-1.1797476
1570715001,3.8971558,1.8824463,3.4255066,-0.22746277,-1.2329102,-0.60765076,2.921752,-5.666619,-1.1797476
1570715001,2.6551666,1.8836365,1.9871826,0.7099762,-0.5905609,-0.33068848,1.6046839,-6.0449247,-2.1436744
1570715001,1.5711975,4.1216125,2.8909912,1.6324921,0.058181763,0.07197571,0.3573408,-4.2384167,-1.3819065
1570715001,1.256958,8.429382,6.296158,1.9158478,0.9135895,0.017654419,0.21050143,-0.53263664,2.3206306
1570715001,1.3078308,14.27124,10.405197,1.4780273,0.95939636,-0.053710938,0.2796868,3.202052,5.1864533
1570715001,-0.1197052,15.330673,8.294708,0.1581726,-0.7716522,-0.36584473,-0.9607096,9.370305,6.0818477
1570715001,0.46148682,4.984131,5.173874,-0.2615509,-0.58309937,-0.32748413,-0.82411176,-2.4608831,2.4001856
1570715001,1.6998901,1.8052216,4.8638153,0.36270142,-0.25500488,0.24562073,0.81877315,-6.8176584,1.4804914
1570715001,7.4136505,9.585785,-1.6017151,1.5600586,3.4638367,1.364151,5.028137,-0.6931915,-2.2458735
1570715001,12.698242,17.41063,-3.8528748,1.4716339,3.6246948,1.1638794,10.890958,6.9692917,-6.7099295
1570715001,1.8794556,10.460861,1.8471222,2.2780457,0.9008179,0.91993713,0.26162076,2.7530947,1.4051504
1570715002,-1.5077515,5.167877,-3.229187,-0.28071594,-0.3892212,0.6589508,-2.8900957,-3.6232624,-5.3521786
1570715002,-1.4868011,5.167877,-3.0148926,-0.32972717,-0.44674683,0.70262146,-2.8900957,-3.6232624,-5.3521786
1570715002,-1.2916718,12.332535,-2.7760773,0.94007874,-1.9114838,0.63656616,-3.723772,3.0497217,-3.958869
1570715002,-0.89723206,12.514496,-2.6437988,0.8729553,-1.8486328,0.6216583,-3.723772,3.0497217,-3.958869
1570715002,-1.1121063,11.60051,6.9946594,1.2074585,-0.3807068,-0.8281708,-2.6876597,3.8180962,4.97107
1570715002,1.3144226,6.6552887,-0.25976562,1.2575226,2.8875275,-1.3363037,0.012874961,-2.1948757,-0.6417304
1570715002,1.3144226,6.6552887,-0.25976562,1.2575226,2.8875275,-1.3363037,0.012874961,-2.1948757,-0.6417304
1570715002,0.6201019,7.700943,2.2038574,1.2255554,3.6715698,-1.1317596,-0.034646332,-1.6267061,2.5363178
1570715002,1.3994141,8.626907,0.69132996,1.250061,3.1485138,-0.4063263,0.857127,-0.20229626,0.7674931
1570715002,1.3688812,8.544907,0.6787567,1.250061,3.1485138,-0.4063263,0.81453353,-0.37174797,0.97420454
1570715002,-0.18016052,7.7177124,-1.7286072,0.54592896,0.54608154,0.28823853,-0.8600323,-1.2272835,-1.1482937
1570715002,-0.18016052,7.7177124,-1.7286072,0.54592896,0.54608154,0.28823853,-0.8600323,-1.2272835,-1.1482937
1570715002,0.47644043,9.051285,0.65960693,0.19970703,-0.24435425,0.6940918,-0.41190237,-0.10080433,1.4863136
1570715002,0.84036255,10.19751,0.3549347,0.3105011,-0.42544556,0.69303894,-0.11864257,1.0681133,1.4356549
1570715002,0.19752502,10.461472,0.2813263,0.3381958,-0.8590088,0.2946167,-0.66179025,1.5353727,1.2983717
1570715002,-1.4472961,10.0269165,1.7184448,0.49266052,-0.9410248,-0.0579834,-2.5245643,1.0634642,2.9667397
1570715002,-1.4472961,10.0269165,1.7184448,0.49266052,-0.9410248,-0.0579834,-2.5245643,1.0634642,2.9667397
1570715002,-1.6807251,11.956039,-0.9217682,-0.42027283,0.37669373,-0.37861633,-2.303366,2.7082024,0.9043181
1570715002,-1.8058319,12.167328,-1.1983032,-0.5406494,0.33195496,-0.37010193,-2.303366,2.7082024,0.9043181
1570715002,1.2282257,9.273346,-0.7745209,-3.2070007,-3.140808,-0.30511475,-0.0400742,0.3089981,-0.46936533
1570715002,1.2282257,9.273346,-0.7745209,-3.2070007,-3.140808,-0.30511475,-0.0400742,0.3089981,-0.46936533
1570715002,0.23103333,9.360138,1.8112183,-3.5638733,-1.9722137,0.6131439,-0.41512537,0.14479351,0.3684939
1570715002,0.23103333,9.360138,1.8112183,-3.5638733,-1.9722137,0.6131439,-0.41512537,0.14479351,0.3684939
1570715002,7.7033386,14.2885895,0.16459656,-1.8945923,0.43954468,1.3034363,3.106392,4.136052,-0.8116807
1570715002,2.2679138,9.654022,-0.9911957,-0.5587616,1.1820374,-0.40312195,2.925161,0.5032978,-1.8164544
1570715002,-2.47081,8.4257965,0.9289551,-1.521759,-2.089386,0.032562256,-3.4661903,-0.9091463,-3.1268315
1570715002,-1.1815338,10.448303,0.8164215,-1.8168335,-1.4640808,-0.29553223,-2.3144586,1.347352,-1.973593
1570715002,3.1854858,5.0355988,0.917572,-2.0714264,-1.355423,-0.2422638,2.533493,-2.3895464,-2.8695333
1570715002,3.1854858,5.0355988,0.917572,-2.0714264,-1.355423,-0.2422638,2.533493,-2.3895464,-2.8695333
1570715002,3.5960846,3.9558258,3.1178436,-0.85595703,-1.2435608,-0.44786072,2.4499521,-4.048603,-1.0091052
1570715002,2.8862152,2.9652252,2.5288696,0.053771973,-0.5863037,-0.5650482,1.9505196,-4.8664703,-1.3242316
1570715002,2.079956,2.680313,0.93733215,0.80584717,-0.2134552,-0.27316284,1.0802662,-5.420909,-2.987253
1570715002,1.6005249,4.62619,2.1086884,1.6900177,0.30532837,0.04748535,0.6308577,-4.4662333,-1.5239036
1570715002,1.7878723,8.899841,4.679474,1.9328918,0.6408844,0.09754944,0.7491888,-0.62690735,0.7912891
1570715003,0.2962799,19.612701,12.420517,0.4862671,1.7104187,-0.031341553,0.09981561,8.61063,7.838684
1570715003,-2.1685486,8.373718,8.985443,0.54486084,-0.38389587,-0.5320282,-3.1104615,1.0035505,6.6328945
1570715003,1.5993195,5.174469,2.632431,0.3147583,-0.05152893,-0.06010437,0.37920147,-3.5511513,-0.071172
1570715003,9.938324,14.779404,-3.5930939,0.85697937,0.99775696,1.506897,8.00532,5.649081,-5.7970567
1570715003,10.530304,14.670471,-3.3027954,0.7280884,1.096817,1.3289948,9.018968,6.051944,-5.934026
1570715003,4.05159,7.138916,1.4562683,0.5576477,1.0787048,0.25520325,3.5532975,-0.75981236,-1.5365705
1570715003,2.9065552,6.000473,1.6448212,0.99546814,1.7743225,0.3383026,1.6474166,-2.984002,0.104613304
1570715003,2.9089508,7.7111206,-2.2481537,0.483078,2.4944458,0.49276733,1.8787807,-1.2611961,-3.7564619
1570715003,0.8637085,7.19458,-3.5326385,0.6396637,1.3471527,0.6621399,-0.07963014,-1.3449459,-5.191187
1570715003,-0.10774231,8.472488,-5.4803314,0.6343384,-1.0337067,0.94976807,-1.2600694,-0.7693062,-6.70653
1570715003,0.03831482,13.071152,9.299683,1.4759064,-2.5399933,-0.1921997,-1.1165147,4.317155,5.4413342
1570715003,-0.3423767,12.710815,9.879074,1.6889496,-2.2747498,-0.32962036,-1.8070041,4.338665,7.838915
1570715003,0.13647461,7.787735,0.14964294,1.758194,3.0270844,-0.85266113,-2.119026,-1.1479216,0.47023866
1570715003,1.091156,7.755417,0.3429718,1.2319489,3.3445282,-1.1573334,-0.5717795,-1.049902,-0.023377903
1570715003,-0.19572449,7.5764465,2.2248077,1.074295,3.5202942,-1.4012756,-0.9454669,-1.6168575,2.3393247
1570715003,-0.36332703,8.388092,1.4790192,1.2947998,3.1570435,-0.9890137,-1.334159,-0.8052654,2.1951058
1570715003,0.15083313,7.6506653,-2.0967255,1.0679016,1.4835052,-0.2614441,-0.3713526,-1.181406,-0.7454256
1570715003,-0.0071868896,7.784149,-0.6488342,-0.17951965,0.5109253,0.47358704,-0.8854691,-1.4209194,-0.22961515
1570715003,0.15203857,7.8451996,-0.4920044,-0.20188904,0.4693756,0.51620483,-0.8854691,-1.4209194,-0.22961515
1570715003,1.5675964,9.721649,0.9906006,0.0068969727,-0.08456421,0.696228,0.57637465,0.6206379,1.798934
1570715003,0.1083374,10.925339,-0.5716095,0.52674866,-1.1764526,0.036834717,-0.57078075,2.0923023,0.48404074
1570715003,0.1083374,10.925339,-0.5716095,0.52674866,-1.1764526,0.036834717,-0.57078075,2.0923023,0.48404074
1570715003,-2.056015,10.667358,1.9369049,0.7344818,-2.1628876,-0.026016235,-2.946051,1.3381271,2.7655416
1570715003,-2.2481537,11.70047,1.783081,0.52674866,-1.6675415,-0.04626465,-2.8993182,2.897005,3.3802104
1570715003,-1.4520874,13.802567,-0.77812195,-1.5941925,-0.34448242,-0.37542725,-2.2919526,4.719639,0.9367666
1570715003,0.65600586,9.258972,-0.089782715,-2.7627869,-2.0489044,-0.5416107,-0.9030696,0.78657913,0.6617262
1570715003,1.1360474,9.142853,-0.0909729,-2.8245697,-2.1160126,-0.50645447,-0.024844557,0.28345776,0.5497535
1570715003,1.2348022,8.1336975,0.0077819824,-3.5414886,-1.8188171,0.36279297,0.8109559,-1.0449848,-0.7792769
1570715003,5.5336,13.031036,2.4307098,-2.8980713,-0.19854736,1.1159363,3.0488806,2.9069147,1.1128043
1570715003,0.052078247,9.694717,-6.934204,-1.1968536,0.77937317,0.20727539,0.61236966,1.0509214,-7.6205525
1570715003,0.052078247,9.694717,-6.934204,-1.1968536,0.77937317,0.20727539,0.61236966,1.0509214,-7.6205525
1570715003,-2.1577759,7.8374176,-2.0691833,-2.0075226,-2.1639557,0.6994171,-3.3252704,-0.81853676,-7.181142
1570715004,1.4077911,7.969696,-2.3696594,-2.304718,-0.6374359,-0.17941284,-2.1391268,0.59666157,-7.3900323
1570715004,1.4077911,7.969696,-2.3696594,-2.304718,-0.6374359,-0.17941284,-2.1391268,0.59666157,-7.3900323
1570715004,2.8604736,4.4208984,1.0013733,-1.5515747,-1.3160095,-0.4063263,1.4878151,-3.5166655,-3.0048127
1570715004,2.7754822,3.1759033,2.463028,-0.6120148,-1.2180023,-0.560791,1.8302892,-4.1890745,-1.8676362
1570715004,1.9668427,2.473816,1.7226257,0.6364746,-0.5628662,-0.30085754,0.8747368,-5.5096474,-2.327116
1570715004,1.6160889,2.7371674,1.8315582,1.0114441,-0.35513306,-0.13467407,0.41449547,-5.391938,-2.1574605
1570715004,2.1158752,7.881119,5.3971252,1.6793671,0.35113525,0.08476257,0.7036878,-1.2947617,1.1334102
1570715004,2.4774017,9.716263,7.1215515,1.7304993,0.40226746,0.051742554,1.0216286,0.3317318,2.7105956
1570715004,0.9900055,8.883682,7.518387,0.6375427,0.1583252,-0.32429504,-0.1524818,1.502245,4.881073
1570715004,0.9505005,8.883682,7.518387,0.6375427,0.1583252,-0.32429504,-0.1524818,1.502245,4.881073
1570715004,2.4893646,5.4252625,4.470566,0.86763,0.19348145,0.20727539,1.1387354,-3.637248,1.399689
1570715004,9.1853485,13.163315,-4.364029,0.3190155,2.4774017,0.7707977,8.119343,4.9567804,-7.1042185
1570715004,8.688553,12.598282,-3.980957,0.2593689,2.4102936,0.665329,8.119343,4.9567804,-7.1042185
1570715004,1.9674377,6.7025604,-0.79667664,0.307312,1.319458,0.6355133,0.97990274,-2.1197948,-2.8198009
1570715004,1.9674377,6.7025604,-0.79667664,0.307312,1.319458,0.6355133,0.6611105,-2.0054693,-3.0629044
1570715004,-0.9104004,10.251373,-4.8608246,0.34140015,-2.4654236,0.82299805,-2.6429772,1.1801443,-7.0250154
1570715004,-0.9104004,10.251373,-4.8608246,0.34140015,-2.4654236,0.82299805,-2.6429772,1.1801443,-7.0250154
1570715004,-1.7543488,10.834961,4.0228577,2.5986938,0.6643219,-0.50431824,-3.846521,3.0617228,4.459384
1570715004,-1.7543488,10.834961,4.0228577,2.5986938,0.6643219,-0.50431824,-3.846521,3.0617228,4.459384
1570715004,0.4925995,6.989273,1.1132965,1.1946716,3.0792694,-1.3043365,-1.5333583,-2.0163507,0.516741
1570715004,0.7870941,7.040756,1.2371979,1.1946716,3.0792694,-1.3043365,-1.0629673,-1.9844856,0.56461024
1570715004,0.08140564,8.040924,-0.4734497,1.6857605,0.87098694,-0.50538635,-0.7691665,-0.97198296,0.16532621
1570715004,0.08140564,8.040924,-0.4734497,1.6857605,0.87098694,-0.50538635,-0.7691665,-0.97198296,0.16532621
1570715004,2.0847473,8.516174,0.08859253,0.64286804,0.12849426,0.35746765,0.9921948,-0.8151903,0.8628909
1570715004,2.0847473,8.516174,0.08859253,0.64286804,0.12849426,0.35746765,0.9921948,-0.8151903,0.8628909
1570715004,0.49919128,9.461884,0.1777649,0.79200745,-0.32424927,0.6855774,-0.41520512,0.41683197,1.4103713
1570715004,0.49919128,9.461884,0.1777649,0.79200745,-0.32424927,0.6855774,-0.41520512,0.41683197,1.4103713
1570715004,-1.7950592,10.609299,0.3543396,0.027145386,-1.5855103,0.29675293,-2.5622783,1.7068911,1.0228442
1570715004,-1.8866272,10.608704,0.7302246,0.027145386,-1.5855103,0.29675293,-2.87147,1.7232866,1.6186888
1570715004,-2.0362701,10.548248,4.107254,0.15496826,-0.7418213,0.0592041,-3.4839966,1.7162743,5.807031
1570715004,-1.6759338,10.2872925,3.3297424,-0.051696777,-0.15486145,0.032562256,-2.885735,1.5303965,5.376545
1570715004,-2.0769653,12.697647,-2.1751251,-3.3295135,-1.9402466,-0.5128479,-2.964339,4.760584,-1.8742912
1570715004,-2.0105286,12.304398,-2.003952,-3.4275055,-2.0915222,-0.51498413,-2.957017,3.8564568,-1.7829599
1570715004,-0.104141235,10.390244,-1.5083466,-3.893036,-2.6347961,-0.52456665,-1.9788024,1.7182302,-1.2397418
1570715005,7.3825226,14.553162,1.3054352,-1.8328094,0.2052002,1.4067535,0.8915254,3.517784,0.11897659
1570715005,7.3825226,14.553162,1.3054352,-1.8328094,0.2052002,1.4067535,0.8915254,3.517784,0.11897659
1570715005,1.940506,9.838379,-2.4768066,-0.050628662,-0.013183594,-0.27635193,1.6462493,0.619359,-3.703985
1570715005,1.3964233,9.956894,-2.8880005,-0.013336182,-0.39242554,-0.30511475,1.6462493,0.619359,-3.703985
1570715005,-8.222885,7.633911,-7.5602875,-2.3526611,-1.5034943,-0.7184448,-8.142761,0.103453636,-9.031689
1570715005,-8.222885,7.633911,-7.5602875,-2.3526611,-1.5034943,-0.7184448,-8.142761,0.103453636,-9.031689
1570715005,3.9073334,3.9791565,-0.25558472,-2.3974,-2.3983154,-0.3125763,2.8066037,-3.7219763,-4.8644314
1570715005,3.8450928,2.5085297,2.6623535,-0.1720581,-1.1572876,-0.77171326,3.063544,-5.356431,-1.3677802
1570715005,3.7559052,2.431305,2.6677399,-0.07406616,-1.0795135,-0.769577,3.063544,-5.356431,-1.3677802
1570715005,1.8441315,3.1567535,1.6789398,1.3810883,0.035812378,-0.09100342,0.94974774,-5.217455,-1.9558578
1570715005,1.8441315,3.1567535,1.6789398,1.3810883,0.035812378,-0.09100342,0.94974774,-5.217455,-1.9558578
1570715005,1.8351593,7.309494,4.3149567,1.80719,0.27337646,0.08583069,0.9467773,-1.4874458,0.45653343
1570715005,1.0414734,19.612701,11.459244,0.6162262,0.4736328,0.26905823,0.04610312,10.134758,7.873846
1570715005,-2.261917,9.479248,9.136276,0.08039856,-0.7567444,-0.44892883,-3.3177416,2.9322052,6.406391
1570715005,-0.6889343,5.3342743,6.6397247,0.14538574,-0.10267639,-0.34347534,-1.9310131,-2.4748344,4.492013
1570715005,2.3648682,4.8650208,4.6393585,0.8878784,0.5343628,0.49169922,1.5425965,-4.834668,1.717658
1570715005,7.8876953,14.349655,-6.0148315,1.4119873,2.5690155,1.7124939,5.235631,3.3676138,-5.82358
1570715005,8.003815,12.815567,-1.0666199,0.12408447,2.4039001,0.7558899,8.587818,6.5632496,-5.0110636
1570715005,2.7509308,6.929413,3.7205963,0.42022705,2.3261414,0.5982208,2.9115405,-0.74808884,-0.024318457
1570715005,0.3722992,5.201996,-4.3179474,0.3371277,0.45446777,0.3915558,-0.49331117,-3.0827608,-6.196699
1570715005,-0.6368561,4.439453,-4.522644,0.02607727,-0.46272278,0.7707977,-2.0975668,-4.3027678,-6.5491943
1570715005,0.5596466,14.029419,0.94750977,0.69506836,-3.5733032,0.87519836,-1.663163,4.2199926,-1.8842736
1570715005,0.5596466,14.029419,0.94750977,0.69506836,-3.5733032,0.87519836,-1.663163,4.2199926,-1.8842736
1570715005,-2.1517944,7.4148407,1.7663269,2.2940216,1.8233337,-1.05719,-4.3166046,-0.8141508,3.0856001
1570715005,1.1833344,5.4252625,0.50756836,1.0284882,2.9365234,-1.5493469,-0.59720206,-3.0648155,-0.29748613
1570715005,1.1833344,5.4252625,0.50756836,1.0284882,2.9365234,-1.5493469,-0.59720206,-3.0648155,-0.29748613
1570715005,-0.08140564,9.047684,1.4999695,1.5866852,2.9642334,-1.3533478,-1.1133,-0.4211855,2.366797
1570715005,0.8379669,8.8962555,1.2234344,1.4822845,2.7831268,-0.79940796,-0.2441926,0.08554268,1.3938094
1570715005,1.1707611,7.277176,-1.8249817,1.2223663,1.7658081,-0.082473755,0.71164745,-1.6235065,-0.10653269
1570715005,0.24659729,7.432205,-2.4893646,-0.14117432,0.6888275,0.4863739,-0.4368223,-1.5632982,-1.6562243
1570715005,0.3321991,8.555084,-0.4225769,-0.5939026,0.22117615,0.8070221,-0.7529217,-0.7504406,-0.18713856
1570715005,1.4886017,10.532089,0.77871704,-0.30628967,-0.6864319,0.8805237,0.19944465,1.2574253,1.73879
1570715005,0.62667847,11.071991,-0.45489502,0.091049194,-1.8688812,0.19129944,-0.12866998,2.2338867,0.83382845
1570715006,-1.9518738,9.9951935,2.8760376,0.06762695,-1.8401184,-0.021759033,-2.9568357,1.2352076,3.0388236
1570715006,-1.9015961,12.574341,1.9081726,0.70251465,-0.30293274,-0.12828064,-2.961191,3.0342236,4.145898
1570715006,-2.1056976,12.80957,0.6673889,0.39146423,0.085876465,-0.17622375,-2.9971592,3.8569803,2.6361163
1570715006,-1.0241241,10.501572,-0.6188965,-2.5476074,-2.0659485,-0.7536011,-1.8096445,2.6270685,0.112776816
1570715006,-1.0241241,10.501572,-0.6188965,-2.5476074,-2.0659485,-0.7536011,-1.7790515,1.6550064,0.0058332086
1570715006,0.6859436,8.336014,2.498352,-3.926056,-1.4662018,0.35002136,0.4438954,-0.5932112,0.6405355
1570715006,0.6859436,8.336014,2.498352,-3.926056,-1.4662018,0.35002136,0.4438954,-0.5932112,0.6405355
1570715006,4.26886,12.893372,1.8824463,-2.3398743,0.53648376,1.3790588,1.489289,2.7886858,0.57993174
1570715006,5.862198,9.429565,2.0350647,-0.7398529,2.0523682,-0.6246948,8.767449,2.0266018,-0.01897049
1570715006,-1.1767426,7.732071,-4.633972,-1.2597046,-1.3181305,0.114593506,-1.7564223,-0.73117447,-9.153454
1570715006,-3.6990356,10.18074,-0.7475891,-1.664505,-0.49041748,-0.29127502,-4.3332047,1.6896667,-2.0705721
1570715006,2.379242,5.452194,0.5488739,-1.9254913,-1.2904358,-0.42123413,1.412299,-2.0704298,-4.2592416
1570715006,2.2966309,5.091873,1.0971375,-1.8626404,-1.3373108,-0.41804504,1.412299,-2.0704298,-4.2592416
1570715006,2.8431091,3.9941254,1.5963287,-1.3214874,-1.4449005,-0.44041443,1.6592938,-3.8180923,-2.5689726
1570715006,2.363083,2.5869293,1.2156525,0.9326172,-0.511734,-0.2614441,1.259014,-5.440346,-2.863668
1570715006,2.363083,2.5869293,1.2156525,0.9326172,-0.511734,-0.2614441,1.259014,-5.440346,-2.863668
1570715006,1.6771393,6.910858,5.213379,1.7134552,0.3202362,-0.119766235,0.49539065,-1.7026014,1.2856076
1570715006,1.6771393,6.910858,5.213379,1.7134552,0.3202362,-0.119766235,0.49539065,-1.7026014,1.2856076
1570715006,0.31184387,11.143814,7.791336,0.62901306,-0.41053772,-0.2657013,-0.779498,6.7340164,6.7052865
1570715006,0.31184387,11.143814,7.791336,0.62901306,-0.41053772,-0.2657013,-0.79186594,4.188282,5.216813
1570715006,2.8413239,6.4727173,5.286392,0.60450745,-0.558609,0.23071289,1.7210147,-2.9121113,1.1172833
1570715006,3.118454,8.115738,5.786194,0.92836,-0.47018433,0.55241394,1.7677325,-1.3537178,3.1336234
1570715006,10.131058,15.032593,-2.975998,0.93473816,1.7700653,0.8805237,8.586144,7.0361967,-4.977192
1570715006,2.276886,5.122986,-0.57341003,0.50331116,2.5050964,0.3649292,1.007636,-4.188483,-1.848439
1570715006,2.229599,5.3157196,-0.84935,0.47880554,2.5200195,0.41712952,1.013087,-3.7428875,-2.5586624
1570715006,0.44651794,8.026566,-4.3107605,0.57255554,0.20092773,0.871994,-0.83141637,-0.9949236,-6.096138
1570715006,0.45310974,8.313263,-4.4490204,0.6087799,-0.05366516,0.86987305,-0.961573,-0.75949,-6.316324
1570715006,0.2753296,12.567764,-4.7423096,0.47348022,-3.458252,0.83683777,-1.808896,3.5825396,-7.3341513
1570715006,-0.55545044,12.089523,11.908752,1.4077301,-3.36557,0.13056946,-2.0911884,3.707533,6.888725
1570715006,0.53689575,7.699753,0.7918854,2.4793854,2.9535675,-0.9144592,-1.8368211,-0.9660702,1.2094854
1570715006,0.53689575,7.699753,0.7918854,2.4793854,2.9535675,-0.9144592,-1.8368211,-0.9660702,1.2094854
1570715006,0.9528961,7.110779,-0.30465698,1.2745667,3.9900818,-1.5344391,-0.31682968,-1.6860399,-0.15664095
1570715006,0.6572113,9.117722,1.1432343,1.5834961,1.9458313,-0.67796326,-0.22429556,0.043099403,1.9878461
1570715006,0.6572113,9.117722,1.1432343,1.5834961,1.9458313,-0.67796326,-0.22429556,0.043099403,1.9878461
1570715007,0.26216125,7.7225037,-1.8638916,0.6375427,0.21478271,0.030441284,-0.49401408,-1.1328526,-0.8779187
1570715007,0.26097107,7.6823883,-1.8333588,0.55870056,0.16577148,0.065597534,-0.49401408,-1.1328526,-0.8779187
1570715007,0.87986755,8.553284,-0.08918762,-0.20295715,-0.19322205,0.48104858,-0.05918789,-0.64012146,0.7264956
1570715007,1.3634949,10.450684,1.774704,0.37760925,0.076293945,0.49809265,0.33040714,1.4500504,3.031117
1570715007,0.65242004,10.679932,-0.3214264,0.47880554,0.11784363,0.2818451,-0.13168776,1.7118797,1.3841133
1570715007,-2.2128448,10.350739,1.6238708,0.47668457,-1.1945648,0.09754944,-3.3853126,1.4561434,2.6991253
1570715007,-2.2128448,10.350739,1.6238708,0.47668457,-1.1945648,0.09754944,-3.3853126,1.4561434,2.6991253
1570715007,-1.7417755,13.26268,-0.14125061,-2.1971283,-0.4680481,-0.28274536,-2.999723,3.8797693,1.9247737
1570715007,-1.7417755,13.26268,-0.14125061,-2.1971283,-0.4680481,-0.28274536,-2.999723,3.8797693,1.9247737
1570715007,0.94869995,10.29567,0.33998108,-4.2051544,-2.1479797,-0.52563477,0.9671506,1.5112867,-0.70651335
1570715007,0.94869995,10.29567,0.33998108,-4.2051544,-2.1479797,-0.52563477,0.9671506,1.5112867,-0.70651335
1570715007,0.74220276,12.033264,2.8957825,-3.275177,0.22224426,0.53430176,-0.07636976,2.941307,0.8854903
1570715007,12.957413,16.12854,0.118515015,-1.9798126,1.3737946,0.73031616,6.6713376,5.7901564,-1.6796494
1570715007,-0.6081238,7.7967224,-5.981308,-0.9145508,-1.5684662,0.012329102,-0.5332892,-0.777853,-11.258025
1570715007,-0.6081238,7.7967224,-5.981308,-0.9145508,-1.5684662,0.012329102,-0.5332892,-0.777853,-11.258025
1570715007,-1.6962891,10.764328,3.4350739,-1.7422638,-0.7578125,-0.098464966,-2.762691,1.7174225,0.20043945
1570715007,-1.8040314,8.541321,-4.6932373,-2.1215057,-0.84729004,-0.3455963,-4.647363,0.34376335,-9.785251
1570715007,1.9596558,3.545807,0.7475891,-1.983017,-1.7857819,-0.45318604,0.90762126,-3.3096228,-4.7710075
1570715007,2.8544922,2.659958,1.6921082,-1.0828705,-1.9082947,-0.5543976,1.7698548,-4.8789372,-2.992929
1570715007,3.3016052,0.9798279,2.158371,0.14006042,-1.1146698,-0.41271973,2.203048,-6.793966,-2.1682448
1570715007,2.482193,2.2900543,1.4634552,1.3161163,-0.60014343,0.0037994385,1.5544746,-5.9437127,-2.8743515
1570715007,1.5849609,7.494446,4.9553986,1.9765778,0.2179718,0.11885071,0.3078127,-1.9708061,0.66744184
1570715007,-0.15621948,19.612701,11.035477,0.42448425,0.2328949,0.08050537,-2.0691895,11.184408,9.64681
1570715007,-0.15621948,19.612701,11.035477,0.42448425,0.2328949,0.08050537,-2.0691895,11.184408,9.64681
1570715007,0.72424316,6.2913666,5.9286346,-0.13903809,-0.46166992,-0.4617157,-0.49640715,-0.16665268,4.0780954
1570715007,2.7461548,2.976593,4.80217,0.6300812,-0.9239807,0.09754944,1.9512187,-5.548278,1.053026
1570715007,5.582077,9.379883,-2.2074585,1.4631195,2.050232,1.0413666,3.8991523,0.092009544,-3.7930124
1570715007,5.582077,9.379883,-2.2074585,1.4631195,2.050232,1.0413666,3.8991523,0.092009544,-3.7930124
1570715007,9.843765,16.64569,-2.9029694,1.1925354,3.11763,0.8943634,7.951638,7.180125,-5.4596376
1570715007,2.6653442,10.781097,2.7216034,2.063919,2.0821838,0.663208,-0.4475659,2.7532692,3.8508437
1570715007,-0.25138855,4.8488617,-5.5042725,0.61517334,1.2033386,0.112457275,-0.94606125,-3.1703415,-7.031997
1570715007,-0.44532776,4.395157,-4.3825836,-0.55023193,-0.5809784,0.6813202,-2.2419624,-4.6157217,-6.263176
1570715007,-1.1869202,10.994766,-3.1256256,0.34033203,-4.147476,0.42778015,-2.6933665,1.0069237,-5.048525
1570715008,-0.66978455,13.774445,2.2032623,0.4127655,-3.7682495,0.46080017,-2.8312285,4.5053596,-0.66445017
1570715008,0.6829529,8.278549,2.2415771,2.0213165,1.7743225,-0.9954071,-2.252758,-0.30196857,3.2312856
1570715008,1.4048004,6.965927,0.7146759,1.6324921,2.771408,-1.2425537,-0.66039836,-1.5354319,0.38204378
1570715008,0.47166443,6.415863,0.8918457,0.72169495,3.7429352,-1.390625,-0.7079743,-2.5235386,0.021382034
1570715008,0.25798035,7.7829437,2.6479797,1.4982758,3.8526611,-0.8462677,-0.5769695,-1.4825087,2.943319
1570715008,1.0504608,9.10994,-0.22445679,1.8370209,3.167694,-0.36584473,-0.041199684,-0.017619133,0.279862
1570715008,0.3717041,7.775772,-1.4634552,1.4641876,0.87205505,-0.10272217,-0.30340028,-1.0730009,-0.5121495
1570715008,-0.056869507,7.5572968,-2.071579,1.0998688,0.2914734,0.12205505,-0.7251785,-1.3738499,-1.0566676
1570715008,0.802063,9.511566,0.3830719,0.3658905,-0.64915466,0.602478,-0.34574735,-0.015908241,0.80590737
1570715008,1.4730377,10.918152,1.5239105,0.644989,-1.1839142,0.58117676,0.46497494,1.7824011,2.604897
1570715008,-0.03831482,10.47702,0.35194397,0.82395935,-1.6291962,0.3414917,-0.6584751,1.793745,1.9181811
1570715008,-0.9283447,9.96228,2.659958,0.42767334,-1.0422363,0.28823853,-1.8448167,1.1088142,3.9891467
1570715008,-1.1186981,10.539276,2.6629486,0.06549072,0.19985962,0.005935669,-1.8512096,1.7685556,4.6974406
1570715008,-2.3529053,11.698074,-1.0714111,-1.2895203,0.9199829,-0.0015258789,-3.1857343,2.4393291,1.1790634
1570715008,-2.4007874,14.176666,-0.5716095,-2.6722412,-1.5034943,-0.6385498,-3.4346123,5.6725683,-0.007003069
1570715008,0.42077637,9.7030945,-0.9151764,-3.274109,-2.807373,-0.55545044,-1.9605296,0.90336037,-0.88691443
1570715008,1.6603851,9.372101,-0.52493286,-3.5958252,-2.741333,-0.4894104,0.98237836,0.3012514,-1.0834776
1570715008,0.3256073,10.293274,1.8148041,-3.5361633,-1.5524902,0.5321808,-0.5743363,0.8339863,-0.26450896
1570715008,16.81807,15.431824,1.4778137,-1.8999176,1.7189331,0.23071289,12.926417,7.223999,-1.2994509
1570715008,-3.3488922,7.387909,-1.2790985,-1.1265411,-2.216156,-0.15492249,-3.3804157,-0.3524618,-8.533844
1570715008,-3.3488922,7.387909,-1.2790985,-1.1265411,-2.216156,-0.15492249,-3.3804157,-0.3524618,-8.533844
1570715008,-2.9161377,9.431366,0.82180786,-1.7113647,-1.2957611,-0.32855225,-2.784265,1.1025076,-1.2686939
1570715008,-4.1258087,8.409637,-3.2920227,-2.0522614,-0.701355,-0.46064758,-4.488647,0.9726343,-4.6000156
1570715008,3.075348,5.490509,-0.26635742,-2.288742,-1.6142731,-0.28167725,1.4915676,-1.9237833,-5.19691
1570715008,3.3464966,2.3205872,2.8616638,0.1421814,-1.0475616,-0.6630554,2.4426591,-5.100072,-1.3643694
1570715008,3.3464966,2.3205872,2.8616638,0.1421814,-1.0475616,-0.6630554,2.4426591,-5.100072,-1.3643694
1570715008,2.0937347,2.0266876,1.5993195,1.0114441,-0.6086731,-0.37223816,1.1701384,-5.955531,-2.7113032
1570715008,1.0708008,4.6980286,3.3626556,2.0074615,0.07949829,-0.08779907,-0.0150767565,-3.852419,-0.5036514
1570715008,0.9750366,6.62117,4.680069,2.091629,0.30000305,-0.0856781,-0.09243393,-2.5524292,0.56039596
1570715008,0.85173035,19.612701,15.639526,0.95391846,1.5399628,-0.04838562,-0.24900591,6.510025,10.168268
1570715008,-0.5560608,15.825073,7.085037,0.083602905,-0.85687256,-0.35198975,-1.430631,10.990134,6.733795
1570715008,1.9853973,6.076477,6.736084,0.8441925,-0.24647522,0.7036896,0.72316027,-3.4351969,4.3475995
1570715008,2.3660736,6.8498077,5.8765717,0.97735596,0.0113220215,0.90075684,0.72316027,-3.4351969,4.3475995
1570715009,3.5188751,6.5547333,2.3612823,1.1435394,1.8126831,0.3106079,3.648304,-0.7283735,-0.60768175
1570715009,2.762909,5.9866943,2.5067291,1.2202301,1.6933746,0.3180542,3.648304,-0.7283735,-0.60768175
1570715009,2.2415771,5.834671,-4.2874146,0.6652374,1.3620758,0.3425598,1.2064509,-2.8315887,-5.805232
1570715009,0.50756836,7.5333557,-2.8221588,0.104904175,-1.3607483,0.8485565,-1.1367899,-1.2175646,-5.0376215
1570715009,0.3944397,7.802109,-2.8544922,0.17308044,-1.5418396,0.825119,-1.1367899,-1.2175646,-5.0376215
1570715009,-1.9051819,14.186249,7.197571,2.2641907,-0.67045593,-0.24333191,-3.7701967,6.1819286,6.0643415
1570715009,-1.9051819,13.494324,6.822281,2.4016113,-0.38710022,-0.35092163,-3.7701967,6.1819286,6.0643415
1570715009,-1.5682068,8.373123,2.755127,2.5464935,2.7575684,-0.88035583,-4.3504043,0.2023449,2.8823042
1570715009,1.5364838,7.3903046,0.7511749,2.3217163,3.7972717,-1.5876923,0.9005362,-1.7177086,1.3904549
1570715009,1.5364838,7.3903046,0.7511749,2.3217163,3.7972717,-1.5876923,0.9005362,-1.7177086,1.3904549
1570715009,0.5105591,7.665039,-0.27952576,1.678299,2.163147,-0.95599365,-0.4373924,-1.0866413,-0.023131192
1570715009,0.13946533,7.4621277,-2.308609,0.43406677,0.47151184,-0.4105835,-0.3093679,-1.3464441,-1.5675466
1570715009,-0.011367798,7.0233917,-1.6065063,-0.039978027,0.2872162,-0.20924377,-0.4350775,-1.7753592,-1.2023916
1570715009,1.9081726,8.640076,0.9756317,-0.3872528,0.3894806,0.5417633,0.4214074,-0.9038973,1.5232172
1570715009,3.510498,8.600571,2.6623535,-0.027191162,0.79216003,0.14228821,3.2834408,0.033581734,2.531873
1570715009,1.1025238,10.741592,-1.5418701,0.97735596,1.4803162,0.80488586,0.0045537353,1.085577,0.16584831
1570715009,1.0067596,11.883621,-3.7738647,0.54486084,1.0403595,0.5971527,0.17156279,2.7989788,-1.9804547
1570715009,-1.2222443,10.739197,-3.0986938,-0.1678009,-0.10054016,0.313797,-1.4853753,2.1301918,-2.7618067
1570715009,-2.1679535,11.694473,0.78230286,0.20503235,-2.821228,0.1880951,-3.5006552,2.82158,0.98606026
1570715009,-1.6286621,10.3112335,4.3179474,0.7429962,-2.1799316,-0.098464966,-2.9833264,1.4022274,5.3082647
1570715009,-1.2575531,13.453613,1.1276703,-0.23918152,1.2992249,-0.22416687,-2.1128216,4.316435,3.6507459
1570715009,-2.2038574,13.171707,-4.268265,-1.9137726,0.585495,-0.51071167,-2.775118,4.6226873,-2.511818
1570715009,0.082595825,9.967667,-2.671936,-3.797165,-2.8105774,-0.44360352,-1.9850698,0.95123863,-2.9782124
1570715009,-0.20709229,8.759781,1.7609406,-3.640564,-2.8617096,0.06985474,-0.72649246,-0.6705303,1.003108
1570715009,-0.25737,10.235809,3.854065,-2.5486755,-1.5429077,0.8102112,-0.7028329,1.2042589,1.8757926
1570715009,13.162125,11.900986,-1.5759888,-1.4897919,1.9415741,-0.21456909,13.492966,5.099311,-4.3592424
1570715009,4.256897,9.018356,1.2856903,-0.7110901,1.6987,-0.57676697,4.877743,0.11219883,-0.5575397
1570715009,-1.0127411,9.314636,-2.004547,-0.7419739,-1.6142731,-0.4063263,-1.5912774,0.9477787,-6.4650297
1570715009,-2.8048096,10.685928,-1.2210388,-1.8189697,-1.4246674,-0.52030945,-3.9276626,1.5478373,-2.7999516
1570715009,2.8766327,6.0704956,0.65242004,-2.5294952,-1.7580872,-0.33920288,1.7785609,-1.8085098,-4.2050276
1570715009,3.5679626,3.8169556,2.3924103,-1.2085724,-1.8795319,-0.5778351,2.4864802,-4.310217,-1.8578534
1570715009,3.221405,2.21344,2.7174225,-0.15501404,-1.1157379,-0.6886139,2.3304574,-5.574008,-1.0488782
1570715009,2.8443146,1.719635,1.8525085,0.32435608,-0.7482147,-0.5320282,2.0104673,-6.203669,-2.0620522
1570715010,1.4640503,3.016098,1.5059509,1.486557,-0.09307861,-0.0814209,0.50775224,-5.332016,-2.306592
1570715010,1.4556732,4.217392,2.4612427,1.7688446,0.06350708,-0.0622406,0.47870564,-4.621998,-1.6364655
1570715010,1.1821442,16.537949,11.225815,1.0849457,0.7644501,0.0016784668,0.48536724,4.117729,5.416015
1570715010,-2.1487885,12.773666,8.442551,0.12301636,-1.0411682,-0.64068604,-2.665473,9.259216,9.530455
1570715010,-2.1487885,12.773666,8.442551,0.12301636,-1.0411682,-0.64068604,-2.665473,9.259216,9.530455
1570715010,1.6412201,3.4973297,2.975998,-0.36914062,-0.6821747,-0.20605469,0.31171286,-4.664483,-0.2510183
1570715010,1.8231812,2.8431091,5.835861,0.83354187,-0.10372925,0.5076752,1.3206971,-6.5773106,2.8487754
1570715010,5.862808,9.740204,-2.3828278,1.6282349,2.4390564,1.7114258,3.645911,-0.7442007,-2.8109474
1570715010,15.186417,19.594742,-5.0415955,0.74513245,3.8952637,1.4248657,12.13034,10.57577,-9.1804695
1570715010,2.4845886,9.142258,-0.21487427,1.6090546,1.5676727,0.7942352,-0.94564867,0.56959724,0.78014326
1570715010,-0.37948608,4.762665,-5.7293243,0.389328,-1.0006866,0.6440277,-1.6441734,-3.8560076,-7.5492077
1570715010,-0.47465515,5.024231,-5.1373596,0.13259888,-1.9445038,0.78463745,-1.9438224,-3.8938866,-7.1611047
1570715010,-2.3217773,10.274719,1.3784637,0.64819336,-3.887558,0.45654297,-3.8829856,0.004814148,-0.9373872
1570715010,-2.8305511,9.252396,5.6892242,1.6974792,0.9924164,-0.95492554,-4.6809344,2.176774,4.95604
1570715010,-2.8305511,9.252396,5.6892242,1.6974792,0.9924164,-0.95492554,-4.6809344,2.176774,4.95604
1570715010,1.91716,7.957123,0.60453796,1.5014648,3.6225586,-1.4449463,-0.3826934,-0.62475204,1.0970597
1570715010,0.52493286,5.589264,1.5292969,1.1201019,3.8409424,-1.8412323,-0.5349915,-3.2285175,0.00572744
1570715010,1.8668823,8.640076,0.5087738,2.808548,3.153839,-0.57463074,1.1846926,-0.24154377,1.4821205
1570715010,2.008133,8.45871,-0.56503296,2.7254486,2.8545074,-0.52882385,1.4899617,-0.35068035,1.1870856
1570715010,3.2387543,3.839096,1.4598694,-1.1457214,-2.215088,-0.7120514,1.839215,-3.7937732,-3.559709
1570715010,3.2387543,3.839096,1.4598694,-1.1457214,-2.215088,-0.7120514,1.839215,-3.7937732,-3.559709
1570715010,3.4123383,1.9572601,1.7836761,0.39572144,-0.9442291,-0.64601135,2.3321347,-5.8272448,-2.1788707
1570715010,2.1757355,2.3888092,1.2832947,1.1190338,-0.673645,-0.3040619,1.356189,-5.5927124,-3.1082501
1570715010,1.8369446,4.0096893,3.3429108,1.7155914,-0.15592957,-0.11869812,0.5562148,-4.595233,-1.0452278
1570715010,1.5957336,10.768524,9.088989,1.9552612,0.90293884,-0.084609985,0.6169032,0.74667645,3.8862336
1570715010,-1.5897522,19.612701,12.391785,0.31796265,0.6877594,0.05067444,-1.506558,11.196274,11.148287
1570715010,0.36990356,7.6901703,5.700592,-0.17419434,-0.49362183,-0.54800415,-1.0185298,1.3150883,4.019888
1570715010,3.1082764,3.4296875,2.5665894,0.03353882,-0.75567627,-0.21244812,1.4752059,-4.6897926,0.013097525
1570715010,9.331406,12.54921,-2.90596,1.0252991,2.0449066,1.1979675,7.8785167,4.3318825,-5.7687855
1570715010,9.331406,12.54921,-2.90596,1.0252991,2.0449066,1.1979675,7.8785167,4.3318825,-5.7687855
1570715010,2.874237,7.190384,1.2078705,1.0934753,1.8520966,0.49595642,2.104687,-0.9102011,-2.004472
1570715010,0.18554688,7.205353,-5.3971252,0.64819336,0.54608154,0.33190918,-0.48891985,-0.8735266,-7.340666
1570715010,0.18554688,7.205353,-5.3971252,0.64819336,0.54608154,0.33190918,-0.48891985,-0.8735266,-7.340666
1570715011,-0.814621,10.150818,-1.2395935,0.54592896,-1.2669983,0.8901062,-2.8665028,0.31734848,-3.2490036
1570715011,-0.814621,10.150818,-1.2395935,0.54592896,-1.2669983,0.8901062,-2.8665028,0.31734848,-3.2490036
1570715011,0.9289551,13.965378,4.1533356,1.6495361,-1.1210632,0.39050293,-1.8187826,4.9867992,2.249293
1570715011,-0.20170593,7.693161,3.3297424,2.2620697,2.0331879,-1.0263062,-2.6986163,-0.68443775,3.0471318
1570715011,0.5895691,7.3693542,2.920929,2.188568,2.5818024,-1.137085,-1.6567653,-1.2490969,2.785102
1570715011,1.1911163,7.6464844,1.5442657,1.7219696,3.9240265,-1.679306,0.04096985,-1.242631,1.6567903
1570715011,0.46148682,7.6153564,1.486206,1.5973358,3.498993,-1.1914215,-0.6251084,-1.4590778,1.9265387
1570715011,0.6649933,8.173798,-1.130661,1.1595154,1.9628754,-0.64601135,-0.034868896,-0.7218752,0.012781441
1570715011,-0.47225952,7.4489594,-1.7172394,-0.20935059,0.28295898,-0.033477783,-1.1121911,-1.434926,-1.062051
1570715011,-0.2741394,7.4489594,-0.6081238,-0.8964386,-0.08456421,0.4821167,-1.199091,-1.6680079,-0.15636033
1570715011,0.9929962,8.841782,1.6921082,-0.8186798,0.013442993,0.57159424,-0.21323884,-0.5308256,1.5919594
1570715011,1.4173737,10.018539,3.7726593,0.26895142,0.87950134,0.3841095,0.40950716,0.9468937,4.5160456
1570715011,1.2066803,10.934326,0.046691895,0.91664124,1.2502136,0.1689148,0.22227871,1.9183102,1.0137787
1570715011,-0.10594177,10.323196,-1.3617096,0.705719,0.80493164,-0.18048096,-0.87805355,1.5346413,-0.5838077
1570715011,-1.9626465,10.680527,-0.27053833,0.99972534,-1.5290527,-0.12402344,-2.9057412,1.5138235,0.5068881
1570715011,-1.2898712,9.959274,5.422867,1.4023895,-3.0246887,-0.033477783,-2.2071795,1.2220249,5.1235156
1570715011,-1.2461853,10.674545,5.573105,0.85272217,-2.059555,0.08583069,-1.99088,1.472022,7.3739176
1570715011,-0.8828583,14.68364,-0.98820496,-4.7814636,-0.9367676,-0.1368103,-1.4560871,6.0312185,-0.6124907
1570715011,-0.56443787,12.652161,0.19692993,-5.023285,-1.4140167,-0.3360138,-1.6138408,4.4240522,-0.12726486
1570715011,-0.17118835,9.478638,-0.64404297,-3.8450928,-1.6845856,-0.7024689,-0.4554959,0.6114979,-1.2709718
1570715011,9.645035,14.656708,0.15203857,-1.7198944,1.4057465,1.3417816,4.8264594,4.326312,-2.0542977
1570715011,9.645035,14.656708,0.15203857,-1.7198944,1.4057465,1.3417816,4.8264594,4.326312,-2.0542977
1570715011,-1.8034363,9.03273,-2.593521,-0.95610046,-2.2939148,-0.35838318,-1.2770536,0.5824995,-6.1797056
1570715011,-4.0940857,8.596985,-0.91937256,-1.826416,-2.710434,-0.1325531,-4.3923554,-0.16314793,-4.9572897
1570715011,0.917572,6.8007355,-2.7012634,-2.5784912,-1.7698059,-0.24972534,-1.2742031,-0.2383709,-6.953854
1570715011,0.917572,6.8007355,-2.7012634,-2.5784912,-1.7698059,-0.24972534,-1.2742031,-0.2383709,-6.953854
1570715011,4.03183,2.3732452,2.103302,-0.31907654,-1.5706024,-0.7962036,2.888076,-5.133028,-2.905086
1570715011,4.03183,2.3732452,2.103302,-0.31907654,-1.5706024,-0.7962036,2.888076,-5.133028,-2.905086
1570715011,1.9662323,1.9285278,1.7022705,0.94966125,-0.75460815,-0.41271973,1.0179752,-5.993359,-2.7876902
1570715011,1.5586243,2.260727,2.149994,1.3171692,-0.4691162,-0.2625122,0.2961663,-5.7873054,-2.3079572
1570715011,1.4616547,11.268906,9.340378,2.5145264,1.1820374,0.042160034,0.60089254,1.5071974,5.2097096
1570715011,1.4616547,11.268906,9.340378,2.5145264,1.1820374,0.042160034,0.60089254,1.5071974,5.2097096
1570715011,-0.19752502,6.369766,5.5036774,-0.4927063,-0.8813782,-0.5693054,-1.4951812,-0.88712406,3.0678163
1570715011,-0.19752502,6.369766,5.5036774,-0.4927063,-0.8813782,-0.5693054,-1.4951812,-0.88712406,3.0678163
1570715011,1.9596558,2.4133606,3.6990356,-0.23065186,-0.7641907,-0.35305786,0.41395926,-5.7221527,0.6516876
1570715012,9.546875,13.231552,-3.3303375,1.4705658,2.3762054,1.460022,7.0709887,3.4851341,-5.3349643
1570715012,11.341339,13.921082,-4.1096497,1.3661804,2.5391846,1.0467072,9.466634,5.4292116,-6.3880525
1570715012,6.249466,10.919952,-2.2726898,1.0466003,1.8574219,0.40115356,6.0155025,3.4749146,-5.5550833
1570715012,1.3126221,6.636734,-4.3777924,0.7664337,0.69415283,0.5907593,0.8467488,-1.4900103,-5.815301
1570715012,0.36392212,6.375168,-3.4344788,0.29985046,0.30319214,0.7239227,-1.2670223,-2.4283905,-5.828435
1570715012,-1.1827393,11.400589,-1.0085602,0.42448425,-1.1849823,0.9178009,-3.0801,2.1667128,-3.178939
1570715012,-1.1827393,11.400589,-1.0085602,0.42448425,-1.1849823,0.9178009,-3.0801,2.1667128,-3.178939
1570715012,-1.8980103,8.167221,3.4506378,2.4964294,0.90826416,-1.0316315,-3.456722,0.9832964,3.052579
1570715012,-1.8980103,8.167221,3.4506378,2.4964294,0.90826416,-1.0316315,-3.456722,0.9832964,3.052579
1570715012,0.5596466,7.922409,3.2220001,1.5440826,3.21669,-1.5749207,-0.2767607,-1.6129303,2.69547
1570715012,0.39505005,8.1809845,3.312378,1.5941467,3.213501,-1.5674591,-0.5166358,-1.113596,3.105186
1570715012,-0.5452728,9.029724,1.916565,1.9968109,3.0110931,-1.1615906,-1.4959025,-0.035123825,2.7542634
1570715012,0.9870148,7.395691,-1.10672,1.2607117,1.4579468,-0.27742004,0.19023949,-1.3804789,0.22126144
1570715012,-0.29988098,7.2197113,-1.9524689,0.030334473,0.5918884,0.27970886,-0.8957691,-1.6356888,-0.97938573
1570715012,-0.43275452,7.2167206,-1.8896179,-0.052749634,0.55033875,0.33190918,-0.8957691,-1.6356888,-0.97938573
1570715012,1.5185242,11.119873,1.6304474,0.27960205,-0.8419647,0.44056702,0.7371017,2.1723537,2.8152285
1570715012,1.5185242,11.119873,1.6304474,0.27960205,-0.8419647,0.44056702,0.7371017,2.1723537,2.8152285
1570715012,-0.32859802,10.189117,-0.47045898,0.31796265,-0.6502075,0.08583069,-1.2568136,1.4489136,0.5890168
1570715012,-1.3724823,10.401611,1.8004456,0.27108765,-0.6161194,-0.019622803,-2.3418665,1.4266634,2.0357094
1570715012,-1.6508026,12.060791,0.8954315,0.6300812,-0.6917572,-0.1602478,-2.5769148,2.9445877,2.5570478
1570715012,-2.700653,11.711838,0.5686188,-0.25727844,-0.1942749,-0.22096252,-3.5286903,2.8720102,1.9451493
1570715012,-2.5959167,13.694229,-1.0193329,-1.5292053,-0.27416992,-0.47129822,-3.4973261,4.3221397,0.15364635
1570715012,1.34375,8.477875,-0.3818817,-3.640564,-2.7967224,-0.08354187,1.1052032,-0.42830276,-0.76632625
1570715012,1.34375,8.477875,-0.3818817,-3.640564,-2.7967224,-0.08354187,1.1052032,-0.42830276,-0.76632625
1570715012,10.668564,14.773422,0.5201416,-2.0714264,0.362854,0.75801086,6.1046567,5.463169,-0.92497516
1570715012,10.668564,14.773422,0.5201416,-2.0714264,0.362854,0.75801086,6.1046567,5.463169,-0.92497516
1570715012,8.20134,10.997772,1.1276703,-1.0093689,1.3375702,-0.52775574,7.790143,3.1810837,-0.87211347
1570715012,-1.9710236,8.991425,0.87927246,-1.7699585,-1.5493011,-0.19966125,-2.8863413,0.24081898,-2.4562325
1570715012,-1.9710236,8.991425,0.87927246,-1.7699585,-1.5493011,-0.19966125,-2.8863413,0.24081898,-2.4562325
1570715012,3.0783386,5.123596,1.7794952,-2.1172333,-1.6590271,-0.3040619,2.3843417,-2.3803272,-2.565925
1570715012,3.0783386,5.123596,1.7794952,-2.1172333,-1.6590271,-0.3040619,2.3843417,-2.3803272,-2.565925
1570715012,2.5558167,2.6318207,1.6029205,0.23379517,-0.7578125,-0.5586548,1.5902838,-5.006012,-2.1735153
1570715012,2.4049683,2.6318207,1.6029205,0.23379517,-0.7578125,-0.5586548,1.5902838,-5.006012,-2.1735153
1570715013,1.6921082,3.5488129,2.099121,1.6761627,-0.28163147,-0.13467407,0.5176331,-4.7996225,-1.7742963
1570715013,1.7130585,3.7780457,2.3493042,1.6761627,-0.28163147,-0.13467407,0.5176331,-4.7996225,-1.7742963
1570715013,0.7984619,19.581573,14.666275,0.19226074,2.1407776,-0.015365601,0.7724936,10.166855,9.818208
1570715013,0.7984619,19.581573,14.666275,0.19226074,2.1407776,-0.015365601,0.7724936,10.166855,9.818208
1570715013,-1.320404,8.614929,6.712143,-0.17526245,-0.79829407,-0.58421326,-2.31291,1.8992958,5.402518
1570715013,4.6752777,9.183563,2.8479004,0.92729187,-0.464859,1.0914459,2.6470695,-0.42901516,0.7102556
1570715013,5.4809265,10.005966,2.099121,1.0093079,-0.3114624,1.20755,2.6470695,-0.42901516,0.7102556
1570715013,3.7229767,6.573883,-0.56622314,0.7557831,1.5825806,0.09861755,2.9866438,-1.3356209,-3.6521022
1570715013,3.7229767,6.573883,-0.56622314,0.7557831,1.5825806,0.09861755,2.9866438,-1.3356209,-3.6521022
1570715013,2.2553406,8.743027,-3.910324,0.4170227,1.4898987,0.6397705,1.4336963,0.5583801,-6.462054
1570715013,2.2553406,8.743027,-3.910324,0.4170227,1.4898987,0.6397705,1.4336963,0.5583801,-6.462054
1570715013,-0.63027954,8.252808,-3.7612915,0.64712524,-0.9378357,0.8442993,-2.3553896,-0.95498943,-5.2722654
1570715013,-0.63027954,8.252808,-3.7612915,0.64712524,-0.9378357,0.8442993,-2.3553896,-0.95498943,-5.2722654
1570715013,-0.09635925,10.855911,4.3095703,2.5475616,-0.384964,-0.66838074,-1.3795424,3.6323404,4.7695203
1570715013,-0.09635925,10.855911,4.3095703,2.5475616,-0.384964,-0.66838074,-1.3795424,3.6323404,4.7695203
1570715013,-0.23522949,6.396103,0.98101807,2.1672516,1.7210693,-0.99861145,-2.3317182,-2.0956926,0.67257977
1570715013,-0.025741577,7.8529816,2.6617584,0.9187622,3.356247,-1.4428253,-1.0167257,-1.2839575,2.3469117
1570715013,-0.025741577,7.8529816,2.6617584,0.9187622,3.356247,-1.4428253,-1.0167257,-1.2839575,2.3469117
1570715013,0.58358765,8.428787,0.07601929,1.7294312,2.7011108,-0.52349854,-0.3010677,-0.21404457,1.4670618
1570715013,0.58358765,8.428787,0.07601929,1.7294312,2.7011108,-0.52349854,-0.19146103,-0.36028194,1.0668073
1570715013,-0.26216125,7.984665,-1.0827789,-0.029312134,0.25952148,0.5460205,-1.1034611,-1.0536766,-0.3297963
1570715013,-0.26216125,7.984665,-1.0827789,-0.029312134,0.25952148,0.5460205,-1.1034611,-1.0536766,-0.3297963
1570715013,0.972641,10.709869,0.7763214,0.25830078,-0.82810974,0.36279297,0.005182743,1.9365988,1.9134426
1570715013,0.972641,10.709869,0.7763214,0.25830078,-0.82810974,0.36279297,0.005182743,1.9365988,1.9134426
1570715013,-0.28431702,10.21846,-0.023345947,0.2316742,-0.8824463,0.13056946,-1.0302712,1.4152126,1.2830725
1570715013,-1.3222046,11.022308,2.5187073,0.50756836,0.06138611,-0.18901062,-2.26373,2.189106,3.9207048
1570715013,-1.9931793,11.532272,0.81222534,-0.1209259,0.3585968,-0.2657013,-2.7187479,2.3669052,2.2098134
1570715013,-2.0997162,11.684296,0.7457886,-0.22106934,0.34155273,-0.27316284,-2.8560152,2.6290493,2.1236453
1570715013,-1.6442108,12.243942,-1.1264648,-2.765976,-1.7176056,-0.54907227,-2.8807385,4.167157,-0.2503248
1570715013,-0.20410156,10.820587,-0.933136,-3.6991577,-2.6294708,-0.50219727,-1.2924156,2.1665363,-0.52264625
1570715013,-0.17178345,10.827774,2.4079742,-2.9513397,-0.62783813,0.5928955,-0.90779,1.1850557,0.7936603
1570715013,-0.032913208,10.967239,2.410965,-2.8096619,-0.42651367,0.69729614,-0.8749946,1.8359699,0.621346
1570715013,12.376831,16.689987,-0.8648987,-1.8083038,1.5452881,0.91033936,6.2909255,6.283536,-2.6517024
1570715014,-0.40881348,7.593216,-2.360077,-0.51828,-1.5833893,-0.18261719,-0.33479434,-0.94272804,-5.497014
1570715014,-0.40881348,7.593216,-2.360077,-0.51828,-1.5833893,-0.18261719,-0.33479434,-0.94272804,-5.497014
1570715014,0.29508972,7.562683,-1.075592,-2.2514648,-1.3490295,-0.13999939,-3.2426877,-0.5134487,-4.712656
1570715014,0.29508972,7.562683,-1.075592,-2.2514648,-1.3490295,-0.13999939,-3.2426877,-0.5134487,-4.712656
1570715014,2.9670105,3.973175,0.58477783,-1.7582397,-1.628128,-0.3647766,1.6996317,-3.4126377,-3.6168714
1570715014,3.6888733,2.8921967,2.5875397,-0.1443634,-1.4225311,-0.57888794,2.611473,-4.8929505,-1.3895898
1570715014,2.3762512,2.6557617,1.8764496,1.3853455,-0.43395996,-0.1921997,1.1209337,-5.559832,-2.232817
1570715014,2.2720947,2.834137,1.8656769,1.4535217,-0.40093994,-0.18261719,1.1794132,-5.3885207,-1.9459767
1570715014,2.276886,4.9033203,3.9689941,1.9456787,0.046463013,-0.084609985,0.8404361,-4.016863,-0.3174665
1570715014,-0.8750763,19.607315,14.489716,0.20184326,1.9170685,0.014465332,0.010221958,11.158097,11.074753
1570715014,-1.6017151,19.612701,11.647797,0.11129761,1.3397064,0.026184082,-1.503296,11.167039,11.6427555
1570715014,0.8840637,3.3901825,1.8734589,-0.103881836,-0.80467224,-0.39886475,-0.34050655,-4.7063017,-0.535795
1570715014,5.455185,8.839386,0.21847534,0.9411316,1.6507568,1.5111542,2.8510098,-0.883811,-1.0791144
1570715014,5.455185,8.839386,0.21847534,0.9411316,1.6507568,1.5111542,2.8510098,-0.883811,-1.0791144
1570715014,11.4939575,14.374786,-3.0029297,0.7280884,3.0174866,0.96681213,10.276683,5.5699635,-5.7150364
1570715014,1.5442657,7.4387817,-5.1253815,0.94966125,-0.057922363,0.50234985,1.5787311,-0.16025639,-6.319887
1570715014,1.5442657,7.4387817,-5.1253815,0.94966125,-0.057922363,0.50234985,1.5787311,-0.16025639,-6.319887
1570715014,-0.33338928,6.332062,-3.6631317,0.25616455,-0.9112091,0.73457336,-2.0306506,-2.4572926,-6.169595
1570715014,-0.27174377,8.122925,-1.3132172,0.28173828,-1.484314,0.68237305,-2.1518917,-0.8262205,-3.284464
1570715014,-0.667984,13.147156,2.9718018,1.1360779,-1.2680664,0.5353699,-2.9666433,3.7599306,1.330086
1570715014,-1.7932587,9.493011,2.2385712,2.1012115,0.5929413,-0.9400177,-3.0628386,2.3048582,1.1819942
1570715014,-1.6400299,7.5411377,2.2104492,1.9126587,1.6401062,-0.9826355,-3.872158,-0.70261955,1.2847091
1570715014,1.7758942,6.988678,2.554016,1.3384857,3.8888702,-1.4609375,0.26047194,-1.6250744,1.627425
1570715014,0.5410919,7.344818,3.8013916,1.8157196,4.394882,-1.6782532,-0.10269129,-1.9059677,3.5038202
1570715014,0.18315125,8.726273,1.5239105,2.2546082,4.328827,-1.0593262,-0.58062947,-0.295537,1.9474093
1570715014,1.5095367,8.104965,-0.32681274,2.0511475,2.865158,-0.4894104,0.8518384,-0.7020235,0.9590722
1570715014,-1.0390778,6.490677,-3.1352081,-0.3435669,0.23822021,0.44696045,-1.252747,-2.312807,-2.369162
1570715014,-0.52552795,7.7386627,-0.90740967,-1.1819305,-0.29974365,1.045639,-1.5634259,-1.7004442,-0.74250644
1570715014,1.2575531,11.104904,2.4696198,0.054840088,-0.6118622,0.5193939,0.4127921,2.1091127,3.4759762
1570715014,1.2575531,11.104904,2.4696198,0.054840088,-0.6118622,0.5193939,0.4127921,2.1091127,3.4759762
1570715014,-0.667984,10.3980255,0.22685242,0.2828064,0.15618896,-0.110183716,-1.4822232,1.7938719,0.8940524
1570715014,-1.9045868,10.181335,1.4155731,0.82928467,-0.14953613,-0.21989441,-2.9193597,1.1616068,2.2921467
1570715014,-3.0190887,12.685074,-0.50457764,0.76856995,-1.1391754,-0.20924377,-3.6392045,3.5650778,1.0451839
1570715014,-3.0585938,13.7660675,-0.31243896,-0.0016174316,-1.2488861,-0.14852905,-4.067891,4.5226717,1.0364753
1570715015,1.8423309,9.051285,0.43455505,-3.9494934,-2.345047,-0.738678,1.286987,0.11687374,0.3776512
1570715015,1.8423309,9.051285,0.43455505,-3.9494934,-2.345047,-0.738678,1.286987,0.11687374,0.3776512
1570715015,3.9426575,13.633179,2.0733795,-2.3057861,-0.37324524,1.4855957,1.5365319,2.4549246,1.2485766
1570715015,5.3468475,13.633179,2.0733795,-2.3057861,-0.37324524,1.4855957,1.5365319,2.4549246,1.2485766
1570715015,10.851715,10.632645,1.7178345,-1.5249481,2.2366486,-0.92404175,15.185148,4.558058,-2.715519
1570715015,3.015503,8.283936,-1.0390778,-0.16673279,1.1618042,-0.34666443,4.143321,-0.06263161,0.0596745
1570715015,-2.5629883,10.037094,2.6300354,-2.0746307,-1.6568909,0.0315094,-3.6355371,0.49812222,0.7173555
1570715015,-2.6569672,10.352524,2.4839783,-2.0852814,-1.4278564,-0.059051514,-3.507247,1.3499966,-0.28597665
1570715015,1.8686676,7.356186,-0.5985565,-2.224823,-1.102951,-0.049453735,-0.33072907,-0.65002537,-5.237011
1570715015,3.193863,3.842102,0.4692688,-1.2320099,-1.2904358,-0.28701782,2.0518994,-4.2752824,-3.1857224
1570715015,3.4769745,3.7588959,2.0584106,-0.4884491,-1.3671417,-0.4894104,2.347115,-3.9195027,-2.880844
1570715015,1.7100525,2.434906,0.9756317,1.0774841,-0.371109,-0.16769409,0.69498384,-5.4512906,-3.0804648
1570715015,1.4059906,4.9619904,3.269287,1.8902893,0.034744263,-0.011108398,0.12064314,-3.9424105,-1.0988705
1570715015,1.4059906,4.9619904,3.269287,1.8902893,0.034744263,-0.011108398,0.12064314,-3.9424105,-1.0988705
1570715015,1.7387848,10.945099,7.3585815,1.9403534,0.5886841,-0.09100342,0.5925292,1.57164,3.2925713
1570715015,-0.39624023,19.503769,10.961258,0.34458923,-0.9932251,-0.2571869,-2.1628685,11.175168,7.280153
1570715015,0.032913208,5.8161163,5.162491,0.004776001,-0.80999756,-0.5501251,-0.7422422,-0.82332134,3.821873
1570715015,1.9806061,2.8359375,3.107071,0.24978638,-0.92611694,-0.096328735,0.6496148,-5.743411,-0.32017326
1570715015,9.225464,14.812927,-3.8426971,0.9379425,0.9860382,0.7931671,8.446475,7.474764,-6.8475003
1570715015,9.225464,14.812927,-3.8426971,0.9379425,0.9860382,0.7931671,8.446475,7.474764,-6.8475003
1570715015,1.5269012,5.4216766,2.9987335,0.658844,1.2459564,0.2626648,0.23601747,-2.8731194,-0.28256083
1570715015,2.2397766,6.7731934,-2.0183105,0.6492615,1.4249268,0.4948883,0.37709463,-2.4310007,-2.5012393
1570715015,0.93733215,6.847412,-2.3193817,-0.16567993,0.5119934,0.55667114,-0.557593,-1.6315842,-4.798724
1570715015,0.49560547,7.1760254,-1.7028809,0.4170227,-0.7141266,0.6717224,-1.4160495,-1.6636992,-3.579567
1570715015,-0.08859253,12.961014,-2.2164307,0.45324707,-2.119217,0.87519836,-2.4469461,3.8669167,-4.597375
1570715015,-1.4443054,8.142075,3.4374695,2.4570007,-0.16978455,-1.0103302,-3.23433,0.31271076,3.31177
1570715015,-1.4443054,8.142075,3.4374695,2.4570007,-0.16978455,-1.0103302,-3.23433,0.31271076,3.31177
1570715015,0.8738861,7.388504,1.0612335,1.3033295,2.7586365,-1.3725128,-0.46954882,-1.3239546,1.1007994
1570715015,0.8738861,7.388504,1.0612335,1.3033295,2.7586365,-1.3725128,-0.46954882,-1.3239546,1.1007994
1570715015,0.6673889,9.063248,0.9295502,1.6729736,2.4933777,-0.8388214,-0.42122346,0.1953392,1.9835103
1570715015,0.6673889,9.063248,0.9295502,1.6729736,2.4933777,-0.8388214,-0.3452435,0.14487743,1.5628211
1570715015,0.3214264,7.408264,-1.5951385,0.73020935,1.000946,0.13482666,-0.4811476,-1.5103693,-0.41629517
1570715015,0.3615265,7.4776917,-1.6280518,0.67481995,0.91252136,0.18276978,-0.4811476,-1.5103693,-0.41629517
1570715016,1.3084259,10.266937,0.2238617,0.19970703,-1.196701,0.44056702,0.27397394,1.279561,1.2832828
1570715016,1.3084259,10.266937,0.2238617,0.19970703,-1.196701,0.44056702,0.27397394,1.279561,1.2832828
1570715016,-1.114502,10.185532,2.5959167,0.27748108,-1.245697,0.09008789,-1.9917959,1.4194641,3.1913662
1570715016,-1.114502,10.185532,2.5959167,0.27748108,-1.245697,0.09008789,-1.9917959,1.4194641,3.1913662
1570715016,-1.9321136,12.513901,2.1164703,0.2593689,0.48962402,0.058135986,-3.173915,2.9828978,4.532595
1570715016,-1.7172394,13.02626,-0.0077819824,-0.30628967,0.72717285,0.005935669,-2.8062027,4.0858717,2.1046104
1570715016,-2.858673,13.8181305,-2.5037384,-2.704193,-0.70454407,-0.434021,-3.9702935,4.84033,-2.0955858
1570715016,-1.7010803,11.122269,-1.2611389,-2.923645,-2.0787354,-0.5447998,-3.170719,2.9368172,-0.88194263
1570715016,1.5939331,8.581421,-0.66319275,-2.940689,-2.7988586,-0.24758911,1.0618365,-0.4532137,-1.1865375
1570715016,0.9505005,8.892059,0.60095215,-2.955597,-2.2065735,0.3883667,0.51063126,-0.47167206,-1.0421625
1570715016,12.745529,14.583084,2.2625275,-2.27063,0.05392456,1.0413666,4.5330553,3.5643911,0.9044324
1570715016,5.328293,9.421783,2.0985107,-0.5875244,1.813736,-0.12402344,6.2329473,1.8835754,0.5864999
1570715016,-1.3209991,8.511383,-5.9795227,-1.2650299,-0.46592712,0.05281067,-0.9787545,0.12367058,-6.5906334
1570715016,-2.4678192,10.219055,1.9710236,-1.6634369,-1.6462402,-0.17408752,-3.3728373,1.2822256,-2.2499924
1570715016,-2.2098541,7.2484436,-1.9261322,-2.2812805,-0.30081177,-0.026016235,-7.2908425,-1.0704012,-7.277506
1570715016,3.1986542,3.0514069,3.3327332,-1.1893921,-1.611084,-0.35305786,2.1683583,-4.9882565,-1.1155181
1570715016,3.2602997,3.0980988,3.4171295,-1.0871277,-1.5674133,-0.3679657,2.1683583,-4.9882565,-1.1155181
1570715016,2.8275452,3.1280212,3.1447906,0.12194824,-0.82598877,-0.43081665,1.9698921,-4.7685323,-1.2729568
1570715016,2.21344,3.633194,2.269104,0.81970215,-0.2134552,-0.22628784,1.1769245,-4.484035,-1.5660901
1570715016,0.8894501,6.5750732,2.659958,1.4247742,0.062454224,-0.2422638,0.046726823,-2.3202372,-1.1860595
1570715016,1.6154938,12.693466,9.574417,1.3054504,0.26271057,-0.14427185,0.7939967,3.301138,5.5445232
1570715016,1.6154938,13.631989,9.957489,1.1456604,0.2872162,-0.096328735,0.7939967,3.301138,5.5445232
1570715016,0.3645172,8.97406,8.206131,0.39253235,-0.16445923,-0.06970215,-0.77036834,2.1561718,6.329832
1570715016,2.5941162,5.4922943,4.9984894,0.33926392,0.085876465,0.06665039,1.2275163,-2.54424,2.3853316
1570715016,9.414597,15.17984,-0.37709045,1.3310242,1.8424988,1.331131,6.174843,3.9883575,-0.40842223
1570715016,6.50325,9.1853485,-3.2632904,0.5342102,1.9756622,0.35534668,6.5632086,1.9031429,-5.6790175
1570715016,6.50325,9.1853485,-3.2632904,0.5342102,1.9756622,0.35534668,6.5632086,1.9031429,-5.6790175
1570715016,1.8100128,4.639969,-0.3357849,0.16349792,1.2811127,0.45121765,0.7360538,-4.207018,-3.0601087
1570715016,0.74998474,9.393646,-4.2880096,0.92941284,0.7761688,0.9465637,-0.48206234,0.27129078,-5.850087
1570715016,0.02394104,9.370911,-4.5597534,0.90171814,0.362854,0.82832336,-0.9974755,0.7334337,-6.559342
1570715016,-1.0977478,13.503296,10.007172,1.6580658,-0.5852356,0.9146118,-3.8220053,4.782896,8.67106
1570715016,-1.0977478,13.503296,10.007172,1.6580658,-0.5852356,0.9146118,-3.8220053,4.782896,8.67106
1570715017,-0.51594543,6.590042,2.1631622,2.1555328,1.3514099,-0.75679016,-3.0551267,-2.4493408,1.8047631
1570715017,-0.51594543,6.590042,2.1631622,2.1555328,1.3514099,-0.75679016,-3.0551267,-2.4493408,1.8047631
1570715017,0.2747345,7.8410034,1.9710236,1.0604401,1.5932312,-1.3256378,-0.8710458,-1.2376108,1.7989002
1570715017,0.2747345,7.8410034,1.9710236,1.0604401,1.5932312,-1.3256378,-0.8710458,-1.2376108,1.7989002
1570715017,0.7068939,7.230484,-0.5015869,1.1286163,1.73172,-0.21456909,0.11249131,-1.499383,0.52355325
1570715017,0.7068939,7.230484,-0.5015869,1.1286163,1.73172,-0.21456909,0.11249131,-1.499383,0.52355325
1570715017,2.0350647,9.30986,-0.3154297,-0.14543152,1.2960205,0.52578735,1.0235722,0.23321915,0.43226588
1570715017,2.0350647,9.30986,-0.3154297,-0.14543152,1.2960205,0.52578735,1.0235722,0.23321915,0.43226588
1570715017,1.1324615,10.901398,0.3471527,0.3584442,0.31704712,0.6674652,-0.17338097,1.7288074,1.757504
1570715017,1.2533722,11.065994,-1.1174927,0.46070862,-0.12823486,0.49702454,0.103842616,2.273798,0.28674704
1570715017,-2.5761566,10.718246,3.0424347,0.6066437,-2.9756927,0.21046448,-3.6686473,1.459116,3.456205
1570715017,-2.561798,10.931931,3.3632507,0.61943054,-2.9085693,0.21260071,-3.6686473,1.459116,3.456205
1570715017,-2.8233643,11.952454,4.0881042,0.39572144,-1.4587555,0.1923523,-3.771577,3.0244122,5.7497034
1570715017,-1.6819305,14.372391,-2.2714996,-2.0831451,0.2616577,-0.53308105,-2.8632126,5.401148,-0.763183
1570715017,-0.5422821,10.645813,-1.2473755,-3.1217804,-2.0158844,-0.95599365,-2.4866097,2.1197453,-0.72374666
1570715017,1.6615753,8.908218,-0.53689575,-3.3114014,-2.6667633,-0.77490234,1.3912058,0.6947136,-0.9613675
1570715017,0.9971924,9.1458435,0.13647461,-3.2709198,-2.1490479,0.30314636,0.4456488,-0.18340874,-1.0760756
1570715017,12.763489,12.737152,2.8748322,-1.8743591,1.3982849,-0.12722778,13.398714,4.489623,0.029384136
1570715017,4.9715576,9.2248535,0.7044983,-0.47354126,1.2981567,0.07836914,4.9528003,0.6516695,-0.9379928
1570715017,-2.8874054,9.15184,-0.6979065,-1.9712982,-3.1493225,0.4118042,-3.6485205,-0.17475605,-7.1525097
1570715017,-3.8432922,11.076767,5.6820374,-1.9137726,-1.7612915,-0.11869812,-4.5054407,2.468032,2.4177
1570715017,-4.2365417,7.65007,-9.03273,-2.062912,0.2967987,-0.42762756,-5.2289667,0.860487,-7.5484605
1570715017,4.2598877,4.6543274,2.1080933,-2.2567902,-1.8646088,-0.38928223,3.0598068,-2.975216,-2.5521674
1570715017,3.6116486,3.609253,3.0065155,-0.62586975,-1.3788605,-0.7908783,2.8124106,-4.054897,-1.2498341
1570715017,3.039444,3.0107117,3.182495,-0.30096436,-1.1711273,-0.81217957,2.400465,-4.323378,-1.4459763
1570715017,0.4219818,3.5224762,2.2858582,1.2766876,-0.13356018,-0.3924713,-0.5977125,-4.712923,-2.2548122
1570715017,0.4219818,3.5224762,2.2858582,1.2766876,-0.13356018,-0.3924713,-0.59209114,-4.5353146,-1.7780099
1570715017,1.6526031,11.933304,9.501984,1.568573,0.25419617,0.23071289,0.8748297,0.9995127,5.1074114
1570715017,1.6526031,11.933304,9.501984,1.568573,0.25419617,0.23071289,0.8748297,0.9995127,5.1074114
1570715017,0.19631958,8.377319,6.159088,0.08999634,-0.6448822,-0.086746216,-0.85569346,1.0667276,3.679132
1570715017,0.19631958,8.377319,6.159088,0.08999634,-0.6448822,-0.086746216,-0.85569346,1.0667276,3.679132
1570715017,2.6946716,4.273651,5.6892242,0.24551392,-0.4275818,-0.049453735,1.4584842,-3.9870605,2.539888
1570715017,5.27861,8.502411,2.2900543,2.091629,1.591095,0.9316559,2.9845202,-1.3437958,0.49817586
1570715017,7.19458,14.140747,-3.040039,2.5347748,2.4550323,1.3066254,5.4198713,3.7861147,-4.251602
1570715018,3.5152893,9.006393,-0.73083496,0.9517822,1.9160004,0.32551575,5.0410624,3.1958847,-5.859301
1570715018,1.4293365,7.3549805,-2.5983124,0.6694946,1.0105286,0.5620117,-0.15615952,-1.4299326,-3.1873515
1570715018,-0.462677,7.0221863,-0.18914795,0.2167511,-1.8571625,0.44802856,-2.0714235,-2.0989704,-2.2518706
1570715018,-0.6589966,7.29274,0.14006042,0.31263733,-1.9423828,0.4394989,-2.0714235,-2.0989704,-2.2518706
1570715018,0.4118042,14.490906,0.49620056,0.80477905,-1.1338501,0.2914276,-2.1334608,4.998516,-1.1665683
1570715018,-1.0815735,7.1173706,3.3979645,1.7603302,3.1485138,-0.959198,-3.2810106,-1.6681461,3.3702872
1570715018,-1.0815735,7.1173706,3.3979645,1.7603302,3.1485138,-0.959198,-3.2810106,-1.6681461,3.3702872
1570715018,1.2192535,6.2602386,0.23942566,1.2127838,4.538681,-1.3980865,0.16267455,-1.7502489,-0.16807938
1570715018,-0.49380493,8.36235,-1.0378876,1.9819031,3.0728912,-0.58421326,-1.344869,-0.8949938,-0.51312387
1570715018,-0.24720764,8.403046,-1.1773529,1.9371643,2.9663544,-0.52563477,-1.344869,-0.8949938,-0.51312387
1570715018,0.4303589,6.8917084,-0.89901733,1.1392822,0.80599976,0.25733948,-0.13447726,-2.104063,0.25079817
1570715018,0.36871338,6.9467773,-0.97802734,1.1009216,0.73568726,0.2956848,-0.13447726,-2.104063,0.25079817
1570715018,1.0534515,9.548676,-0.3866577,0.19012451,0.04220581,0.91993713,-0.038244665,0.2987833,0.3288629
1570715018,1.7058716,10.985794,1.0013733,0.31796265,-0.33169556,0.932724,0.6090195,1.4113636,1.5357599
1570715018,-2.3744507,10.374069,0.7805023,0.5192871,-2.4643555,0.3372345,-2.8963923,1.7002935,1.4115189
1570715018,-2.3744507,10.374069,0.7805023,0.5192871,-2.4643555,0.3372345,-2.8963923,1.7002935,1.4115189
1570715018,-2.236786,12.856857,-0.39683533,-1.1329346,1.0691223,-0.33494568,-3.513929,3.4244213,3.2544546
1570715018,-2.236786,12.856857,-0.39683533,-1.1329346,1.0691223,-0.33494568,-3.3880062,3.639245,2.0811596
1570715018,2.3277588,10.890625,-2.0494385,-2.6179047,-2.7818146,-0.87184143,0.8825964,2.3539076,-1.7457194
1570715018,2.3277588,10.890625,-2.0494385,-2.6179047,-2.7818146,-0.87184143,0.8825964,2.3539076,-1.7457194
1570715018,1.877655,8.622116,-0.24481201,-3.2485504,-2.711502,0.18916321,1.5745885,-0.599803,-0.9950497
1570715018,2.466034,10.053848,1.3808594,-3.1249847,-2.0414429,0.66000366,1.6744548,0.41914177,-0.25757158
1570715018,6.454773,10.071808,-0.24301147,-1.0114899,2.0960388,0.22644043,6.4500437,1.510438,-0.029210329
1570715018,4.6902466,9.110535,-2.442688,-0.80696106,1.6891022,0.22750854,5.008043,0.6775255,-3.5405812
1570715018,-2.1278534,6.831253,-0.42855835,-1.8583832,-2.4068298,0.6333771,-2.869266,-2.025302,-6.1292315
1570715018,-2.0859528,7.3460083,2.3582916,-1.906311,-2.186325,0.6898346,-3.0061126,-1.6215229,-1.4970179
1570715018,2.2092438,5.7688293,-2.8012085,-1.9510498,-1.2584839,-0.5128479,-0.27596104,-1.4527245,-7.990057
1570715018,2.2092438,5.7688293,-2.8012085,-1.9510498,-1.2584839,-0.5128479,0.8989252,-2.0321484,-6.926317
1570715018,2.817978,3.9480438,1.1875305,-1.4940643,-1.9445038,-0.55332947,1.9480258,-3.8988514,-3.7612112
1570715018,2.534256,2.0213013,2.3576965,0.90171814,-0.64276123,-0.26997375,1.5767118,-6.096569,-1.3451612
1570715018,2.534256,2.0213013,2.3576965,0.90171814,-0.64276123,-0.26997375,1.5767118,-6.096569,-1.3451612
1570715018,1.8596954,5.79097,4.0342255,1.9084015,0.3585968,-0.0068511963,0.8299241,-3.179452,0.16671681
1570715018,-1.3186035,19.60373,12.726379,0.09957886,0.45339966,0.08796692,-0.72202325,10.982018,9.929743
1570715018,-1.3186035,19.60373,12.726379,0.09957886,0.45339966,0.08796692,-0.72202325,10.982018,9.929743
1570715019,2.2272034,4.124008,3.3584595,-0.16567993,-0.7950897,-0.32855225,0.67260563,-3.494855,0.1709857
1570715019,2.466034,3.858261,3.4596252,-0.13052368,-0.82598877,-0.30511475,1.1835406,-4.23639,0.2951901
1570715019,6.6032104,12.637192,-2.308014,1.615448,2.4124146,1.237381,5.087554,3.1447697,-3.344313
1570715019,6.6032104,12.637192,-2.308014,1.615448,2.4124146,1.237381,5.087554,3.1447697,-3.344313
1570715019,2.5354614,7.6554565,-2.7575226,0.92941284,1.0883026,0.51620483,0.97188854,-0.8451395,-3.1699405
1570715019,2.5354614,7.6554565,-2.7575226,0.92941284,1.0883026,0.51620483,0.97188854,-0.8451395,-3.1699405
1570715019,-0.048477173,4.839279,-4.384384,0.0015716553,-0.39561462,0.44482422,-1.0814198,-3.584157,-6.477164
1570715019,-0.35134888,4.897339,-3.3273468,-0.12731934,-1.4118805,0.7239227,-2.0440397,-3.9447517,-5.4269967
1570715019,0.64463806,13.451218,4.273056,1.041275,-1.372467,0.3851776,-1.6666012,4.2181854,2.690896
1570715019,-1.395813,7.7494354,1.8160095,2.06073,1.0286407,-1.074234,-3.246266,-0.41200638,1.0887849
1570715019,-1.395813,7.7494354,1.8160095,2.06073,1.0286407,-1.074234,-3.246266,-0.41200638,1.0887849
1570715019,1.1456299,6.8282623,4.116226,1.0402069,3.5341492,-1.2404175,-0.22417724,-2.481247,2.714482
1570715019,1.161789,7.1359253,4.4484253,1.104126,3.6566467,-1.2585297,-0.045647502,-2.2290611,3.6035564
1570715019,0.06764221,8.6358795,3.1735077,1.7379608,4.488617,-1.1168518,-0.5697268,-0.48369217,3.6523447
1570715019,1.1689758,8.285141,-0.1370697,1.7677765,3.1751556,-0.3455963,0.3699566,-0.5756016,0.25346923
1570715019,0.0796051,7.890091,-1.703476,1.6580658,1.4803162,-0.24440002,-0.08347809,-0.9713545,-0.54292667
1570715019,0.94091797,10.031113,0.45729065,0.4170227,-0.384964,0.6355133,-0.13820499,0.712615,1.1106735
1570715019,0.9935913,10.137054,0.62309265,0.42662048,-0.4691162,0.64616394,0.063287735,1.065733,1.5999309
1570715019,-0.6392517,10.272919,0.80145264,0.4116974,-0.9399719,0.5098114,-1.555334,1.3978539,2.2071052
1570715019,-0.7404022,10.2842865,1.0229187,0.39465332,-0.93144226,0.50128174,-1.555334,1.3978539,2.2071052
1570715019,-1.3766632,10.285492,2.5719757,0.2678833,-0.55326843,0.2722473,-2.3257518,1.4743919,4.010433
1570715019,-1.9524689,11.657364,1.9674377,-0.10601807,0.57377625,-0.05052185,-3.10109,1.9880772,3.9233186
1570715019,-2.6078796,13.080124,-1.1725616,-0.9678192,0.66645813,-0.32536316,-3.3015046,4.2715034,0.7773125
1570715019,-3.3411102,13.800186,-1.921341,-2.2290955,-0.5287781,-0.7269592,-4.285771,4.713977,-1.0959109
1570715019,-1.3299866,10.161591,-1.1360474,-2.4996643,-2.8254852,-0.7642517,-3.4043412,1.6418343,-0.76410437
1570715019,1.7004852,8.731049,-0.79008484,-3.049347,-3.1077728,-0.49580383,1.1677506,-0.67081356,-1.1470639
1570715019,1.2737122,11.192291,1.9003906,-3.545761,-2.1437225,0.8645325,0.40142447,1.754921,-0.6506101
1570715019,9.106949,11.194687,3.3692474,-1.1382599,2.021469,-0.642807,11.8170185,4.424733,1.4386551
1570715019,4.9643707,8.759186,1.569397,-0.67167664,2.2217407,-0.46704102,6.4681664,1.1884232,0.0776484
1570715019,-2.5953217,7.854782,-3.9121246,-1.3960571,-3.3442688,-0.14746094,-3.1471682,-1.2009916,-8.357968
1570715019,-4.4220886,9.46907,3.1477814,-2.241867,-2.2747498,-0.26890564,-4.558962,0.2116642,-0.28453612
1570715019,2.913742,4.2556915,1.1097107,-1.9808807,-1.3351746,-0.32322693,1.7555491,-3.7555895,-3.1069708
1570715019,2.913742,4.2556915,1.1097107,-1.9808807,-1.3351746,-0.32322693,1.7555491,-3.7555895,-3.1069708
1570715020,3.837906,3.617035,1.4891968,-0.84957886,-1.5844574,-0.57995605,2.8344295,-3.8476853,-2.977055
1570715020,3.0933075,1.9285278,2.8802185,0.2838745,-1.0326385,-0.52989197,2.129621,-5.782404,-1.46984
1570715020,1.561615,2.4929657,1.7280121,1.4471436,-0.11437988,-0.1410675,0.666111,-5.7713227,-2.2644458
1570715020,1.5586243,7.4974365,5.4881134,2.236496,0.71759033,-0.021759033,0.63936496,-1.9342375,1.7919388
1570715020,1.5424652,8.070251,5.680237,2.2397003,0.7186432,-0.014297485,0.5955202,-1.0271664,2.175823
1570715020,-0.66319275,19.60791,13.272858,0.6396637,0.95939636,0.25627136,-0.7855376,11.143059,10.391659
1570715020,-0.40283203,13.9133,8.774155,-0.021865845,-0.74928284,-0.55226135,-0.36943185,10.043985,7.159429
1570715020,1.913559,2.3349457,3.4111328,0.017547607,-0.5426178,-0.22521973,0.5250536,-5.9276896,0.17388773
1570715020,1.6974945,3.0699615,4.3771973,0.562973,-0.47444153,0.2679901,1.0621982,-5.8436346,1.4015038
1570715020,5.008667,10.193314,-1.9147644,1.3683014,2.1535645,1.4578857,3.193068,0.6822109,-3.715149
1570715020,12.239761,19.05426,-4.6674957,0.80052185,3.2273407,1.2416382,9.606754,8.524666,-7.388746
1570715020,3.111267,8.660431,-0.073028564,1.6058655,1.6028137,0.7462921,1.2432461,-0.06293869,-1.0803611
1570715020,1.9554596,6.6002197,-5.1206055,1.1946716,0.27230835,0.2956848,1.7681888,-1.0513935,-5.939296
1570715020,-0.22505188,3.8492737,-4.114441,-0.031448364,-0.87605286,0.6482849,-1.5153375,-4.582409,-6.196077
1570715020,0.24061584,6.692398,-2.6647491,0.5288849,-3.268631,0.57691956,-1.5897325,-3.4179478,-4.9431076
1570715020,-0.7080841,13.902527,0.034713745,0.6876068,-3.2952728,0.7644043,-3.1200686,3.3966331,-2.0577006
1570715020,-0.5309143,12.955032,7.427414,1.7603302,0.050735474,-0.7259064,-1.8609717,6.7304506,7.077747
1570715020,-1.458664,6.566101,0.018554688,1.4631195,3.263565,-1.1360321,-3.3784993,-2.1443634,-0.03218162
1570715020,0.80804443,5.3977203,2.9191284,0.6822815,3.9879456,-1.5855713,-0.39631844,-3.5182943,1.504279
1570715020,0.80804443,5.3977203,2.9191284,0.6822815,3.9879456,-1.5855713,-0.39631844,-3.5182943,1.504279
1570715028,0.80804443,5.3977203,2.9191284,0.6822815,3.9879456,-1.5855713,-0.39631844,-3.5182943,1.504279
1570715028,0.80804443,5.3977203,2.9191284,0.6822815,3.9879456,-1.5855713,-0.39631844,-3.5182943,1.504279
1570715028,0.80804443,5.3977203,2.9191284,0.6822815,3.9879456,-1.5855713,-0.39631844,-3.5182943,1.504279
1570715028,0.80804443,5.3977203,2.9191284,0.6822815,3.9879456,-1.5855713,-0.39631844,-3.5182943,1.504279
1570715028,0.80804443,5.3977203,2.9191284,0.6822815,3.9879456,-1.5855713,-0.39631844,-3.5182943,1.504279
1570715028,0.80804443,5.3977203,2.9191284,0.6822815,3.9879456,-1.5855713,-0.39631844,-3.5182943,1.504279
1570715028,0.80804443,5.3977203,2.9191284,0.6822815,3.9879456,-1.5855713,-0.39631844,-3.5182943,1.504279
1570715028,0.80804443,5.3977203,2.9191284,0.6822815,3.9879456,-1.5855713,-0.39631844,-3.5182943,1.504279
1570715028,0.80804443,5.3977203,2.9191284,0.6822815,3.9879456,-1.5855713,-0.39631844,-3.5182943,1.504279
1570715028,0.80804443,5.3977203,2.9191284,0.6822815,3.9879456,-1.5855713,-0.39631844,-3.5182943,1.504279
1570715028,0.80804443,5.3977203,2.9191284,0.6822815,3.9879456,-1.5855713,-0.39631844,-3.5182943,1.504279
1570715028,0.80804443,5.3977203,2.9191284,0.6822815,3.9879456,-1.5855713,-0.39631844,-3.5182943,1.504279
1570715028,0.80804443,5.3977203,2.9191284,0.6822815,3.9879456,-1.5855713,-0.39631844,-3.5182943,1.504279
1570715028,0.80804443,5.3977203,2.9191284,0.6822815,3.9879456,-1.5855713,-0.39631844,-3.5182943,1.504279
1570715028,0.80804443,5.3977203,2.9191284,0.6822815,3.9879456,-1.5855713,-0.39631844,-3.5182943,1.504279
1570715028,0.80804443,5.3977203,2.9191284,0.6822815,3.9879456,-1.5855713,-0.39631844,-3.5182943,1.504279
1570715028,0.80804443,5.3977203,2.9191284,0.6822815,3.9879456,-1.5855713,-0.39631844,-3.5182943,1.504279
1570715028,0.80804443,5.3977203,2.9191284,0.6822815,3.9879456,-1.5855713,-0.39631844,-3.5182943,1.504279
1570715028,0.80804443,5.3977203,2.9191284,0.6822815,3.9879456,-1.5855713,-0.39631844,-3.5182943,1.504279
1570715028,0.80804443,5.3977203,2.9191284,0.6822815,3.9879456,-1.5855713,-0.39631844,-3.5182943,1.504279
1570715028,0.80804443,5.3977203,2.9191284,0.6822815,3.9879456,-1.5855713,-0.39631844,-3.5182943,1.504279
1570715028,0.80804443,5.3977203,2.9191284,0.6822815,3.9879456,-1.5855713,-0.39631844,-3.5182943,1.504279
1570715028,0.80804443,5.3977203,2.9191284,0.6822815,3.9879456,-1.5855713,-0.39631844,-3.5182943,1.504279
1570715028,0.80804443,5.3977203,2.9191284,0.6822815,3.9879456,-1.5855713,-0.39631844,-3.5182943,1.504279
1570715028,0.80804443,5.3977203,2.9191284,0.6822815,3.9879456,-1.5855713,-0.39631844,-3.5182943,1.504279
1570715028,0.80804443,5.3977203,2.9191284,0.6822815,3.9879456,-1.5855713,-0.39631844,-3.5182943,1.504279
1570715028,0.80804443,5.3977203,2.9191284,0.6822815,3.9879456,-1.5855713,-0.39631844,-3.5182943,1.504279
1570715028,0.80804443,5.3977203,2.9191284,0.6822815,3.9879456,-1.5855713,-0.39631844,-3.5182943,1.504279
1570715028,0.80804443,5.3977203,2.9191284,0.6822815,3.9879456,-1.5855713,-0.39631844,-3.5182943,1.504279
1570715028,0.80804443,5.3977203,2.9191284,0.6822815,3.9879456,-1.5855713,-0.39631844,-3.5182943,1.504279
1570715028,0.80804443,5.3977203,2.9191284,0.6822815,3.9879456,-1.5855713,-0.39631844,-3.5182943,1.504279
1570715028,0.80804443,5.3977203,2.9191284,0.6822815,3.9879456,-1.5855713,-0.39631844,-3.5182943,1.504279
1570715028,0.80804443,5.3977203,2.9191284,0.6822815,3.9879456,-1.5855713,-0.39631844,-3.5182943,1.504279
1570715028,0.80804443,5.3977203,2.9191284,0.6822815,3.9879456,-1.5855713,-0.39631844,-3.5182943,1.504279
1570715028,0.80804443,5.3977203,2.9191284,0.6822815,3.9879456,-1.5855713,-0.39631844,-3.5182943,1.504279
1570715028,0.80804443,5.3977203,2.9191284,0.6822815,3.9879456,-1.5855713,-0.39631844,-3.5182943,1.504279
1570715028,0.80804443,5.3977203,2.9191284,0.6822815,3.9879456,-1.5855713,-0.39631844,-3.5182943,1.504279
1570715028,0.80804443,5.3977203,2.9191284,0.6822815,3.9879456,-1.5855713,-0.39631844,-3.5182943,1.504279
1570715028,0.80804443,5.3977203,2.9191284,0.6822815,3.9879456,-1.5855713,-0.39631844,-3.5182943,1.504279
1570715028,0.80804443,5.3977203,2.9191284,0.6822815,3.9879456,-1.5855713,-0.39631844,-3.5182943,1.504279
1570715028,0.80804443,5.3977203,2.9191284,0.6822815,3.9879456,-1.5855713,-0.39631844,-3.5182943,1.504279
1570715028,0.80804443,5.3977203,2.9191284,0.6822815,3.9879456,-1.5855713,-0.39631844,-3.5182943,1.504279
1570715028,0.80804443,5.3977203,2.9191284,0.6822815,3.9879456,-1.5855713,-0.39631844,-3.5182943,1.504279
1570715028,0.80804443,5.3977203,2.9191284,0.6822815,3.9879456,-1.5855713,-0.39631844,-3.5182943,1.504279
1570715028,0.80804443,5.3977203,2.9191284,0.6822815,3.9879456,-1.5855713,-0.39631844,-3.5182943,1.504279
1570715028,0.80804443,5.3977203,2.9191284,0.6822815,3.9879456,-1.5855713,-0.39631844,-3.5182943,1.504279
1570715028,0.80804443,5.3977203,2.9191284,0.6822815,3.9879456,-1.5855713,-0.39631844,-3.5182943,1.504279
1570715028,0.80804443,5.3977203,2.9191284,0.6822815,3.9879456,-1.5855713,-0.39631844,-3.5182943,1.504279
1570715028,0.80804443,5.3977203,2.9191284,0.6822815,3.9879456,-1.5855713,-0.39631844,-3.5182943,1.504279
1570715028,0.80804443,5.3977203,2.9191284,0.6822815,3.9879456,-1.5855713,-0.39631844,-3.5182943,1.504279
1570715028,0.80804443,5.3977203,2.9191284,0.6822815,3.9879456,-1.5855713,-0.39631844,-3.5182943,1.504279
1570715028,0.80804443,5.3977203,2.9191284,0.6822815,3.9879456,-1.5855713,-0.39631844,-3.5182943,1.504279
1570715028,0.80804443,5.3977203,2.9191284,0.6822815,3.9879456,-1.5855713,-0.39631844,-3.5182943,1.504279
1570715028,0.80804443,5.3977203,2.9191284,0.6822815,3.9879456,-1.5855713,-0.39631844,-3.5182943,1.504279
1570715028,0.80804443,5.3977203,2.9191284,0.6822815,3.9879456,-1.5855713,-0.39631844,-3.5182943,1.504279
1570715028,0.80804443,5.3977203,2.9191284,0.6822815,3.9879456,-1.5855713,-0.39631844,-3.5182943,1.504279
1570715028,0.80804443,5.3977203,2.9191284,0.6822815,3.9879456,-1.5855713,-0.39631844,-3.5182943,1.504279
1570715028,0.80804443,5.3977203,2.9191284,0.6822815,3.9879456,-1.5855713,-0.39631844,-3.5182943,1.504279
1570715028,0.80804443,5.3977203,2.9191284,0.6822815,3.9879456,-1.5855713,-0.39631844,-3.5182943,1.504279
1570715028,0.80804443,5.3977203,2.9191284,0.6822815,3.9879456,-1.5855713,-0.39631844,-3.5182943,1.504279
1570715028,0.80804443,5.3977203,2.9191284,0.6822815,3.9879456,-1.5855713,-0.39631844,-3.5182943,1.504279
1570715028,0.80804443,5.3977203,2.9191284,0.6822815,3.9879456,-1.5855713,-0.39631844,-3.5182943,1.504279
1570715028,0.80804443,5.3977203,2.9191284,0.6822815,3.9879456,-1.5855713,-0.39631844,-3.5182943,1.504279
1570715028,0.80804443,5.3977203,2.9191284,0.6822815,3.9879456,-1.5855713,-0.39631844,-3.5182943,1.504279
1570715028,0.80804443,5.3977203,2.9191284,0.6822815,3.9879456,-1.5855713,-0.39631844,-3.5182943,1.504279
1570715028,0.80804443,5.3977203,2.9191284,0.6822815,3.9879456,-1.5855713,-0.39631844,-3.5182943,1.504279
1570715028,0.80804443,5.3977203,2.9191284,0.6822815,3.9879456,-1.5855713,-0.39631844,-3.5182943,1.504279
1570715028,0.80804443,5.3977203,2.9191284,0.6822815,3.9879456,-1.5855713,-0.39631844,-3.5182943,1.504279
1570715028,0.80804443,5.3977203,2.9191284,0.6822815,3.9879456,-1.5855713,-0.39631844,-3.5182943,1.504279
1570715028,0.80804443,5.3977203,2.9191284,0.6822815,3.9879456,-1.5855713,-0.39631844,-3.5182943,1.504279
1570715028,0.80804443,5.3977203,2.9191284,0.6822815,3.9879456,-1.5855713,-0.39631844,-3.5182943,1.504279
1570715028,0.80804443,5.3977203,2.9191284,0.6822815,3.9879456,-1.5855713,-0.39631844,-3.5182943,1.504279
1570715028,0.80804443,5.3977203,2.9191284,0.6822815,3.9879456,-1.5855713,-0.39631844,-3.5182943,1.504279
1570715028,0.80804443,5.3977203,2.9191284,0.6822815,3.9879456,-1.5855713,-0.39631844,-3.5182943,1.504279
1570715028,0.80804443,5.3977203,2.9191284,0.6822815,3.9879456,-1.5855713,-0.39631844,-3.5182943,1.504279
1570715028,0.80804443,5.3977203,2.9191284,0.6822815,3.9879456,-1.5855713,-0.39631844,-3.5182943,1.504279
1570715028,0.80804443,5.3977203,2.9191284,0.6822815,3.9879456,-1.5855713,-0.39631844,-3.5182943,1.504279
1570715028,0.80804443,5.3977203,2.9191284,0.6822815,3.9879456,-1.5855713,-0.39631844,-3.5182943,1.504279
1570715028,0.80804443,5.3977203,2.9191284,0.6822815,3.9879456,-1.5855713,-0.39631844,-3.5182943,1.504279
1570715028,0.80804443,5.3977203,2.9191284,0.6822815,3.9879456,-1.5855713,-0.39631844,-3.5182943,1.504279
1570715028,0.80804443,5.3977203,2.9191284,0.6822815,3.9879456,-1.5855713,-0.39631844,-3.5182943,1.504279
1570715028,0.80804443,5.3977203,2.9191284,0.6822815,3.9879456,-1.5855713,-0.39631844,-3.5182943,1.504279
1570715028,0.80804443,5.3977203,2.9191284,0.6822815,3.9879456,-1.5855713,-0.39631844,-3.5182943,1.504279
1570715028,0.80804443,5.3977203,2.9191284,0.6822815,3.9879456,-1.5855713,-0.39631844,-3.5182943,1.504279
1570715028,0.80804443,5.3977203,2.9191284,0.6822815,3.9879456,-1.5855713,-0.39631844,-3.5182943,1.504279
1570715028,0.80804443,5.3977203,2.9191284,0.6822815,3.9879456,-1.5855713,-0.39631844,-3.5182943,1.504279
1570715028,0.80804443,5.3977203,2.9191284,0.6822815,3.9879456,-1.5855713,-0.39631844,-3.5182943,1.504279
1570715028,0.80804443,5.3977203,2.9191284,0.6822815,3.9879456,-1.5855713,-0.39631844,-3.5182943,1.504279
1570715028,0.80804443,5.3977203,2.9191284,0.6822815,3.9879456,-1.5855713,-0.39631844,-3.5182943,1.504279
1570715028,0.80804443,5.3977203,2.9191284,0.6822815,3.9879456,-1.5855713,-0.39631844,-3.5182943,1.504279
1570715028,0.80804443,5.3977203,2.9191284,0.6822815,3.9879456,-1.5855713,-0.39631844,-3.5182943,1.504279
1570715028,0.80804443,5.3977203,2.9191284,0.6822815,3.9879456,-1.5855713,-0.39631844,-3.5182943,1.504279
1570715028,0.80804443,5.3977203,2.9191284,0.6822815,3.9879456,-1.5855713,-0.39631844,-3.5182943,1.504279
1570715028,0.80804443,5.3977203,2.9191284,0.6822815,3.9879456,-1.5855713,-0.39631844,-3.5182943,1.504279
1570715028,0.80804443,5.3977203,2.9191284,0.6822815,3.9879456,-1.5855713,-0.39631844,-3.5182943,1.504279
1570715028,0.80804443,5.3977203,2.9191284,0.6822815,3.9879456,-1.5855713,-0.39631844,-3.5182943,1.504279
1570715028,0.80804443,5.3977203,2.9191284,0.6822815,3.9879456,-1.5855713,-0.39631844,-3.5182943,1.504279
1570715028,0.80804443,5.3977203,2.9191284,0.6822815,3.9879456,-1.5855713,-0.39631844,-3.5182943,1.504279
1570715028,0.80804443,5.3977203,2.9191284,0.6822815,3.9879456,-1.5855713,-0.39631844,-3.5182943,1.504279
1570715028,0.80804443,5.3977203,2.9191284,0.6822815,3.9879456,-1.5855713,-0.39631844,-3.5182943,1.504279
1570715028,0.80804443,5.3977203,2.9191284,0.6822815,3.9879456,-1.5855713,-0.39631844,-3.5182943,1.504279
1570715028,0.80804443,5.3977203,2.9191284,0.6822815,3.9879456,-1.5855713,-0.39631844,-3.5182943,1.504279
1570715028,0.80804443,5.3977203,2.9191284,0.6822815,3.9879456,-1.5855713,-0.39631844,-3.5182943,1.504279
1570715028,0.80804443,5.3977203,2.9191284,0.6822815,3.9879456,-1.5855713,-0.39631844,-3.5182943,1.504279
1570715028,0.80804443,5.3977203,2.9191284,0.6822815,3.9879456,-1.5855713,-0.39631844,-3.5182943,1.504279
1570715028,0.80804443,5.3977203,2.9191284,0.6822815,3.9879456,-1.5855713,-0.39631844,-3.5182943,1.504279
1570715028,0.80804443,5.3977203,2.9191284,0.6822815,3.9879456,-1.5855713,-0.39631844,-3.5182943,1.504279
1570715028,0.80804443,5.3977203,2.9191284,0.6822815,3.9879456,-1.5855713,-0.39631844,-3.5182943,1.504279
1570715028,0.80804443,5.3977203,2.9191284,0.6822815,3.9879456,-1.5855713,-0.39631844,-3.5182943,1.504279
1570715028,0.80804443,5.3977203,2.9191284,0.6822815,3.9879456,-1.5855713,-0.39631844,-3.5182943,1.504279
1570715028,0.80804443,5.3977203,2.9191284,0.6822815,3.9879456,-1.5855713,-0.39631844,-3.5182943,1.504279
1570715028,0.80804443,5.3977203,2.9191284,0.6822815,3.9879456,-1.5855713,-0.39631844,-3.5182943,1.504279
1570715028,0.80804443,5.3977203,2.9191284,0.6822815,3.9879456,-1.5855713,-0.39631844,-3.5182943,1.504279
1570715028,0.80804443,5.3977203,2.9191284,0.6822815,3.9879456,-1.5855713,-0.39631844,-3.5182943,1.504279
1570715028,0.80804443,5.3977203,2.9191284,0.6822815,3.9879456,-1.5855713,-0.39631844,-3.5182943,1.504279
1570715028,0.80804443,5.3977203,2.9191284,0.6822815,3.9879456,-1.5855713,-0.39631844,-3.5182943,1.504279
1570715028,0.80804443,5.3977203,2.9191284,0.6822815,3.9879456,-1.5855713,-0.39631844,-3.5182943,1.504279
1570715028,0.80804443,5.3977203,2.9191284,0.6822815,3.9879456,-1.5855713,-0.39631844,-3.5182943,1.504279
1570715028,0.80804443,5.3977203,2.9191284,0.6822815,3.9879456,-1.5855713,-0.39631844,-3.5182943,1.504279
1570715028,0.80804443,5.3977203,2.9191284,0.6822815,3.9879456,-1.5855713,-0.39631844,-3.5182943,1.504279
1570715028,0.80804443,5.3977203,2.9191284,0.6822815,3.9879456,-1.5855713,-0.39631844,-3.5182943,1.504279
1570715028,0.80804443,5.3977203,2.9191284,0.6822815,3.9879456,-1.5855713,-0.39631844,-3.5182943,1.504279
1570715028,0.80804443,5.3977203,2.9191284,0.6822815,3.9879456,-1.5855713,-0.39631844,-3.5182943,1.504279
1570715028,0.80804443,5.3977203,2.9191284,0.6822815,3.9879456,-1.5855713,-0.39631844,-3.5182943,1.504279
1570715028,0.80804443,5.3977203,2.9191284,0.6822815,3.9879456,-1.5855713,-0.39631844,-3.5182943,1.504279
1570715028,0.80804443,5.3977203,2.9191284,0.6822815,3.9879456,-1.5855713,-0.39631844,-3.5182943,1.504279
1570715028,0.80804443,5.3977203,2.9191284,0.6822815,3.9879456,-1.5855713,-0.39631844,-3.5182943,1.504279
1570715028,0.80804443,5.3977203,2.9191284,0.6822815,3.9879456,-1.5855713,-0.39631844,-3.5182943,1.504279
1570715028,0.80804443,5.3977203,2.9191284,0.6822815,3.9879456,-1.5855713,-0.39631844,-3.5182943,1.504279
1570715028,0.80804443,5.3977203,2.9191284,0.6822815,3.9879456,-1.5855713,-0.39631844,-3.5182943,1.504279
1570715028,0.80804443,5.3977203,2.9191284,0.6822815,3.9879456,-1.5855713,-0.39631844,-3.5182943,1.504279
1570715028,0.80804443,5.3977203,2.9191284,0.6822815,3.9879456,-1.5855713,-0.39631844,-3.5182943,1.504279
1570715028,0.80804443,5.3977203,2.9191284,0.6822815,3.9879456,-1.5855713,-0.39631844,-3.5182943,1.504279
1570715028,0.80804443,5.3977203,2.9191284,0.6822815,3.9879456,-1.5855713,-0.39631844,-3.5182943,1.504279
1570715028,0.80804443,5.3977203,2.9191284,0.6822815,3.9879456,-1.5855713,-0.39631844,-3.5182943,1.504279
1570715028,0.80804443,5.3977203,2.9191284,0.6822815,3.9879456,-1.5855713,-0.39631844,-3.5182943,1.504279
1570715028,0.80804443,5.3977203,2.9191284,0.6822815,3.9879456,-1.5855713,-0.39631844,-3.5182943,1.504279
1570715028,0.80804443,5.3977203,2.9191284,0.6822815,3.9879456,-1.5855713,-0.39631844,-3.5182943,1.504279
1570715028,0.80804443,5.3977203,2.9191284,0.6822815,3.9879456,-1.5855713,-0.39631844,-3.5182943,1.504279
1570715028,0.80804443,5.3977203,2.9191284,0.6822815,3.9879456,-1.5855713,-0.39631844,-3.5182943,1.504279
1570715028,0.80804443,5.3977203,2.9191284,0.6822815,3.9879456,-1.5855713,-0.39631844,-3.5182943,1.504279
1570715028,0.80804443,5.3977203,2.9191284,0.6822815,3.9879456,-1.5855713,-0.39631844,-3.5182943,1.504279
1570715028,0.80804443,5.3977203,2.9191284,0.6822815,3.9879456,-1.5855713,-0.39631844,-3.5182943,1.504279
1570715028,0.80804443,5.3977203,2.9191284,0.6822815,3.9879456,-1.5855713,-0.39631844,-3.5182943,1.504279
1570715028,0.80804443,5.3977203,2.9191284,0.6822815,3.9879456,-1.5855713,-0.39631844,-3.5182943,1.504279
1570715028,0.80804443,5.3977203,2.9191284,0.6822815,3.9879456,-1.5855713,-0.39631844,-3.5182943,1.504279
1570715028,0.80804443,5.3977203,2.9191284,0.6822815,3.9879456,-1.5855713,-0.39631844,-3.5182943,1.504279
1570715028,0.80804443,5.3977203,2.9191284,0.6822815,3.9879456,-1.5855713,-0.39631844,-3.5182943,1.504279
1570715028,0.80804443,5.3977203,2.9191284,0.6822815,3.9879456,-1.5855713,-0.39631844,-3.5182943,1.504279
1570715028,0.80804443,5.3977203,2.9191284,0.6822815,3.9879456,-1.5855713,-0.39631844,-3.5182943,1.504279
1570715028,0.80804443,5.3977203,2.9191284,0.6822815,3.9879456,-1.5855713,-0.39631844,-3.5182943,1.504279
1570715028,0.80804443,5.3977203,2.9191284,0.6822815,3.9879456,-1.5855713,-0.39631844,-3.5182943,1.504279
1570715028,0.80804443,5.3977203,2.9191284,0.6822815,3.9879456,-1.5855713,-0.39631844,-3.5182943,1.504279
1570715028,0.80804443,5.3977203,2.9191284,0.6822815,3.9879456,-1.5855713,-0.39631844,-3.5182943,1.504279
1570715028,0.80804443,5.3977203,2.9191284,0.6822815,3.9879456,-1.5855713,-0.39631844,-3.5182943,1.504279
1570715028,0.80804443,5.3977203,2.9191284,0.6822815,3.9879456,-1.5855713,-0.39631844,-3.5182943,1.504279
1570715028,0.80804443,5.3977203,2.9191284,0.6822815,3.9879456,-1.5855713,-0.39631844,-3.5182943,1.504279
1570715028,0.80804443,5.3977203,2.9191284,0.6822815,3.9879456,-1.5855713,-0.39631844,-3.5182943,1.504279
1570715028,0.80804443,5.3977203,2.9191284,0.6822815,3.9879456,-1.5855713,-0.39631844,-3.5182943,1.504279
1570715028,0.80804443,5.3977203,2.9191284,0.6822815,3.9879456,-1.5855713,-0.39631844,-3.5182943,1.504279
1570715028,0.80804443,5.3977203,2.9191284,0.6822815,3.9879456,-1.5855713,-0.39631844,-3.5182943,1.504279
1570715028,0.80804443,5.3977203,2.9191284,0.6822815,3.9879456,-1.5855713,-0.39631844,-3.5182943,1.504279
1570715028,0.80804443,5.3977203,2.9191284,0.6822815,3.9879456,-1.5855713,-0.39631844,-3.5182943,1.504279
1570715028,0.80804443,5.3977203,2.9191284,0.6822815,3.9879456,-1.5855713,-0.39631844,-3.5182943,1.504279
1570715028,0.80804443,5.3977203,2.9191284,0.6822815,3.9879456,-1.5855713,-0.39631844,-3.5182943,1.504279
