time,ax,ay,az,gx,gy,gz,la_x,la_y,la_z,fox,foy,foz
1570714945,6.655881,3.715801,4.1371803,-0.54649734,-0.85117227,-0.47299185,-0.7613561,-0.2777274,-1.2401965
1570714945,5.851429,3.2465374,4.5681367,-0.5827174,-0.5241261,-0.32917675,-1.6136919,-0.7517793,-0.36870706
1570714945,9.016563,3.7732618,5.1810527,-0.7297284,-0.5997622,-0.4889713,1.5227122,-0.22505496,0.2777274
1570714945,8.413225,4.0462008,4.9895163,-0.75209963,-1.2133732,-0.6647453,0.8619126,0.01436521,0.19632454
1570714945,6.9767036,3.8977604,4.146757,-0.73185897,-1.0333381,-0.47618774,-0.6703765,-0.15801731,-0.45010993
1570714945,7.2448545,4.1946416,4.8937483,-1.0290768,-0.7957768,-0.3163932,-0.50757074,0.10055647,0.33997664
1570714945,7.929596,3.6152446,4.280833,-1.5904883,-0.868217,0.045807768,0.095768064,-0.22505496,-0.20111294
1570714945,7.0102224,2.7341783,4.7070007,-1.804613,-0.6210681,-0.07776668,-0.90979666,-0.8714894,0.18674773
1570714945,8.226477,1.8291701,3.145981,-1.5840966,-0.23010413,-0.44635943,0.272939,-1.6089035,-1.4413095
1570714945,8.106767,3.4284968,4.8458643,-1.8685309,0.5582156,-0.81175625,0.2633622,0.062249243,0.009576807
1570714945,8.0924015,4.5441947,7.991845,-1.9569504,-0.3771151,-0.25034478,0.32561144,1.3503298,2.920926
1570714945,7.1826053,2.006341,3.41892,-1.2655728,-0.74890375,0.068179004,-0.7661445,-0.5602432,-0.7182605
1570714946,8.063671,2.1643584,4.43885,-0.6189375,0.034089502,-0.34302562,0.17717093,-0.7086837,-0.6368576
1570714946,8.259995,3.0933087,5.482722,-0.56993383,-0.28336897,-0.42611876,0.61291564,-0.02873042,0.45489833
1570714946,4.295198,2.906561,4.1515455,-0.47192654,-0.9001759,-0.3792457,-2.873042,-0.047884032,-0.6943185
1570714946,5.046977,5.4300494,2.815581,0.29295665,-1.0429257,-1.3571883,-2.5474305,1.1444284,-1.6759412
1570714946,6.8091097,5.583278,3.620033,0.89271885,-1.5489417,-1.9558852,-1.6089035,1.9249382,-0.7517793
1570714946,8.207323,5.3486466,3.3662477,0.51240784,-1.9377751,-1.9068816,-0.02873042,1.5610195,-0.4261679
1570714946,10.314221,3.1651347,4.5872903,0.06285252,-2.4214199,-1.8450943,2.183512,-1.2689269,1.067814
1570714946,10.515334,2.6719291,4.6686935,-0.653027,-3.7604983,-1.8738573,2.6048915,-2.5617957,2.2170308
1570714946,10.6158905,4.8985367,2.5474305,-1.6096637,-3.7146904,-2.281866,2.4516625,-1.0390835,0.24420857
1570714946,12.253524,6.7372837,-0.16280572,-1.9612117,-4.12483,-2.02726,4.596867,0.8858546,-0.5267244
1570714946,10.989386,6.3925185,-1.0007763,-1.3625147,-3.9810147,-1.3092499,3.6583402,0.2873042,-1.6950948
1570714946,8.42759,5.506664,-0.272939,-0.50388545,-4.002321,-0.95876724,1.6950948,-0.9816227,-0.40222588
1570714946,7.1586633,6.646304,-1.5705963,-0.14381509,-4.104589,-1.2783563,-0.1340753,-0.50757074,-0.23463176
1570714946,8.566454,7.8912888,-3.1411927,-0.21945117,-3.648642,-0.800038,1.8914193,0.8858546,-1.316811
1570714946,7.9343843,6.861782,-2.681506,0.14701098,-2.8784323,-0.13635801,1.5658079,0.17238252,-0.80924016
1570714946,6.6271505,5.8226986,4.8745947,0.1054644,-2.7367477,-0.040481284,0.7038953,-1.1013328,6.655881
1570714946,5.2002063,6.411672,-0.3878607,-2.24245,-2.777229,-0.054330144,-0.6368576,-0.9672575,3.2752678
1570714946,4.9320555,7.321469,-2.681506,-1.5478765,-2.2669518,-0.26845482,-0.770933,-0.05267244,0.30166942
1570714946,6.019023,6.3350577,-2.777274,-0.4847101,-1.4115185,-0.1747087,0.44532153,-0.7134721,-0.11492168
1570714946,6.1530986,7.714118,-3.1555579,0.0063917814,-0.9044371,-0.19814523,0.545878,-0.7038953,0.60333884
1570714946,6.7085533,9.457097,-3.7684734,0.01065297,-0.6210681,-0.091615535,1.4413095,1.8962077,-0.40222588
1570714946,5.4300494,7.9583263,-3.0119057,0.2780425,-0.014914157,-0.56780326,0.36391866,0.320823,0.48362875
1570714946,5.4300494,7.9583263,-3.0119057,0.2780425,-0.014914157,-0.56780326,0.36391866,0.320823,0.48362875
1570714946,6.2584434,9.844957,-3.9360676,0.7265325,0.57526034,-0.15979454,0.770933,1.7621324,0.16759412
1570714946,6.373365,8.714894,-5.0134583,0.96409374,0.71161836,0.55075854,1.4796166,1.685518,-1.3263878
1570714946,5.60722,6.0525417,-4.912902,1.0077709,0.6604841,0.556085,0.30645782,-1.091756,-1.2162545
1570714946,5.0134583,6.2823853,-5.1906295,0.54649734,0.67752886,0.67752886,-0.19153613,-0.49320555,-1.4221559
1570714946,4.285621,5.6359506,-4.1515455,0.16938221,0.66368,0.5784562,-1.4269443,-1.340753,-0.30645782
1570714946,4.501099,5.425261,-3.2273839,-0.039415985,0.5944357,0.4495553,-1.3934253,-1.460463,0.50278234
1570714946,4.3622355,6.71813,-2.1212628,-0.16938221,0.312132,0.12783563,-1.6472107,-0.12928689,1.4987702
1570714946,5.3821654,7.2304893,-3.7924154,-0.13209683,0.40587813,0.29402196,-0.6799533,0.36870706,-0.2777274
1570714946,5.9519854,6.5265937,-2.1883004,0.21732058,0.6913777,0.5347791,-0.2873042,-0.22026655,1.2210429
1570714946,6.397307,7.1251445,-3.6104562,0.12677033,0.07457078,0.34302562,0.038307227,0.45968673,-0.23463176
1570714947,5.7508726,5.779603,-4.0222588,0.0031958907,-0.03835069,0.3835069,-0.6799533,-0.80924016,-0.6512229
1570714947,6.6367273,6.253655,-3.3662477,-0.30147904,-0.41653112,-0.08735435,0.20111294,-0.32561144,0.019153614
1570714947,6.909666,6.4643445,-3.0885203,-0.7766015,-0.20347172,0.29721785,0.48362875,-0.15322891,0.22984336
1570714947,8.279149,5.889736,-2.8874073,-0.6359823,0.0,-0.034089502,1.8387469,-0.78529817,0.29688102
1570714947,7.5944076,5.094861,-0.095768064,-0.351548,0.031958908,0.23010413,1.091756,-1.5658079,2.9879637
1570714947,7.005434,4.271256,-1.8148049,-1.0823417,-0.7414467,-0.064983115,0.5363012,-2.4612393,1.1875241
1570714947,5.592855,4.027047,-3.0262709,-1.3476006,-0.7542302,-0.50708133,-0.7326257,-2.8778305,-0.11971009
1570714947,3.6727054,4.2521024,-3.596091,-1.6586673,-0.35580918,-1.1846102,-2.4181437,-2.944868,-0.90500826
1570714947,4.6255975,6.2584434,-2.4851813,-1.7630664,0.56673795,-1.7737194,-1.5610195,-1.2401965,-0.16759412
1570714947,4.003105,4.6399627,0.62249243,-1.6267084,0.43996763,-2.4640317,-1.6998832,-3.7445314,2.5187001
1570714947,6.4164605,10.611102,-2.0398598,-0.6572882,-0.4857754,-2.9870925,0.9720459,0.16280572,-0.47884035
1570714947,4.697424,10.223241,-3.5098996,-0.63385165,-0.7371855,-1.5180482,1.2593501,2.1212628,-2.2984335
1570714947,3.7588966,11.932701,-2.4516625,-1.3007276,0.033024207,-0.6956389,-0.14844051,2.4133554,-0.6799533
1570714947,4.012682,10.759542,0.34955344,-0.9012412,1.022685,-0.03089361,0.40222588,1.934515,1.0055647
1570714947,4.8698063,10.390836,0.61291564,-0.3494174,0.771275,0.029828314,1.2880806,1.1875241,0.21068975
1570714947,6.7133417,15.672444,-1.091756,0.7180101,-0.33130735,0.059656627,2.7868507,6.363788,0.22984336
1570714947,4.4340615,8.408437,-2.3319526,0.66900647,-0.5496932,0.10652969,1.3215994,-0.06703765,0.02873042
1570714947,4.630386,7.8386164,0.4261679,0.506016,0.22477765,-0.26845482,0.89543146,-2.8778305,0.31603462
1570714947,5.032612,9.198523,-3.8546648,0.20347172,0.1374233,-0.08309316,1.13964,0.033518825,-3.083732
1570714947,4.4675803,8.916007,-0.91937345,0.014914157,0.4495553,-0.15872924,0.8283938,-0.06703765,0.2825158
1570714947,3.5003228,8.954314,-1.3742718,-0.009587673,0.3920293,-0.12144385,-0.29688102,-0.076614454,-0.2777274
1570714947,3.572149,9.198523,-1.2354081,0.04900366,0.50814664,-0.1033338,-0.11492168,0.10055647,0.01436521
1570714947,3.2321723,9.002198,-1.0295067,0.11079088,0.3440909,-0.11505207,-0.34476504,0.062249243,0.1340753
1570714947,2.8921957,8.796297,-1.3455414,0.12890093,0.2748466,-0.09587672,-0.8619126,-0.19153613,-0.23942018
1570714947,3.083732,9.083601,-1.2641385,0.014914157,0.17683929,-0.05113425,-0.7374141,0.07182605,-0.19632454
1570714947,3.265691,9.083601,-1.1109096,0.0021305939,0.11185618,-0.05539544,-0.49320555,0.090979666,-0.01436521
1570714947,3.5482068,8.274361,-0.91458505,0.023436533,0.04793836,-0.07350549,-0.20590134,0.23463176,-0.12449849
1570714947,3.2704794,4.6112323,-0.866701,-1.1015171,-0.2737813,-0.14807628,-0.4165911,-3.845088,1.7764976
1570714947,3.8977604,6.1195793,-0.21547815,-0.7989727,-0.035154797,0.10652969,0.10534488,-3.1507695,0.50757074
1570714947,3.7780502,5.5497594,-0.16759412,-0.29828313,-0.11185618,-0.25354066,0.08619126,-3.5194764,0.32561144
1570714947,3.7732618,6.114791,-1.13964,0.2844343,-0.19175345,-0.1022685,0.17238252,-0.47884035,-0.2681506
1570714947,3.3806129,4.486734,0.04309563,1.8237884,-1.0908641,-0.9310695,-0.11492168,-4.6255975,0.9864111
1570714947,1.6280571,19.110518,-5.425261,2.4203546,-1.2261568,-1.0130974,-1.460463,9.969456,-3.6727054
1570714947,3.5769374,11.8896055,-0.9816227,-0.7797974,0.5997622,-0.21518998,0.5602432,2.7485435,0.90979666
1570714948,4.2664676,12.761095,-2.207454,-0.5315832,-0.47938362,-0.116117366,1.316811,3.5482068,-0.5793968
1570714948,2.327164,13.364434,-2.1930888,-0.4452941,-0.19388404,0.15020686,-0.6368576,4.1419687,-0.6464345
1570714948,2.7964275,11.473015,-1.8674773,0.23543063,0.14594568,-0.015979454,-0.18674773,2.2505496,-0.35434186
1570714948,3.2513258,10.34774,-2.1691468,0.56247675,0.4112046,-0.063917816,0.25857377,1.1492168,-0.5506664
1570714948,4.213795,8.446744,-2.3989902,0.4431635,0.3792457,-0.23756121,1.2401965,-0.7374141,-0.6703765
1570714948,4.1371803,6.7803793,-1.5801731,-0.653027,0.33450323,-0.24821419,1.2258313,-2.4372973,0.05267244
1570714948,3.6296098,8.523358,-1.8052281,0.068179004,0.33663383,0.034089502,0.7134721,-0.7038953,-0.21547815
1570714948,3.4476504,9.23683,-2.4037786,0.04261188,0.50068957,0.1033338,0.47884035,0.019153614,-0.8379706
1570714948,3.4093432,8.944737,-2.60968,0.29934844,0.6711371,0.09587672,0.38307226,-0.25378537,-1.0486604
1570714948,3.3327289,8.1163435,-2.873042,0.5145384,0.79471153,0.045807768,0.25378537,-1.0534488,-1.2641385
1570714948,4.8123455,8.106767,-2.585738,0.7755362,0.8426499,0.08309316,1.6759412,-1.0247183,-0.8762778
1570714948,4.9081135,9.136273,-2.1404164,0.8671517,0.6029581,0.18110047,1.8435353,-0.12928689,-0.30166942
1570714948,3.9600096,9.998186,-2.6719291,0.742512,0.6796594,0.23010413,0.79966336,0.7422025,-0.5506664
1570714948,3.1124623,8.853758,-2.72939,0.6988348,0.79151565,0.21625528,-0.16759412,0.521936,-0.62728083
1570714948,3.5003228,8.034941,-3.1124623,0.6903124,0.99285674,0.12890093,-0.110133275,-0.32561144,-1.0247183
1570714948,4.4196963,7.800309,-2.695871,0.7286631,0.9907262,0.07457078,0.79487497,-0.39743748,-0.59855044
1570714948,4.10845,7.479486,-2.8060043,0.72014076,0.82453984,0.011718267,0.56982,-1.1683705,-0.35913026
1570714948,3.466804,7.2209125,-3.0454245,0.6253293,0.9097636,-0.15340276,-0.21068975,-1.4413095,-0.60333884
1570714948,3.6248214,7.2065473,-3.016694,0.50388545,0.9044371,-0.3781804,-0.1436521,-1.5993267,-0.521936
1570714948,3.9600096,6.9623384,-3.0789435,0.42931467,0.70948774,-0.62213343,0.29209262,-1.661576,-0.5267244
1570714948,3.9552212,6.8186865,-2.9496565,0.409074,0.5241261,-0.73185897,0.4357447,-1.9632454,-0.36391866
1570714948,4.3718123,8.034941,-3.2752678,0.24075711,0.380311,-0.78725445,0.8810662,-1.0151415,-0.5315128
1570714948,4.8458643,8.5473,-3.4955344,-0.06285252,0.46340418,-0.7989727,1.5945383,-0.40701428,-0.90021986
1570714948,5.3821654,8.901642,-3.7445314,-0.20240642,0.5241261,-0.789385,2.2266076,-0.25857377,-1.0773908
1570714948,5.985504,9.208099,-3.620033,-0.0042611877,0.64663523,-0.47086126,3.2944214,0.25857377,-1.3024458
1570714948,5.2959743,8.619126,-3.241749,0.117182665,0.77020967,-0.19388404,2.5378537,-0.34955344,-0.94810385
1570714948,4.122815,8.858546,-2.3127987,0.0031958907,0.34302562,-0.37178862,1.6950948,-0.4213795,-0.07182605
1570714948,1.091756,11.856087,-2.4420857,-0.51240784,-0.1747087,-0.70203066,-0.9911995,2.078167,0.30166942
1570714948,1.0486604,14.69561,-3.6391866,-0.52945256,0.204537,-0.7723403,-2.006341,4.975151,-1.9393034
1570714948,3.1364043,9.983821,-1.7142484,-0.23543063,-0.28976077,-0.15446806,0.8571242,1.3982137,0.1388637
1570714948,1.3694834,7.0102224,-0.090979666,-0.21305938,-1.2186997,-0.27165073,-0.8571242,-2.3175871,1.9440918
1570714948,-1.757344,7.9631147,-1.1540052,-0.18323107,-0.92254716,-0.88845766,-3.7445314,-1.4173675,0.8810662
1570714948,2.657564,10.160992,-3.6487634,0.094811425,-0.47938362,-0.95450604,0.9816227,0.7182605,-1.5849615
1570714949,1.1300632,10.998962,-1.4508862,-0.25780186,-0.936396,-0.73185897,-0.2681506,1.5179238,0.62728083
1570714949,-2.1404164,8.1642275,-1.4891934,-0.47512242,-0.868217,-0.6455699,-3.2944214,-1.364695,0.49799395
1570714949,-0.59376204,7.771579,-3.064578,-0.25034478,-1.280487,-0.36752746,-1.541866,-1.7956513,-1.13964
1570714949,1.7669208,8.159439,-1.8866309,-0.3835069,-1.0322727,-0.2418224,0.9720459,-1.4317327,-0.01436521
1570714949,0.80445176,9.423578,-1.8243817,-0.17790459,-1.0077709,-0.3835069,0.15801731,-0.19153613,-0.009576807
1570714949,-0.2777274,9.595961,-1.9249382,-0.119313255,-0.8053645,-0.4452941,-0.7517793,-0.033518825,-0.1388637
1570714949,-0.7326257,9.514558,-2.0685902,-0.26206306,-0.86289054,-0.4495553,-1.0534488,-0.12928689,-0.33039984
1570714949,-0.047884032,9.222465,-1.7764976,-0.50921196,-0.9140248,-0.5113425,-0.20590134,-0.44532153,-0.16280572
1570714949,0.80445176,9.198523,-1.3838485,-0.5443667,-0.624264,-0.574195,0.5554548,-0.8714894,0.15322891
1570714949,0.79487497,9.993398,-1.9009962,-0.5912398,-0.3856375,-0.72014076,1.0726024,0.272939,-0.60333884
1570714949,0.29209262,9.725247,-2.5713725,-0.7382508,-0.6029581,-0.83306223,0.80924016,-0.0047884034,-1.4796166
1570714949,0.0,8.341399,-3.596091,-0.6359823,-0.94704896,-0.7851238,0.78529817,-1.3934253,-2.7246015
1570714949,0.40701428,8.101978,-3.4763808,-0.50068957,-1.1270841,-0.4836448,1.3982137,-1.6280571,-2.801216
1570714949,0.08140286,8.647857,-3.3423057,-0.40374753,-0.9662243,-0.2066676,1.3455414,-1.508347,-2.825158
1570714949,-0.2633622,10.242394,-4.1132383,-0.1747087,-0.9619631,-0.17683929,0.6991069,0.05267244,-3.265691
1570714949,2.2026656,9.097966,-6.2392898,0.21305938,-1.0993865,0.3771151,3.9121256,-0.90021986,-5.851429
1570714949,2.8538885,6.4739213,-3.0214825,0.98753023,0.16405573,0.9310695,3.5913026,-3.2704794,-2.4612393
1570714949,1.091756,9.648633,-3.4715924,1.9036856,1.280487,1.7534788,1.6089035,-0.08619126,-2.4277205
1570714949,-0.81881696,20.202274,-3.7445314,1.8962286,2.0826554,3.1937602,-0.62728083,8.384495,-2.27928
1570714949,2.9592333,17.563864,0.7613561,1.6703856,-0.15659864,1.9537545,1.70946,8.063671,2.8491
1570714949,2.3319526,9.816227,-0.51714754,1.4200408,1.2570504,0.8767394,0.866701,1.1492168,1.733402
1570714949,2.2984335,8.264784,-1.1300632,1.1760879,2.862453,1.219765,0.36870706,-0.6751649,1.340753
1570714949,2.7006595,9.193734,-1.0151415,1.1665001,2.0975697,1.1196271,0.0,-0.009576807,1.8195933
1570714949,1.1444284,8.331821,-1.757344,1.0514481,0.81601745,1.3444047,-1.4460979,-0.39743748,1.484405
1570714949,-0.1340753,8.240842,-2.183512,0.5944357,1.2538545,1.2847481,-3.2752678,-0.770933,0.9816227
1570714949,-0.7038953,9.021352,-1.7860745,0.5315832,1.4882199,0.8724782,-4.333505,0.34476504,1.091756
1570714949,-0.48362875,7.896077,-1.3359646,0.76168734,0.8564987,0.08735435,-4.6016555,-0.08140286,1.661576
1570714949,-0.04309563,6.6271505,-1.6089035,0.6189375,0.24608359,-0.33237264,-4.223372,-1.4077905,1.7525556
1570714949,0.9528923,6.2488666,-1.6519991,0.22797355,-0.03835069,-0.6455699,-3.0933087,-2.0494366,1.6136919
1570714949,2.9831753,7.129933,-3.083732,-0.09374613,-0.17044751,-0.9449184,-1.1444284,-1.388637,0.62249243
1570714949,5.046977,7.819463,-3.8977604,-0.21625528,0.3100014,-1.0993865,1.2545617,-0.9672575,-0.6751649
1570714949,6.991069,8.236053,-3.739743,-0.25567126,0.4932325,-1.1324106,3.5577838,-0.37349546,-0.39743748
1570714949,7.4842744,8.403648,-5.2002063,-0.15659864,0.3142626,-1.0759499,4.4963107,-0.39743748,-2.0733786
1570714950,6.26802,9.610326,-6.7324953,0.18536167,0.90869826,-0.42718408,3.4237084,0.7374141,-3.6583402
1570714950,5.8322754,7.8912888,-3.9791632,0.060721926,1.248528,-0.0074570784,2.906561,-0.9672575,-0.9576807
1570714950,3.9025488,9.481039,0.7374141,-0.8703476,0.50814664,-0.57206446,0.9911995,0.5506664,3.5577838
1570714950,-2.743755,21.212627,-3.6008794,-0.62213343,0.47725302,-1.0056403,-5.4444146,12.138602,-1.0295067
1570714950,1.484405,14.082694,-2.3175871,-0.59656626,0.28763017,-0.10972559,-1.0582372,4.9176903,0.07182605
1570714950,0.076614454,5.2241483,0.91458505,-0.24501829,-0.8042992,0.29934844,-1.2545617,-3.7972038,2.7006595
1570714950,-6.3206925,7.800309,0.6560113,0.18855755,-0.73612016,-0.7936462,-8.858546,-1.3838485,2.96881
1570714950,-0.5267244,10.6637745,-3.8498764,0.0692443,-0.8064298,-1.8078089,-2.5761611,1.3742718,-1.4556746
1570714950,1.6328455,8.944737,-2.7485435,-0.556085,-0.9949873,-0.72333664,0.0,-0.4261679,-0.36391866
1570714950,-2.0207062,7.1873937,-1.982399,-0.8234745,-1.7907641,-0.05113425,-4.0653543,-2.3558946,0.29209262
1570714950,-1.1683705,7.5225816,-2.2457612,-0.2844343,-1.6810386,0.113986775,-2.5330653,-1.9393034,-0.076614454
1570714950,2.6623523,8.169016,-4.477157,-0.02130594,-1.6597326,-0.12570503,0.78529817,-1.4891934,-2.1212628
1570714950,2.4851813,9.998186,-1.5370775,-0.18536167,-1.5350928,-0.28123838,1.4173675,0.50278234,0.6847417
1570714950,1.1444284,9.715671,-1.9057846,-0.39309457,-1.054644,-0.25780186,0.24899697,0.19632454,0.2777274
1570714950,1.532289,8.992621,-2.7581203,-0.71907544,-0.8596946,-0.17790459,0.7469909,-0.5650316,-0.7182605
1570714950,1.4700398,9.399636,-2.4372973,-0.674333,-0.56247675,-0.56247675,0.81402856,-0.21068975,-0.59855044
1570714950,0.50278234,9.859323,-2.0350714,-0.64876586,-0.36752746,-0.9289389,0.30645782,0.062249243,-0.04309563
1570714950,0.7565677,8.853758,-2.4516625,-0.7297284,-0.43996763,-1.0109668,0.6512229,-0.842759,-1.0007763
1570714950,0.31603462,7.5225816,-3.6774938,-0.68179005,-0.81175625,-0.9790079,0.641646,-1.8483237,-1.9153614
1570714950,-0.31124622,7.3071036,-3.5051112,-0.5496932,-0.9790079,-0.63917816,0.19153613,-2.5905263,-2.504335
1570714950,-0.01436521,9.734824,-2.954445,-0.47725302,-0.7584914,-0.040481284,0.40222588,-0.5410896,-1.934515
1570714950,0.60333884,9.911995,-4.3143516,-0.38670278,-0.5496932,-0.12890093,1.0055647,0.2825158,-3.0214825
1570714950,2.0829554,9.423578,-5.707777,-0.064983115,-0.36646214,-0.10013791,2.432509,-0.36391866,-5.0661306
1570714950,2.681506,8.317456,-5.243302,0.41013932,0.36326626,0.119313255,3.4859576,-0.7278373,-4.6782703
1570714950,2.111686,8.00621,-3.4715924,1.3689066,1.4882199,0.47405714,2.801216,-1.9536686,-2.6001031
1570714950,-0.033518825,11.45865,-2.6719291,1.8802491,1.8131354,1.7193892,0.6368576,0.9528923,-1.3790601
1570714950,-2.054225,16.543934,-1.3838485,1.2037855,1.6554714,3.4931087,-2.2218192,6.2345014,0.2777274
1570714950,1.5370775,14.542381,1.2162545,1.2037855,0.117182665,2.3670897,-0.78050977,6.114791,3.6822822
1570714950,2.9017725,10.702082,-1.5131354,1.5457458,0.71374893,0.8596946,0.842759,1.8770541,1.532289
1570714950,4.9416323,10.0508585,-1.6280571,1.571313,2.3926568,0.70735717,2.6288335,1.6280571,1.4221559
1570714950,3.821146,7.9487495,-0.92895025,1.4040613,1.8845103,0.98007315,1.436521,-0.7517793,2.4420857
1570714950,1.0390835,7.867347,-2.7581203,0.6903124,0.8266704,1.287944,-1.9393034,-0.7278373,0.9528923
1570714950,-0.090979666,8.6574335,-1.8531121,0.34302562,1.1696961,1.2890093,-3.6966474,0.11971009,1.3982137
1570714950,0.51235914,9.006987,-1.3551182,0.53264844,0.72759783,0.61467636,-3.7828386,1.0390835,2.1164744
1570714951,0.37349546,6.8426285,-1.1444284,0.5688686,0.54117084,-0.053264845,-3.7062242,-1.0295067,2.3798366
1570714951,0.6464345,6.2488666,-1.8291701,0.36752746,0.029828314,-0.41226992,-3.6104562,-1.7908629,1.6998832
1570714951,1.2306197,6.2728086,-2.3942018,0.0692443,-0.41866168,-0.78192794,-3.0023289,-2.0207062,1.3982137
1570714951,4.0701427,6.871359,-3.5338416,-0.33130735,-0.19601464,-1.0866029,-0.22984336,-1.4317327,0.272939
1570714951,6.5026517,7.3310456,-4.027047,-0.36007038,0.22903883,-1.1547819,3.0023289,-1.1109096,-0.47884035
1570714951,9.308656,8.461109,-3.6248214,-0.5156037,0.6253293,-1.0908641,6.0477533,-0.1436521,-0.23463176
1570714951,6.9623384,8.944737,-7.345411,-0.24075711,0.7840586,-0.5997622,4.429273,0.023942016,-3.5290532
1570714951,6.0621185,9.203311,-5.78918,0.18429637,1.0834069,-0.1054644,2.9735985,0.4309563,-2.6719291
1570714951,4.4005427,9.562442,2.2122424,-0.674333,0.43677175,-0.3078708,1.2785037,0.7565677,5.1906295
1570714951,-0.7613561,19.9437,-2.1212628,-0.60934985,0.21412468,-0.7968421,-3.7349546,11.008539,0.61291564
1570714951,1.2449849,15.088259,-2.0829554,-0.1384886,0.12570503,0.1043991,-1.5993267,6.090849,0.58418524
1570714951,2.2649148,5.133168,-0.6368576,-0.41440052,-0.5241261,0.32598087,-0.6607997,-3.8594532,1.9393034
1570714951,-7.019799,6.6989765,0.80924016,0.08309316,-0.56673795,-1.0503827,-9.816227,-2.336741,3.3901896
1570714951,-2.2361844,10.036493,-1.6950948,-0.057526033,-0.8341275,-1.8429637,-4.5154643,0.8714894,0.94810385
1570714951,1.115698,9.414001,-4.8458643,-0.25886714,-1.1132354,-1.0077709,-0.6512229,0.14844051,-2.1547816
1570714951,-0.0047884034,7.1634517,-3.083732,-0.53690964,-1.8813144,-0.020240642,-1.5514427,-2.1547816,-0.45968673
1570714951,-0.32561144,8.470686,-1.4891934,-0.4239882,-1.8301802,0.29721785,-1.7956513,-0.8714894,1.0869676
1570714951,2.4277205,8.839393,-4.295198,-0.22797355,-1.7385646,-0.2098635,1.0869676,-0.5315128,-1.733402
1570714951,2.6431987,8.7532015,-2.4660277,-0.10866029,-1.3721025,-0.351548,1.4987702,-0.641646,0.10055647
1570714951,0.49320555,10.271125,-1.70946,-0.2759119,-1.14839,-0.41440052,0.2825158,1.1013328,1.0103531
1570714951,1.340753,9.126697,-2.7150247,-0.6903124,-0.975812,-0.22797355,0.48841715,-0.10534488,-0.38307226
1570714951,1.0390835,8.580819,-2.9592333,-0.73612016,-0.7797974,-0.29082605,0.33039984,-1.0869676,-0.60333884
1570714951,0.7182605,9.078813,-2.6001031,-0.487906,-0.59656626,-0.6668759,0.34476504,-0.35434186,-0.58418524
1570714951,1.3790601,9.619903,-2.3127987,-0.61467636,-0.506016,-0.75742614,0.9768343,-0.272939,-0.4357447
1570714951,1.1875241,8.968679,-2.8634653,-0.82453984,-0.43357584,-0.7382508,1.2593501,-0.60812724,-1.4460979
1570714951,0.5410896,7.704541,-3.7205894,-0.6935083,-0.81495214,-0.8319969,0.94810385,-1.8339585,-2.1643584
1570714951,0.39264908,8.063671,-3.4476504,-0.5869786,-0.77873206,-0.4911019,0.79966336,-1.7477672,-2.2457612
1570714951,0.6512229,9.126697,-2.3080103,-0.5241261,-0.42824936,-0.09694202,1.316811,-0.6512229,-1.0869676
1570714951,0.31603462,9.830592,-5.2145715,-0.25673655,-0.506016,-0.3398297,0.80445176,0.06703765,-3.4093432
1570714951,1.4700398,8.872911,-5.9519854,0.30147904,-0.60615396,-0.23330003,2.111686,-0.6655881,-4.807557
1570714951,1.484405,8.020576,-3.9025488,1.1718266,0.556085,0.62639457,2.1930888,-1.2641385,-3.040636
1570714951,1.3599066,9.222465,-4.0557775,1.7460216,1.2293527,1.6267084,1.8243817,-1.3024458,-2.3223755
1570714951,1.5849615,15.351622,-3.1651347,1.3635801,1.7769153,3.6315973,0.8858546,4.855441,-0.48362875
1570714952,2.6671407,17.650055,2.4516625,0.92680836,0.043677174,3.210805,0.50757074,9.040505,4.4723687
1570714952,2.882619,9.188946,-1.3982137,1.1920673,0.5614115,0.84584576,0.6464345,1.2401965,1.5131354
1570714952,3.4859576,8.221688,-1.8004397,1.5595948,2.8816283,0.83306223,1.1875241,-0.40222588,1.163582
1570714952,3.3901896,8.619126,-1.2354081,1.5457458,1.8014171,1.2900746,0.8571242,-0.36870706,1.7046716
1570714952,1.2258313,8.628703,-3.265691,0.936396,0.487906,1.453065,-1.6903064,0.36391866,0.5267244
1570714952,-0.32561144,8.992621,-1.8722657,0.5923051,1.022685,1.3092499,-4.2185836,0.5410896,1.508347
1570714952,0.41180268,9.648633,-1.163582,0.5912398,0.9385266,0.8042992,-3.7972038,1.5227122,2.3558946
1570714952,1.2641385,6.861782,-1.532289,0.5145384,0.45914298,0.09800732,-2.9879637,-0.7086837,2.1308396
1570714952,0.6655881,6.5505357,-1.9871874,0.20027582,0.01065297,-0.30041373,-3.6343982,-1.3072342,1.6041151
1570714952,1.2689269,6.38773,-1.4891934,-0.17683929,-0.22477765,-0.73612016,-3.1555579,-1.6998832,2.0925324
1570714952,3.5529952,6.196194,-2.858677,-0.595501,-0.16618632,-1.1696961,-0.80445176,-1.9871874,1.043872
1570714952,5.7987566,7.28795,-3.3423057,-0.8138869,0.23330003,-1.3763636,2.1547816,-1.1540052,0.062249243
1570714952,10.160992,9.500193,-3.8259344,-0.6231987,0.5880439,-0.94278777,6.5265937,0.5506664,-0.6895301
1570714952,7.551312,9.351752,-8.834604,0.15233746,0.3813763,-0.10013791,4.2760444,0.61291564,-5.803545
1570714952,5.650316,8.983045,-4.1802764,0.47192654,0.7297284,0.36752746,2.2505496,0.320823,-1.0726024
1570714952,3.4476504,9.399636,1.0007763,-0.7297284,0.5305179,-0.42079228,0.009576807,0.7086837,3.9791632
1570714952,0.80445176,17.84638,-3.2465374,-0.56780326,0.19814523,-1.0780805,-2.4372973,9.002198,-0.50757074
1570714952,2.1452048,14.647726,-4.5633483,-0.5401055,-0.15127216,-0.46233886,-0.8523358,5.683835,-1.9488802
1570714952,2.432509,4.912902,-1.5514427,-0.4538165,-0.77766675,0.068179004,-0.5410896,-4.0892963,0.94810385
1570714952,-4.0222588,5.961562,2.2170308,-0.059656627,-0.5986969,-0.7563608,-6.8665705,-3.0789435,4.721366
1570714952,-0.32561144,9.945514,-2.231396,-0.005326485,-0.8042992,-1.3966043,-2.777274,0.79487497,0.31124622
1570714952,2.0159178,10.184934,-4.012682,-0.2769772,-0.7542302,-0.789385,-0.047884032,0.9528923,-1.4269443
1570714952,0.5602432,7.867347,-2.2457612,-0.818148,-1.0759499,-0.15446806,-1.3455414,-1.436521,0.18674773
1570714952,-1.9871874,8.432379,-1.9632454,-0.409074,-1.6426879,-0.16618632,-3.7541082,-0.91937345,0.39264908
1570714952,1.1444284,7.7811556,-3.5577838,-0.25567126,-1.5361582,-0.30041373,-0.4357447,-1.6041151,-1.2066777
1570714952,3.9695864,8.963891,-3.2513258,-0.19281875,-1.277291,-0.21412468,2.4899697,-0.51235914,-0.9672575
1570714952,1.2258313,9.854534,-1.6711528,-0.3835069,-1.2059162,-0.25141007,-0.019153614,0.40222588,0.63206923
1570714952,0.92416185,9.141062,-3.0933087,-0.46660006,-0.8650211,-0.29402196,-0.19153613,0.11492168,-0.50278234
1570714952,1.0726024,8.6813755,-2.9975405,-0.67646354,-0.6317211,-0.39415985,-0.076614454,-0.8571242,-1.0342951
1570714952,1.2880806,9.346964,-1.7621324,-0.63917816,-0.3835069,-0.703096,0.6512229,-0.39743748,0.24420857
1570714952,1.4700398,10.151415,-2.1308396,-0.7286631,-0.3526133,-0.8980453,1.2018893,0.320823,-0.18195933
1570714952,1.388637,9.208099,-2.5234885,-0.8703476,-0.4548818,-1.0770152,1.3982137,-0.076614454,-1.091756
1570714952,0.05267244,7.398083,-4.3239284,-0.7307937,-0.9523755,-1.0013791,0.7230489,-1.8291701,-2.6240451
1570714953,0.80445176,7.4268136,-3.2848446,-0.58484805,-0.5496932,-0.27165073,0.90979666,-2.5139117,-2.5953147
1570714953,0.22026655,9.706094,-3.442862,-0.46020827,-0.3781804,-0.13209683,0.7565677,-0.2777274,-2.207454
1570714953,0.7757214,10.429143,-5.813122,-0.10759499,-0.6317211,-0.41013932,0.7374141,0.7278373,-4.6830587
1570714953,2.4851813,8.6813755,-5.4683566,0.32385027,-0.26845482,0.057526033,2.7389667,-0.9864111,-4.8506527
1570714953,2.006341,7.4363904,-3.4955344,1.3380129,0.83732337,0.8042992,2.6623523,-1.982399,-2.6671407
1570714953,1.13964,8.7053175,-3.394978,1.8706614,1.356123,1.8078089,1.3072342,-1.8004397,-1.9488802
1570714953,0.5363012,15.059528,-1.6663644,1.416845,1.718324,3.7988489,-0.07182605,4.223372,-0.32561144
1570714953,3.8019924,18.420988,1.9057846,1.3582536,-0.4154658,2.970048,0.79008657,10.376471,3.9935284
1570714953,4.3766007,11.180922,-2.2026656,1.4211061,0.35793978,0.65196174,1.7286136,2.9113493,0.866701
1570714953,3.3806129,7.4028716,-0.6751649,1.6192514,2.9231749,0.7254672,0.94331545,-0.61291564,1.9440918
1570714953,3.8402996,7.4603324,-0.8331822,1.6213819,1.890902,1.1995244,0.59855044,-1.2018893,2.4229321
1570714953,1.4939818,8.054094,-3.3758245,0.7414467,0.21732058,1.442412,-2.1499932,-0.33997664,0.33997664
1570714953,0.019153614,8.523358,-2.681506,0.47725302,1.0652969,1.3145764,-4.0414124,0.34955344,0.90500826
1570714953,0.8619126,8.896853,-0.8810662,0.6370476,1.0397298,0.409074,-3.5577838,1.1875241,2.791639
1570714953,1.4508862,6.421249,-1.2401965,0.49642837,0.5646074,-0.07563608,-3.083732,-1.4891934,2.3558946
1570714953,0.7757214,5.932832,-2.4277205,0.1384886,0.019175345,-0.46979594,-3.6535518,-1.8291701,1.1204864
1570714953,1.163582,6.205771,-1.8004397,-0.10013791,-0.1725781,-0.80323386,-3.1316159,-1.8148049,1.8483237
1570714953,4.003105,6.967127,-2.858677,-0.57739097,-0.16831692,-1.198459,-0.019153614,-1.2258313,0.7134721
1570714953,7.2783732,7.599196,-3.667917,-0.67220235,0.30254433,-1.4179102,3.5769374,-0.81881696,-0.25378537
1570714953,9.883265,8.561666,-3.6487634,-0.65196174,0.6647453,-1.2112426,6.469133,-0.06703765,-0.47405192
1570714953,7.489063,7.8386164,-9.89763,0.32598087,0.37072334,-0.4548818,4.247314,-0.89064306,-6.823475
1570714953,5.66947,8.556877,-5.5162406,0.46979594,1.1356065,0.19175345,2.3511062,-0.110133275,-2.3463178
1570714953,5.4444146,9.121908,2.8634653,-1.0184239,0.7766015,-0.4932325,2.0829554,0.39743748,5.8322754
1570714953,1.4269443,23.290794,-2.1691468,-0.624264,0.33769912,-0.8042992,-1.7764976,14.4130945,0.50278234
1570714953,0.45010993,11.300632,-4.3047748,-0.6295905,0.32598087,-0.3494174,-2.6192567,2.3175871,-1.8243817
1570714953,0.5650316,3.7445314,-0.60333884,-0.01065297,-0.4857754,-0.1043991,-2.4851813,-5.267244,1.757344
1570714953,-6.0142345,8.432379,2.566584,0.16618632,-0.4857754,-1.2005897,-8.853758,-0.61770403,5.0374002
1570714953,0.8858546,10.836157,-4.175488,-0.17896989,-1.1249535,-1.442412,-1.4700398,1.6519991,-1.661576
1570714953,2.8682537,8.446744,-3.4572272,-0.4911019,-0.6231987,-0.58484805,1.0821792,-0.07182605,-2.207454
1570714953,-1.067814,7.5082164,-2.336741,-0.7957768,-1.2783563,-0.07776668,-2.2170308,-2.1068976,-0.25857377
1570714953,-2.1212628,8.590396,-1.1300632,-0.50282013,-1.5734435,-0.11505207,-4.510676,-0.6368576,1.3120226
1570714953,2.0638018,8.250419,-4.2185836,-0.31745848,-1.6426879,-0.3462215,-0.25857377,-1.1492168,-1.4221559
1570714953,3.7828386,9.677363,-1.2545617,-0.3824416,-1.3113805,-0.30467492,1.8387469,-0.095768064,-0.31124622
1570714953,1.412579,9.859323,-1.8339585,-0.57526034,-1.3891472,-0.26419365,0.58418524,0.81881696,0.60812724
1570714954,1.70946,8.346188,-2.6671407,-0.85010695,-0.98539966,-0.13635801,0.4213795,-1.0055647,-0.48362875
1570714954,1.8866309,8.37013,-2.2505496,-0.81175625,-0.5358444,-0.44422883,0.7230489,-1.2306197,-0.8283938
1570714954,1.70946,9.313444,-2.231396,-0.60934985,-0.39735577,-0.7968421,0.8475474,-0.7038953,-0.7278373
1570714954,1.4748282,9.370906,-2.4516625,-0.73612016,-0.32385027,-0.87993526,0.89064306,-0.521936,-1.163582
1570714954,0.91937345,8.283937,-3.241749,-0.7297284,-0.6029581,-1.0099015,0.7038953,-1.1492168,-1.7812861
1570714954,0.6799533,7.795521,-3.7445314,-0.5198649,-0.9534408,-0.92148185,0.7661445,-1.9201498,-2.882619
1570714954,1.5610195,8.494628,-3.0693667,-0.3835069,-0.7595567,-0.28336897,1.6089035,-1.364695,-2.1978772
1570714954,1.6089035,10.103531,-4.1419687,-0.40694344,-0.32171968,-0.17790459,1.9632454,0.2873042,-3.0550013
1570714954,2.2122424,10.022128,-5.837064,-0.091615535,-0.023436533,-0.18642697,2.27928,0.320823,-5.2049947
1570714954,1.8579005,9.11712,-3.98874,0.70629185,0.7265325,0.07883197,2.4995465,-0.5267244,-3.763685
1570714954,-0.23463176,8.149862,-3.1842883,1.7524135,1.2719646,0.6072193,0.062249243,-1.6519991,-2.0207062
1570714954,-0.31124622,13.000515,-3.1603463,2.0943737,1.6149901,2.27867,-0.39743748,2.255338,-1.3311762
1570714954,-0.20590134,16.43859,-1.0582372,1.4551957,1.7833071,3.9128356,-1.3742718,6.9479733,1.1204864
1570714954,4.3143516,13.690045,0.7757214,1.3582536,-0.5603462,1.6533408,2.2218192,5.837064,4.0174704
1570714954,4.247314,8.403648,-1.163582,1.3113805,1.3444047,0.8351928,1.8195933,-0.6560113,1.6950948
1570714954,4.8123455,6.531382,-0.8762778,1.7268463,2.3468492,0.80323386,1.9680338,-2.3223755,2.231396
1570714954,3.074155,8.384495,-1.532289,1.5766394,1.1174965,1.4786321,-0.25378537,-0.19153613,1.8579005
1570714954,0.36391866,7.8865004,-3.9025488,0.7307937,0.5358444,1.5361582,-3.4093432,-0.41180268,-0.29209262
1570714954,-0.34476504,9.3182335,-1.8004397,0.6839206,1.0589051,0.9907262,-4.548983,1.3599066,1.7046716
1570714954,1.7142484,8.767567,-1.292869,0.77766675,0.8138869,0.2077329,-2.7341783,0.8523358,2.408567
1570714954,1.4987702,7.2448545,-1.3982137,0.50921196,0.39309457,-0.3494174,-2.9831753,-0.61291564,2.3750482
1570714954,0.61770403,6.3685765,-2.006341,0.046873067,-0.054330144,-0.66794115,-3.6152446,-1.3934253,1.9153614
1570714954,0.8475474,6.1770406,-2.183512,-0.3163932,-0.2098635,-1.0652969,-3.016694,-1.8579005,1.6136919
1570714954,4.175488,6.646304,-3.964798,-0.46340418,0.035154797,-1.4466733,0.36391866,-1.5945383,-0.25378537
1570714954,9.102755,8.2169,-4.280833,-0.71374893,0.5315832,-1.5116564,5.6359506,-0.25378537,-0.7613561
1570714954,9.701305,8.42759,-6.7229185,-0.3504827,0.5976316,-0.8810006,5.837064,-0.22505496,-3.4045548
1570714954,7.2448545,9.275137,-7.0724716,0.21945117,0.9044371,0.14061919,4.0222588,0.60333884,-3.8115692
1570714954,6.042965,9.069236,1.4269443,-0.5859133,0.63811284,0.07457078,2.6767175,0.40701428,4.5681367
1570714954,1.5849615,16.601395,-2.6048915,-0.6231987,0.5134731,-0.67220235,-1.7286136,7.824251,0.25378537
1570714954,-0.19153613,16.85518,-2.7581203,0.3142626,0.0,-0.5156037,-3.3135753,8.001422,0.076614454
1570714954,4.309563,7.7093296,-0.6751649,-0.33876443,-0.22264706,0.44422883,1.1348516,-1.1300632,2.1452048
1570714954,-5.243302,7.9631147,1.3742718,0.088419646,-0.070309594,-0.43783703,-8.413225,-0.8762778,4.189853
1570714954,-2.9017725,10.113108,-0.92416185,0.20240642,-0.19494934,-1.7694582,-6.967127,1.316811,2.5809495
1570714955,-0.34476504,10.453085,-5.171476,-0.14274979,-1.5649211,-1.3507965,-3.371036,1.0965444,-1.5993267
1570714955,-0.110133275,7.503428,-2.7724855,-0.88739234,-1.9452322,-0.18216577,-1.9297266,-1.2497733,-0.2825158
1570714955,-1.5658079,8.767567,-0.34476504,-0.9055024,-2.0027583,0.063917816,-3.5098996,-0.7134721,2.1739352
1570714955,1.2737153,9.212888,-3.7301662,-0.59656626,-1.9462975,-0.120378554,-0.8331822,0.18674773,-0.019153614
1570714955,2.7102363,7.872135,-4.7070007,-0.33450323,-1.7928947,-0.020240642,1.7142484,-1.5275006,-2.5330653
1570714955,2.384625,9.399636,-2.1404164,-0.5187996,-1.8408331,-0.14701098,0.7565677,-0.21068975,0.272939
1570714955,2.8395233,9.428367,-2.9831753,-0.79045033,-1.2868787,-0.17896989,1.7860745,0.023942016,-0.4165911
1570714955,2.6384103,8.858546,-2.4708161,-0.8564987,-0.63385165,-0.29934844,1.7956513,-0.641646,-0.12449849
1570714955,1.6759412,9.260772,-2.3894134,-0.7339896,-0.2759119,-0.63491696,0.8379706,-0.23942018,-0.23942018
1570714955,1.163582,9.045294,-2.9400797,-0.8042992,-0.29189137,-0.7595567,0.545878,-0.49320555,-0.92416185
1570714955,1.163582,8.408437,-3.2273839,-0.9001759,-0.47938362,-0.7414467,0.62249243,-0.9768343,-1.5466543
1570714955,1.0726024,7.7811556,-3.8355112,-0.74996907,-0.75316495,-0.74570787,0.6991069,-1.8579005,-2.528277
1570714955,1.1731589,8.030152,-3.1364043,-0.66900647,-0.66794115,-0.36539686,1.0869676,-1.9440918,-2.1787236
1570714955,0.94810385,8.863335,-2.9879637,-0.43570644,-0.5656727,-0.116117366,1.13964,-0.866701,-1.4796166
1570714955,1.8339585,9.346964,-7.311892,-0.08415846,-0.85862935,-0.22051647,1.6567876,-0.37828386,-5.7843914
1570714955,2.834735,7.728483,-5.080496,0.43251055,-0.08415846,0.35793978,2.944868,-1.8914193,-4.697424
1570714955,1.6903064,7.029376,-3.6822822,1.6416225,0.74038136,0.82453984,1.8483237,-2.6048915,-2.456451
1570714955,1.3503298,11.48738,-3.9264908,2.0325866,1.4029961,2.0219336,0.90979666,0.51235914,-2.336741
1570714955,1.2689269,19.905394,-1.4508862,1.6512103,1.57877,3.935207,-0.61291564,9.188946,-0.110133275
1570714955,5.0996494,17.281347,2.432509,1.5830313,-0.7297284,2.1359203,2.777274,8.130709,5.094861
1570714955,4.865018,10.108319,-1.5035586,1.3412088,1.3252294,0.71374893,2.27928,1.1587936,1.5610195
1570714955,5.243302,6.943185,-0.59855044,1.6671897,3.1170588,0.6967042,2.1978772,-1.7908629,2.6479871
1570714955,3.9456444,8.90643,-1.5705963,1.765197,1.4381509,1.259181,0.3878607,0.45489833,1.9057846
1570714955,0.6368576,7.752425,-4.156334,0.82560515,0.46660006,1.4786321,-3.3279405,-0.40701428,-0.4357447
1570714955,-0.81881696,8.51857,-2.3989902,0.5976316,1.1185617,1.1973938,-5.2145715,0.59855044,1.3599066
1570714955,1.8243817,8.212111,-0.81402856,0.6626147,1.0834069,0.3483521,-2.8682537,0.45968673,2.9352913
1570714955,2.3798366,6.469133,-0.9672575,0.58484805,0.5603462,-0.12783563,-2.1499932,-0.9624691,3.074155
1570714955,0.78050977,6.220136,-2.6144683,0.23010413,-0.16085984,-0.54543203,-3.9025488,-1.4700398,1.2641385
1570714955,1.115698,6.019023,-2.1547816,-0.11505207,-0.16299044,-0.9012412,-3.715801,-1.7238252,1.7046716
1570714955,4.414908,6.4787097,-3.4284968,-0.6785942,0.19707993,-1.3774289,0.22026655,-1.541866,0.34476504
1570714955,8.135497,6.967127,-3.6008794,-0.68072474,0.6913777,-1.4179102,4.237737,-1.3024458,-0.05267244
1570714955,9.41879,8.221688,-3.6296098,-0.68498594,0.48044893,-1.1579778,5.7748146,-0.2633622,-0.33039984
1570714955,7.101202,9.907207,-9.562442,0.23436533,0.4175964,-0.19814523,3.6056678,1.316811,-6.363788
1570714956,6.1770406,9.208099,-3.241749,0.30041373,1.2005897,0.31319728,2.8874073,1.3120226,-3.3854012
1570714956,5.3678,8.2169,1.6041151,-0.98433435,0.5262567,-0.36220095,1.757344,-0.91458505,5.33907
1570714956,0.36870706,17.429789,-2.7341783,-0.419727,0.32917675,-1.180349,-2.4181437,6.8330517,-0.2681506
1570714956,3.2082303,17.046717,-4.0318356,-0.12783563,-0.04900366,-0.0692443,-1.8148049,10.448297,-0.62249243
1570714956,1.9488802,5.7987566,0.095768064,-0.3462215,-0.3835069,0.19814523,0.095768064,-2.7246015,2.2697031
1570714956,-6.3111157,7.7907324,1.484405,0.09587672,-0.06178722,-1.1718266,-9.892841,-2.0350714,4.390966
1570714956,-1.5945383,9.509769,-2.791639,-0.08522376,-1.072754,-1.7907641,-4.5872903,0.4261679,1.4269443
1570714956,0.9864111,9.44752,-5.21936,-0.50921196,-1.09406,-0.8362581,-1.5753847,0.7517793,-3.0933087
1570714956,0.22026655,7.479486,-2.542642,-0.7691444,-1.8759879,0.1033338,-1.3934253,-1.934515,-0.22984336
1570714956,0.12449849,8.973468,-0.8379706,-0.6540923,-1.7833071,0.116117366,-2.2601264,-0.2777274,1.9776106
1570714956,2.7006595,7.8386164,-4.8219223,-0.39629045,-1.5894231,-0.27165073,0.41180268,-1.2258313,-1.7956513
1570714956,2.9831753,8.810662,-1.8626889,-0.31532788,-1.4456079,-0.28336897,1.9249382,-0.6560113,0.1388637
1570714956,1.5035586,9.921572,-2.0590134,-0.5816521,-1.2059162,-0.28976077,0.19632454,0.47405192,0.4165911
1570714956,2.5617957,9.069236,-2.777274,-0.92148185,-0.8234745,-0.25993246,0.9959879,-0.29209262,-0.45968673
1570714956,2.6192567,9.299079,-1.9153614,-0.8341275,-0.41226992,-0.5443667,1.5562311,-0.62728083,0.16759412
1570714956,1.9728222,9.730036,-2.3942018,-0.81601745,-0.21838588,-0.8937841,0.8331822,0.095768064,-0.4405331
1570714956,1.661576,8.595184,-3.3662477,-0.7851238,-0.33343795,-1.0184239,1.0582372,-0.6703765,-1.7381904
1570714956,1.0726024,7.273585,-4.2042184,-0.7244019,-0.96835494,-1.0375992,0.7182605,-2.2266076,-2.7006595
1570714956,0.8858546,7.321469,-3.6343982,-0.4932325,-1.0109668,-0.5933704,0.61291564,-2.7102363,-2.8395233
1570714956,0.9768343,10.041282,-2.7820623,-0.3504827,-0.5869786,-0.067113705,1.2497733,0.1388637,-1.5562311
1570714956,1.283292,9.730036,-6.4787097,-0.09694202,-0.6785942,-0.08735435,1.3599066,-0.05746084,-4.817134
1570714956,2.858677,8.121132,-5.6359506,0.46873066,0.0042611877,0.26632422,2.9496565,-1.4748282,-4.9895163
1570714956,2.2409728,6.315904,-4.606444,1.6842345,0.86289054,0.5571503,2.3989902,-3.442862,-3.3566709
1570714956,1.0103531,10.43872,-4.060566,2.2903883,1.4157796,1.5595948,0.61770403,0.81881696,-2.1883004
1570714956,0.4309563,18.435352,-2.3894134,1.697018,1.959081,4.0151043,-0.92416185,9.02614,0.019153614
1570714956,4.309563,16.802507,2.8682537,1.2602463,-0.23010413,2.8241022,1.8339585,7.714118,5.6120086
1570714956,6.325481,10.644621,-1.7717092,1.4946116,1.3603842,0.37072334,3.5673606,1.7717092,1.3694834
1570714956,4.2999864,5.353435,-0.6607997,1.8994244,3.1735196,0.6881818,1.0869676,-3.2848446,2.681506
1570714956,4.0414124,7.848193,-1.2018893,1.747087,1.3998002,1.2495933,0.34476504,-0.50278234,2.3702598
1570714956,0.40701428,8.542512,-3.845088,0.91295946,0.5731298,1.4413468,-3.6870706,0.48841715,-0.023942016
1570714956,-1.4748282,9.323022,-1.9967642,0.68924713,1.3230988,1.2336138,-6.0238113,1.532289,1.8483237
1570714956,1.3359646,8.820239,-1.0247183,0.72014076,0.8351928,0.42611876,-3.5194764,1.2210429,2.8299465
1570714956,1.3455414,6.7708025,-1.2018893,0.47405714,0.29828313,-0.19175345,-3.5817258,-0.7469909,2.7102363
1570714956,0.93852705,6.191406,-2.4181437,0.07670138,-0.16618632,-0.5731298,-3.86903,-1.3790601,1.541866
1570714957,1.7477672,6.5505357,-1.6519991,-0.4175964,-0.3483521,-1.054644,-2.8299465,-1.163582,2.3080103
1570714957,4.453215,6.3302693,-2.9783869,-0.82560515,-0.017044751,-1.4892851,0.20590134,-1.6376339,0.8475474
1570714957,10.1226845,7.297527,-3.8977604,-0.7627526,0.674333,-1.5681171,5.530606,-1.1779473,-0.19632454
1570714957,10.0269165,8.154651,-6.5744777,-0.2759119,0.1736434,-1.1132354,6.4260373,-0.31603462,-3.1986535
1570714957,6.679823,10.113108,-9.3661175,0.41866168,0.2801731,0.1395539,3.3854012,0.9528923,-6.2345014
1570714957,5.961562,7.3645644,-1.1875241,-0.39415985,0.9832691,0.15553336,1.6711528,-1.7046716,4.3526587
1570714957,4.9081135,12.081141,-0.17717093,-1.14839,0.26632422,-0.6327864,1.5658079,2.0973208,5.0661306
1570714957,-0.5315128,22.218191,-1.3072342,-0.28336897,0.22051647,-1.3433394,-3.098097,12.876017,-0.01436521
1570714957,5.841852,8.537724,-4.4963107,-0.7297284,0.16512102,0.12357444,1.0534488,2.1404164,-2.3702598
1570714957,-1.6328455,4.3382936,0.78050977,-0.1033338,-0.8778047,-0.058591332,-3.0789435,-5.0278234,2.5091233
1570714957,-3.8163576,11.420342,1.9776106,-0.04154658,-0.3526133,-1.6085984,-8.365341,1.3455414,4.975151
1570714957,1.2641385,10.376471,-6.2105594,-0.29295665,-1.6224473,-1.4839586,-2.336741,0.90979666,-2.2170308
1570714957,1.8531121,7.4268136,-3.4332852,-0.68498594,-1.1153659,-0.36220095,-0.5315128,-1.1683705,-1.1827357
1570714957,-0.6512229,8.623915,-1.7812861,-0.8351928,-1.7737194,0.23116943,-2.3175871,-1.1587936,0.6368576
1570714957,0.90500826,8.887277,-1.4413095,-0.6935083,-1.7556094,-0.1043991,-1.5466543,-0.48841715,1.4796166
1570714957,3.5817258,8.130709,-4.414908,-0.4506206,-1.4402815,-0.3206544,1.388637,-1.091756,-2.0494366
1570714957,3.2034419,9.102755,-1.3742718,-0.3792457,-1.3635801,-0.25993246,1.5514427,-0.4165911,0.81402856
1570714957,0.93373865,9.323022,-2.4851813,-0.64450467,-1.2005897,-0.2056023,-0.50278234,0.062249243,0.30645782
1570714957,2.0590134,8.513782,-2.9400797,-0.8096257,-0.8138869,-0.2428877,0.545878,-0.7661445,-1.043872
1570714957,2.657564,9.624691,-1.5227122,-0.8096257,-0.4932325,-0.50388545,1.340753,-0.4213795,0.24420857
1570714957,2.3750482,9.80665,-2.5139117,-0.91295946,-0.2791078,-0.9033718,1.4987702,0.45010993,-0.6512229
1570714957,1.982399,8.7532015,-3.6056678,-0.9822038,-0.40374753,-1.1036476,1.4748282,-0.4405331,-1.9536686
1570714957,1.3503298,7.015011,-4.333505,-0.84158456,-1.0642316,-1.0897988,1.0199299,-2.7150247,-3.169923
1570714957,0.94331545,6.2871737,-4.4196963,-0.64876586,-0.7584914,-0.40694344,0.8523358,-3.4715924,-3.4763808
1570714957,1.6998832,9.332599,-3.2321723,-0.3824416,-0.24714889,-0.067113705,1.8100165,-0.38307226,-1.7669208
1570714957,2.0685902,9.533711,-6.4739213,0.22371235,-0.2865649,-0.19281875,1.6663644,-0.29688102,-5.861006
1570714957,1.733402,8.690952,-4.390966,0.85436815,0.33024204,0.14274979,1.6807296,-1.0630256,-3.3997664
1570714957,0.8523358,6.775591,-3.7445314,1.951624,0.92574304,0.624264,0.6560113,-2.9257145,-2.3223755
1570714957,0.25857377,14.662091,-3.916914,2.3074331,1.219765,2.43953,-0.4261679,5.094861,-1.8531121
1570714957,2.006341,20.685904,-0.641646,1.6128596,1.4072572,4.1706376,0.15322891,11.3964,1.9057846
1570714957,7.1347213,13.369223,0.8810662,1.531897,-1.0407951,1.5819659,4.5058875,4.390966,3.8355112
1570714957,6.6654577,7.5561004,0.545878,1.503134,2.589737,0.7126837,3.7588966,-1.2210429,3.8163576
1570714957,5.363012,5.3486466,-0.79966336,1.7566746,2.6184998,0.74570787,1.9967642,-3.1890767,2.6479871
1570714958,2.0350714,8.896853,-3.7014358,1.4104532,0.5305179,1.5063299,-1.7956513,0.6703765,0.023942016
1570714958,-0.38307226,8.532935,-3.4715924,0.7009654,0.74570787,1.6011413,-4.654328,0.61291564,0.4261679
1570714958,-0.30645782,8.954314,-1.6759412,0.63491696,1.2016549,1.180349,-5.2049947,1.2114661,2.087744
1570714958,3.2369606,8.327033,-0.8331822,0.63491696,0.96409374,0.3206544,-2.0638018,1.0486604,2.9783869
1570714958,1.9057846,6.8809357,-1.9536686,0.4112046,0.14594568,-0.23969181,-3.0885203,-0.58418524,1.9728222
1570714958,0.7038953,6.26802,-2.6144683,0.023436533,-0.25993246,-0.5912398,-4.146757,-1.2689269,1.3551182
1570714958,1.5945383,6.2105594,-1.9776106,-0.3877681,-0.13209683,-1.1068435,-3.0262709,-1.4748282,1.982399
1570714958,3.9456444,5.0900726,-2.4708161,-0.81708276,0.15553336,-1.485024,-0.9864111,-2.5570073,1.4460979
1570714958,9.466674,7.1347213,-3.0693667,-1.1643696,0.7265325,-1.6767774,4.2999864,-1.7764976,0.50278234
1570714958,12.674904,9.313444,-7.029376,-0.6253293,0.6168069,-0.95131016,9.069236,0.81881696,-2.5570073
1570714958,8.413225,9.452309,-8.0445175,0.42079228,0.6498311,0.31319728,4.8506527,0.7374141,-6.2249246
1570714958,6.655881,14.54717,1.4508862,-0.8660864,0.41226992,0.41866168,2.6767175,6.1195793,4.5154643
1570714958,-1.661576,18.53591,-2.006341,-0.52093023,0.22797355,-0.29189137,-5.693412,10.04607,0.79966336
1570714958,3.0023289,11.626244,-2.992752,-0.14914156,0.14061919,0.02450183,-2.954445,4.6591167,-0.6368576
1570714958,1.163582,6.1866174,-0.9720459,-0.19494934,-0.71907544,0.07776668,-1.4413095,-1.8914193,1.7956513
1570714958,-4.9320555,8.202535,0.46926352,0.094811425,-0.2098635,-1.219765,-8.748413,-1.3551182,3.466804
1570714958,0.22984336,9.074024,-1.6519991,-0.23223473,-0.771275,-1.6895609,-3.490746,1.0773908,1.7477672
1570714958,0.93852705,8.355764,-4.5872903,-0.4431635,-1.3103153,-0.9193513,-1.532289,0.0,-2.4708161
1570714958,0.770933,7.369353,-3.1651347,-0.77340555,-1.833376,-0.16512102,-1.7190368,-1.8148049,-0.60333884
1570714958,1.5945383,8.939949,-0.8619126,-0.74570787,-1.7311075,0.03089361,-1.0869676,-0.16280572,1.6136919
1570714958,2.825158,8.259995,-4.027047,-0.6029581,-1.5659865,-0.175774,0.47884035,-0.7278373,-0.35913026
1570714958,4.027047,8.42759,-2.6240451,-0.37285393,-1.2027203,-0.17683929,1.2737153,-1.2401965,-0.8523358
1570714958,2.255338,9.552865,-2.705448,-0.5017549,-1.230418,-0.4154658,0.39264908,0.37828386,0.49320555
1570714958,2.504335,9.006987,-2.9257145,-0.7680791,-0.8234745,-0.4239882,0.5267244,-0.2873042,-0.34955344
1570714958,2.3798366,9.141062,-1.7238252,-0.8692823,-0.3057402,-0.5688686,1.0773908,-0.44532153,-0.08619126
1570714958,1.8722657,9.485827,-2.5809495,-0.9055024,-0.3206544,-0.9577019,0.48362875,0.14844051,-0.19153613
1570714958,1.6280571,8.916007,-3.3997664,-0.84904164,-0.4847101,-1.2218956,0.51714754,-0.6607997,-1.6089035
1570714958,0.93373865,6.981492,-3.9217024,-0.92148185,-0.9310695,-0.9385266,0.521936,-2.303222,-2.4612393
1570714958,1.1540052,7.441179,-3.1507695,-0.62639457,-0.4495553,-0.2077329,0.40701428,-2.6192567,-2.2936451
1570714958,0.521936,9.715671,-3.490746,-0.51240784,-0.4154658,-0.14488038,0.05746084,-0.0047884034,-2.3127987
1570714958,0.8379706,9.682152,-6.7085533,-0.22690825,-0.8309316,-0.3472868,0.49799395,0.35434186,-5.267244
1570714958,3.7014358,7.445967,-6.9719152,0.036220096,-0.43144527,0.120378554,3.4093432,-2.2984335,-5.9280434
1570714958,3.1794999,6.6654577,-3.3183637,1.3731678,0.95024484,0.46127358,2.7724855,-3.0454245,-2.0398598
1570714959,2.135628,9.313444,-3.514688,2.317021,1.6309696,1.3657106,1.412579,-0.2873042,-1.6711528
1570714959,1.532289,17.492037,-2.5234885,1.9473628,2.2978456,3.6859274,-0.07182605,8.1163435,-0.11971009
1570714959,4.630386,19.570204,2.7150247,1.4370855,0.05646074,3.1809766,1.8579005,10.577583,5.473145
1570714959,5.884948,10.433931,-2.1883004,1.3081846,0.88419646,0.936396,2.719813,1.6903064,0.92416185
1570714959,4.333505,5.9902925,-1.8770541,1.9462975,3.2225232,0.5262567,0.7086837,-2.5091233,1.3934253
1570714959,4.841076,7.144298,-1.3790601,2.1518998,1.7225852,1.1079088,0.7661445,-1.0534488,2.1260512
1570714959,0.94331545,7.929596,-3.7014358,1.3390783,0.21625528,1.298597,-3.4859576,0.076614454,0.15322891
1570714959,-0.2777274,8.580819,-2.825158,0.8767394,1.1206924,1.1665001,-5.080496,1.0151415,1.1587936
1570714959,0.94810385,9.437943,-1.8148049,0.8703476,1.2858135,0.56993383,-4.630386,2.0494366,1.9728222
1570714959,3.265691,6.7851677,-0.8619126,0.85010695,0.6711371,-0.22371235,-2.1883004,-0.4405331,3.1747115
1570714959,1.661576,6.421249,-2.0494366,0.50388545,0.14594568,-0.51240784,-3.2609026,-0.6799533,2.15957
1570714959,1.2593501,5.9998693,-2.1499932,-0.07670138,-0.04900366,-0.9417225,-3.7588966,-1.3215994,2.006341
1570714959,2.7724855,5.8945246,-2.72939,-0.49855897,0.14914156,-1.306054,-2.5474305,-1.5275006,1.5275006
1570714959,5.439626,5.544971,-3.9264908,-0.71374893,0.49216717,-1.6203166,0.35913026,-2.3175871,0.15801731
1570714959,10.448297,7.690176,-5.094861,-0.57526034,0.8224092,-1.7034098,5.386954,-0.79966336,-1.316811
1570714959,10.113108,8.930372,-8.494628,-0.14381509,0.40694344,-1.0397298,6.8186865,0.8283938,-5.779603
1570714959,6.885724,8.643068,-7.747637,0.40161693,0.92148185,0.33556855,3.0023289,0.641646,-5.161899
1570714959,5.3582234,7.40766,5.0613422,-0.81069094,0.6945736,-0.117182665,1.13964,-2.7581203,7.1251445
1570714959,2.8921957,21.547815,-2.4851813,-0.36965802,0.409074,-0.9619631,-0.33997664,10.16578,-0.02873042
1570714959,1.7190368,14.638149,-2.9113493,-0.2769772,0.3185238,0.1374233,-4.003105,9.481039,0.7757214
1570714959,2.0829554,3.6296098,-0.48362875,-0.57526034,-0.14488038,0.5347791,0.7374141,-4.4484267,1.1875241
1570714959,-7.929596,8.576031,1.8100165,0.33556855,-0.39735577,-1.2080467,-11.789049,-1.4413095,4.5633483
1570714959,-0.8571242,10.505757,-1.9680338,-0.5550197,-1.4147143,-1.8962286,-5.104438,2.0925324,2.695871
1570714959,2.1739352,7.7093296,-6.493075,-0.53904027,-1.4008654,-0.8980453,-0.6512229,-0.320823,-4.2185836
1570714959,0.90500826,6.483498,-2.7341783,-0.6072193,-1.8472248,0.09907261,-1.5275006,-3.0933087,-0.22505496
1570714959,0.7565677,8.863335,-0.46447513,-0.800038,-1.772654,0.42931467,-2.1787236,-0.08619126,2.2936451
1570714959,3.5098996,8.872911,-4.5298295,-0.7648832,-1.9942359,-0.12570503,0.45489833,-0.1388637,-1.0821792
1570714959,3.9073372,8.226477,-2.8203697,-0.3462215,-1.5223093,-0.29402196,1.532289,-1.091756,-0.8619126
1570714959,2.6192567,9.945514,-1.8100165,-0.61467636,-1.4413468,-0.3845722,0.36870706,0.6368576,0.8331822
1570714959,2.930503,9.399636,-2.6767175,-1.1494554,-0.8703476,-0.28123838,1.0630256,0.41180268,0.04309563
1570714959,2.777274,8.317456,-2.6288335,-1.0535786,-0.40694344,-0.42931467,1.292869,-1.1252748,-0.7086837
1570714959,2.2457612,8.944737,-2.753332,-0.89271885,-0.32598087,-0.8618252,0.78050977,-0.90500826,-0.770933
1570714959,2.1739352,7.9391727,-4.0414124,-0.63811284,-0.5816521,-1.0844723,0.90979666,-1.685518,-2.3080103
1570714959,1.7046716,8.010999,-3.9121256,-0.67326766,-1.0791458,-0.9907262,0.8283938,-1.6232687,-2.327164
1570714960,1.460463,6.823475,-3.8881836,-0.64450467,-0.5997622,-0.3398297,0.8331822,-2.858677,-2.4899697
1570714960,2.2409728,10.314221,-2.4756045,-0.46873066,-0.42292288,-0.057526033,1.6711528,0.60333884,-1.2162545
1570714960,1.5801731,9.859323,-5.731719,-0.30680552,-0.7052266,-0.41866168,1.1109096,0.12928689,-4.5777135
1570714960,3.1124623,8.159439,-5.793968,0.1747087,-0.14701098,-0.07137489,2.719813,-1.5705963,-4.6351743
1570714960,2.5809495,7.7572136,-3.6487634,1.3156418,0.7244019,0.506016,2.0829554,-1.934515,-2.2649148
1570714960,0.81402856,8.51857,-3.2082303,2.1359203,1.2943357,1.1941979,0.01436521,-1.067814,-1.3024458
1570714960,1.6041151,14.748282,-2.078167,2.0901127,1.7566746,3.0787082,0.08140286,5.377377,0.39743748
1570714960,3.8546648,18.08101,1.8770541,1.3284253,0.29189137,3.5580919,1.1923125,9.078813,4.721366
1570714960,5.497087,10.7116585,-2.0685902,1.2165691,-0.25886714,1.0237503,2.3415294,1.9967642,1.1492168
1570714960,5.2528787,7.445967,-2.0685902,1.765197,2.3127596,0.74890375,1.7381904,-1.0342951,1.3790601
1570714960,4.865018,7.321469,0.50278234,1.904751,1.9931706,0.8937841,0.90979666,-0.866701,4.1659107
1570714960,2.944868,7.929596,-2.4277205,1.3007276,0.29402196,1.3465353,-0.7661445,-0.05746084,2.087744
1570714960,1.2976574,8.2169,-3.9743748,0.6370476,0.60828453,1.3412088,-3.1603463,0.41180268,-0.033518825
1570714960,1.5179238,9.23683,-2.1021092,0.68605125,1.0461216,0.78725445,-3.8355112,1.8531121,1.7764976
1570714960,3.0214825,7.920019,-0.7038953,0.77766675,0.74996907,0.09694202,-2.1691468,1.2545617,3.265691
1570714960,1.7669208,6.6415157,-1.541866,0.22690825,0.33024204,-0.33663383,-3.3854012,-0.58418524,2.9161377
1570714960,1.2354081,5.837064,-2.5474305,-0.14381509,0.0031958907,-0.7382508,-3.8259344,-1.2976574,1.6472107
1570714960,2.3463178,5.8083334,-2.4277205,-0.49429777,-0.1033338,-1.2730298,-2.9831753,-1.7238252,1.5945383
1570714960,5.8322754,5.9807158,-3.1124623,-0.85330284,0.32171968,-1.7055404,0.39743748,-2.0207062,0.7565677
1570714960,12.761095,8.628703,-4.1276035,-0.760622,1.080211,-1.5872924,7.4363904,0.15801731,-0.095768064
1570714960,8.643068,6.9623384,-9.155427,-0.04793836,0.380311,-0.43037996,6.2249246,-1.0295067,-4.865018
1570714960,6.291962,9.830592,-4.7979803,0.5731298,0.77020967,0.4538165,2.303222,1.364695,-3.347094
1570714960,5.233725,12.344504,-0.45489833,-0.82027864,0.66794115,0.053264845,0.59855044,3.347094,3.8642416
1570714960,3.1124623,16.678009,-2.3558946,-0.41653112,0.17151281,-0.64343935,-0.79008657,7.819463,0.7134721
1570714960,4.663905,11.774684,-2.1930888,-0.18429637,-0.3877681,0.25886714,0.4357447,5.4922986,0.6512229
1570714960,-1.8866309,5.9663506,-0.4357447,-0.22051647,-0.15659864,-0.14807628,-4.3287168,-2.552219,1.8866309
1570714960,-1.1827357,10.031705,1.5035586,-0.04793836,0.15872924,-1.6597326,-6.631939,1.091756,4.5441947
1570714960,0.81402856,9.375694,-4.1132383,-0.40587813,-1.406192,-1.6213819,-3.016694,0.2777274,-0.009576807
1570714960,0.60812724,8.734048,-4.247314,-0.66794115,-1.2581156,-0.82880104,-2.5617957,0.22984336,-1.4508862
1570714960,0.34955344,7.4028716,-3.2992098,-0.79045033,-1.9036856,0.09694202,-2.1930888,-1.7956513,-1.0103531
1570714960,2.0925324,8.073248,-1.436521,-0.8650211,-1.7012792,0.2077329,-1.0390835,-0.8379706,1.5705963
1570714960,3.8642416,8.1402855,-4.2999864,-0.51240784,-1.4583915,-0.1054644,1.1300632,-0.81881696,-1.8100165
1570714960,3.323152,9.045294,-2.6240451,-0.33769912,-1.4509344,-0.31745848,0.90500826,-0.06703765,0.07182605
1570714961,2.5091233,9.758766,-2.5905263,-0.67646354,-1.2559851,-0.3462215,0.18195933,0.6895301,0.12928689
1570714961,3.4332852,8.1881695,-2.7868507,-1.0610358,-0.8639558,-0.2119941,1.3982137,-0.6464345,-0.35434186
1570714961,3.1364043,8.585608,-2.3798366,-0.986465,-0.54543203,-0.43464115,1.2306197,-0.7661445,-0.12928689
1570714961,2.7868507,8.858546,-2.8538885,-0.82880104,-0.36752746,-0.87567407,1.1013328,-0.58897364,-0.8331822
1570714961,2.3989902,8.255207,-3.2848446,-0.789385,-0.60615396,-1.0429257,1.0199299,-1.283292,-1.4700398
1570714961,1.2258313,7.005434,-4.098873,-0.80749506,-1.0610358,-0.8351928,0.17238252,-2.60968,-2.480393
1570714961,1.5610195,7.120356,-4.060566,-0.5614115,-0.7254672,-0.24075711,0.6943185,-2.5378537,-2.6192567
1570714961,1.9440918,9.222465,-3.7972038,-0.39948636,-0.4218576,-0.15446806,1.2306197,-0.58897364,-2.1883004
1570714961,3.0454245,9.346964,-6.9623384,0.04154658,-0.44635943,-0.36539686,2.3511062,-0.34955344,-5.674258
1570714961,4.2904096,7.929596,-5.7125654,0.7297284,0.45914298,0.019175345,3.620033,-1.7477672,-4.280833
1570714961,1.9009962,8.0924015,-4.3382936,1.9058162,1.2261568,0.41440052,1.1109096,-1.508347,-2.5139117
1570714961,1.043872,12.703634,-3.3566709,2.2019687,1.5883577,1.9345793,-0.16280572,3.2704794,-0.9528923
1570714961,0.32561144,17.425,-0.59855044,1.6032718,1.9558852,3.7764776,-1.6089035,7.608773,1.1827357
1570714961,4.510676,15.342045,2.2218192,1.2016549,-0.091615535,2.3330002,0.8331822,8.226477,5.5880666
1570714961,6.694188,8.652645,-1.6136919,1.6128596,1.406192,0.81069094,3.3423057,0.095768064,1.8148049
1570714961,5.8801594,5.7125654,-0.7565677,1.9068816,2.6472628,0.6455699,2.1021092,-2.566584,2.896984
1570714961,4.4101195,7.627927,-1.541866,1.8248537,1.334817,1.2549198,0.9959879,-1.2449849,2.2936451
1570714961,0.89064306,7.747637,-4.122815,1.0162933,0.50068957,1.3550577,-3.2609026,0.07182605,0.095768064
1570714961,0.4213795,8.963891,-2.4037786,0.6402435,1.1079088,1.0567746,-4.5920787,1.6089035,1.7142484
1570714961,3.845088,8.571242,-2.815581,-0.42718408,-1.4935462,-0.29082605,1.2785037,-0.5602432,-0.095768064
1570714961,2.825158,10.16578,-1.8866309,-0.6956389,-1.5670518,-0.3824416,0.62728083,0.90979666,0.94331545
1570714961,3.0502129,9.016563,-2.4229321,-1.0631664,-1.0077709,-0.20134112,0.8475474,-0.47884035,-0.35434186
1570714961,2.930503,8.748413,-2.4468741,-1.0077709,-0.5262567,-0.36007038,1.340753,-0.7565677,-0.21547815
1570714961,2.3080103,9.102755,-2.207454,-0.9523755,-0.37285393,-0.72333664,0.9864111,-0.110133275,0.062249243
1570714961,2.183512,8.039729,-3.6774938,-0.8351928,-0.506016,-0.9949873,0.7661445,-1.3072342,-1.8914193
1570714961,2.2601264,7.455544,-4.0174704,-0.76168734,-0.9917914,-0.87993526,1.163582,-1.9536686,-2.3319526
1570714961,1.8243817,7.1634517,-4.036624,-0.6594188,-0.82453984,-0.3526133,0.90500826,-2.858677,-2.753332
1570714961,2.183512,9.667787,-3.3806129,-0.4516859,-0.50388545,-0.1054644,1.5705963,-0.3878607,-1.8914193
1570714961,1.9919758,9.409213,-5.813122,-0.16512102,-0.7222713,-0.35367858,1.1061212,-0.20590134,-3.8977604
1570714961,3.0119057,7.603985,-5.2480903,0.3824416,-0.08309316,0.1736434,2.3989902,-1.982399,-4.654328
1570714961,1.541866,6.50744,-4.084508,1.5478765,0.5315832,0.6253293,1.2880806,-3.0214825,-2.8395233
1570714961,0.82360536,9.557653,-4.2042184,2.209426,1.0759499,1.4200408,-0.24420857,-1.2545617,-2.2936451
1570714961,1.982399,18.32043,-3.1794999,1.9058162,1.844029,3.7189517,-0.009576807,7.666234,-1.3120226
1570714962,7.40766,17.78892,3.3806129,1.3635801,-0.5518238,2.8368857,3.5865142,10.55843,6.555324
1570714962,7.517793,9.203311,-0.79966336,1.2954011,1.2155038,0.43996763,4.232949,1.8339585,2.0159178
1570714962,5.4204726,4.855441,-1.8004397,1.8919674,2.7996004,0.36433154,1.8243817,-3.5865142,1.6519991
1570714962,4.5202527,8.0445175,-1.8339585,1.8408331,1.4733057,1.1707613,1.1204864,-0.80924016,1.7764976
1570714962,1.6807296,7.9008656,-4.0414124,1.0897988,0.47831833,1.3550577,-2.743755,0.076614454,-0.11492168
1570714962,-0.16280572,8.374918,-2.5761611,0.75209963,1.1281495,1.2634422,-4.9943047,0.8379706,1.4221559
1570714962,0.7661445,9.514558,-1.4269443,0.74996907,1.122823,0.6977695,-4.8602295,1.9919758,2.5091233
1570714962,2.72939,7.3789296,-1.0199299,0.703096,0.43357584,-0.117182665,-2.5617957,0.18195933,3.016694
1570714962,1.8770541,6.622362,-2.456451,0.27165073,-0.117182665,-0.54223615,-3.3423057,-0.5746084,1.6711528
1570714962,2.1978772,6.325481,-2.006341,-0.19494934,-0.059656627,-1.0258809,-2.8299465,-0.9959879,2.1452048
1570714962,4.453215,5.7029886,-3.53863,-0.7222713,0.25460598,-1.4051267,-0.30166942,-1.8674773,0.47884035
1570714962,8.724471,5.8945246,-4.19943,-0.789385,0.8692823,-1.5308317,4.2425256,-1.982399,-0.44532153
1570714962,11.152191,7.297527,-3.5817258,-0.57632565,0.61787224,-1.080211,7.029376,-0.82360536,-0.10534488
1570714962,6.727707,10.395624,-10.649409,0.7297284,0.33343795,0.22264706,2.5187001,2.2361844,-7.192182
1570714962,6.8905125,8.485051,0.6464345,0.15340276,0.8266704,0.3142626,2.4995465,0.45010993,4.156334
1570714962,6.8665705,14.824897,-2.3942018,-0.9236124,0.5443667,-0.21732058,2.4037786,6.7133417,0.842759
1570714962,0.7469909,17.171215,-1.4077905,-0.32385027,0.25567126,-0.44209823,-2.8682537,10.151415,1.7525556
1570714962,3.643975,6.1866174,-1.5466543,-0.46873066,-0.04900366,0.0,-0.7326257,-2.0685902,1.4173675
1570714962,-2.743755,5.837064,-0.090979666,0.040481284,-0.43144527,-0.51666903,-6.05733,-3.1364043,2.3558946
1570714962,0.21068975,10.6637745,0.81881696,-0.09800732,-0.13103153,-1.5702477,-4.951209,2.4277205,4.5298295
1570714962,2.6431987,9.821015,-5.080496,-0.5944357,-1.3358823,-1.0312074,-0.82360536,1.1492168,-2.087744
1570714962,1.0055647,7.086837,-3.3758245,-0.8639558,-1.172892,-0.3856375,-2.2601264,-1.13964,-0.4165911
1570714962,0.033518825,7.929596,-2.542642,-0.71161836,-1.6448184,0.11079088,-2.9352913,-1.2258313,0.0047884034
1570714962,2.7150247,8.772355,-2.1068976,-0.6935083,-1.6373614,-0.14594568,-0.6751649,-0.07182605,1.0342951
1570714962,4.209007,9.021352,-4.2425256,-0.5305179,-1.453065,-0.32704616,1.316811,0.0047884034,-1.6136919
1570714962,2.954445,9.193734,-1.7238252,-0.5901745,-1.2325486,-0.3163932,0.79487497,-0.023942016,1.0534488
1570714962,2.4037786,9.083601,-2.719813,-0.9044371,-1.0344033,-0.21838588,-0.062249243,0.110133275,0.05746084
1570714962,2.7485435,8.178593,-2.8634653,-1.0312074,-0.7126837,-0.3100014,0.48362875,-1.0630256,-0.10534488
1570714962,2.6671407,8.6095495,-2.3798366,-0.8341275,-0.41440052,-0.6785942,0.7661445,-0.93373865,-0.05267244
1570714962,2.9592333,8.887277,-3.0119057,-0.7755362,-0.37178862,-0.84158456,1.0965444,-0.33039984,-0.78050977
1570714962,2.882619,8.461109,-3.3135753,-0.8660864,-0.5496932,-0.81495214,1.2737153,-0.8379706,-1.4748282
1570714962,1.6567876,7.675811,-3.9935284,-0.8266704,-0.8714129,-0.68498594,0.5746084,-1.7812861,-2.4372973
1570714962,1.958457,7.1873937,-3.5577838,-0.6029581,-0.5603462,-0.28869548,0.40701428,-2.5617957,-2.4372973
1570714962,2.0925324,8.959103,-3.620033,-0.419727,-0.50282013,-0.33343795,1.1683705,-1.1540052,-1.7717092
1570714963,2.9831753,10.093954,-7.503428,-0.120378554,-0.7510343,-0.380311,1.5753847,0.6751649,-6.4787097
1570714963,3.7301662,7.61835,-4.5298295,0.47725302,0.060721926,0.24075711,2.7868507,-2.2505496,-3.715801
1570714963,2.3894134,7.302315,-3.4332852,1.804613,0.6668759,0.6935083,1.5897499,-2.2601264,-1.9536686
1570714963,1.4700398,10.13705,-3.5865142,2.234993,1.0599705,1.6714509,0.033518825,-0.36870706,-1.4700398
1570714963,1.6903064,17.434576,-1.5610195,1.8429637,1.5649211,3.6944497,-0.79008657,7.5465236,0.009576807
1570714963,7.896077,15.969325,0.79966336,1.4615874,-0.5241261,2.4480524,4.0174704,8.714894,4.7165775
1570714963,7.5082164,10.223241,-1.6041151,1.4722403,0.80749506,0.5986969,3.9791632,1.7238252,1.7956513
1570714963,5.305551,5.386954,-0.79487497,2.1220715,2.8816283,0.312132,1.4030021,-2.2697031,2.657564
1570714963,5.2863975,6.6846113,-0.8523358,1.9058162,1.7939601,0.8937841,0.9864111,-1.2689269,2.9400797
1570714963,2.0973208,7.800309,-4.654328,1.2101773,0.2737813,1.2708993,-2.542642,0.18195933,-0.5746084
1570714963,0.6655881,8.734048,-2.930503,0.8064298,1.1654348,1.2112426,-4.357447,1.412579,1.2354081
1570714963,1.7956513,9.552865,-1.4652514,0.89698005,1.241071,0.53797495,-3.572149,2.4660277,2.6767175
1570714963,2.7006595,7.551312,-0.7086837,0.74357724,0.6668759,-0.09800732,-2.8107927,0.59855044,3.466804
1570714963,1.3838485,6.95755,-2.183512,0.21625528,-0.011718267,-0.49962425,-4.084508,0.0,2.0398598
1570714963,1.1683705,6.172252,-2.3319526,-0.14274979,-0.18855755,-0.91295946,-4.1276035,-0.89543146,1.9201498
1570714963,3.5003228,5.391742,-3.2034419,-0.6327864,0.046873067,-1.3390783,-1.532289,-1.9153614,0.9672575
1570714963,8.331821,5.770026,-3.7301662,-0.70629185,0.6668759,-1.5510724,3.5817258,-1.8387469,0.22505496
1570714963,13.010092,7.3885064,-4.6399627,-0.5358444,0.653027,-1.2368097,8.494628,-0.48841715,-0.93373865
1570714963,7.0102224,7.8290396,-10.338163,0.22371235,0.35367858,-0.12890093,2.6144683,-0.15322891,-6.71813
1570714963,6.4164605,6.4882865,-3.1316159,0.312132,1.0269462,0.25460598,1.8818425,-1.4173675,0.48362875
1570714963,5.731719,11.405977,0.37349546,-1.0216198,0.28869548,-0.36007038,1.1587936,3.4237084,3.7780502
1570714963,4.012682,24.042574,-1.1731589,-0.46127358,-0.02450183,-1.1292148,-0.34955344,15.873557,2.054225
1570714963,6.8761473,8.0924015,-4.534618,-0.487906,0.1033338,0.26206306,2.5713725,-0.14844051,-1.4221559
1570714963,0.38307226,3.3758245,-0.45968673,-0.18216577,-0.29828313,0.28123838,-2.2361844,-5.5258174,1.8818425
1570714963,-4.1371803,9.232041,2.4995465,0.12783563,-0.09800732,-1.2368097,-9.428367,-0.46447513,5.717354
1570714963,1.5035586,9.222465,-4.984728,-0.1725781,-1.5223093,-1.4488038,-2.4229321,1.2066777,-0.18674773
1570714963,3.5338416,8.992621,-3.8786068,-0.5102772,-1.0130974,-0.624264,0.12449849,0.9720459,-1.292869
1570714963,0.6847417,7.8865004,-1.958457,-0.936396,-1.4488038,-0.045807768,-2.1068976,-1.3072342,0.521936
1570714963,0.25378537,9.131485,-0.7134721,-0.9023065,-1.4754362,-0.2748466,-3.1747115,0.2777274,2.8107927
1570714963,3.083732,8.384495,-5.1475334,-0.6402435,-1.4264326,-0.3771151,-0.34955344,-0.29688102,-1.8435353
1570714963,2.7868507,8.360553,-1.9297266,-0.5496932,-1.4317591,-0.23756121,0.6847417,-1.1444284,0.4357447
1570714963,1.9057846,9.409213,-2.6288335,-0.800038,-1.5137869,-0.24075711,-0.59376204,0.61770403,0.4165911
1570714963,2.9640217,8.303091,-2.9640217,-1.0088362,-0.91295946,-0.26952013,0.7182605,-0.47405192,-0.11971009
1570714964,3.3183637,9.059659,-2.1452048,-0.94704896,-0.60082746,-0.5113425,1.3742718,-0.23463176,0.35913026
1570714964,2.8491,8.949526,-3.083732,-0.9768773,-0.4474247,-0.77873206,1.043872,-0.22984336,-0.6655881
1570714964,2.336741,8.322245,-3.7110126,-1.0333381,-0.63811284,-0.936396,0.8619126,-1.0007763,-1.5035586
1570714964,1.6184803,6.6893997,-4.644751,-0.9917914,-1.0375992,-0.7041613,0.35434186,-2.4420857,-2.5713725
1570714964,2.2649148,7.225701,-3.8594532,-0.6413088,-0.63917816,-0.11079088,0.7565677,-2.7246015,-2.3415294
1570714964,2.0638018,9.720459,-3.0933087,-0.5219955,-0.40694344,-0.15872924,1.2210429,-0.06703765,-1.4173675
1570714964,2.183512,10.16578,-6.2967505,-0.2428877,-0.70629185,-0.44209823,0.6991069,0.46447513,-4.4244847
1570714964,3.9217024,8.135497,-5.3725886,0.18749227,0.01384886,-0.015979454,2.9975405,-1.1587936,-4.3239284
1570714964,2.8203697,7.680599,-3.940856,1.4477385,0.7254672,0.3845722,2.2505496,-1.7621324,-2.3798366
1570714964,1.292869,9.121908,-3.371036,2.1263328,1.3156418,1.1079088,0.076614454,-0.9768343,-1.7717092
1570714964,2.183512,13.215993,-2.930503,2.0336518,1.7641318,2.7378132,0.35913026,3.9073372,-0.4309563
1570714964,3.691859,17.21431,1.0534488,1.2932705,0.8362581,3.6678174,0.7613561,8.288726,3.8786068
1570714964,6.679823,11.099519,-1.3503298,1.0631664,0.0063917814,1.0823417,3.1411927,2.4995465,1.7717092
1570714964,5.650316,7.369353,-1.6663644,1.9377751,2.0176723,0.33556855,1.8435353,-1.0199299,1.6903064
1570714964,5.1235914,6.9767036,-0.82360536,2.156161,1.854682,0.71161836,0.9768343,-1.1252748,2.8203697
1570714964,2.4181437,8.0684595,-4.060566,1.3752984,0.25567126,1.2964664,-2.087744,0.29688102,-0.11971009
1570714964,1.2545617,8.461109,-3.323152,0.7936462,0.9321348,1.3262947,-3.6248214,1.0007763,0.7613561
1570714964,2.408567,9.476251,-1.3551182,0.66368,1.0567746,0.79151565,-2.8443117,2.2601264,2.705448
1570714964,3.7493198,7.6470804,-0.8475474,0.7936462,0.46660006,0.08202787,-1.6711528,0.58897364,3.2704794
1570714964,1.9632454,6.655881,-2.1452048,0.30041373,0.05646074,-0.33237264,-3.4380736,-0.37828386,2.0350714
1570714964,1.283292,5.9807158,-2.3942018,-0.03728539,-0.14381509,-0.74890375,-3.9743748,-1.1444284,1.8100165
1570714964,2.6288335,5.6790466,-2.6192567,-0.39842105,-0.058591332,-1.1526513,-2.9640217,-1.4700398,1.7477672
1570714964,6.799533,5.6886234,-3.9504328,-0.7286631,0.44635943,-1.4967422,2.0590134,-1.9201498,0.023942016
1570714964,12.660539,7.2304893,-4.4723687,-0.5784562,0.75316495,-1.2336138,8.1642275,-0.6464345,-0.7469909
1570714964,8.159439,6.8522053,-9.083601,-0.09587672,0.29721785,-0.44422883,3.8019924,-1.1731589,-5.506664
1570714964,7.053318,9.112331,-6.167464,0.4857754,0.85436815,0.25993246,2.6288335,1.1252748,-2.5713725
1570714964,7.177817,12.564771,0.78529817,-0.81921333,0.7371855,0.025567126,2.633622,4.5777135,4.213795
1570714964,4.0414124,17.21431,-1.4269443,-0.5784562,0.07776668,-0.27058542,-0.49799395,9.126697,1.7525556
1570714964,4.309563,10.266336,-2.231396,-0.2056023,-0.05539544,0.22264706,-0.22984336,2.15957,0.90979666
1570714964,-0.21068975,6.081272,-1.115698,-0.2418224,-0.04900366,0.019175345,-3.2944214,-2.2026656,1.6711528
1570714964,-1.6041151,10.395624,1.0199299,0.2087982,0.040481284,-1.521244,-7.575254,1.4700398,4.4101195
1570714964,1.6376339,8.494628,-2.9783869,-0.5187996,-1.266638,-1.4019308,-2.4229321,0.110133275,1.0726024
1570714964,1.1109096,8.623915,-3.3614593,-0.79471153,-1.1814142,-0.6796594,-2.4468741,0.33518824,-0.45489833
1570714965,-0.023942016,7.6853876,-3.6535518,-0.9150901,-1.6799732,-0.14807628,-3.2992098,-1.3694834,-0.5793968
1570714965,2.231396,8.576031,-1.3503298,-0.8341275,-1.6906263,-0.08096257,-1.5993267,-0.18674773,1.5035586
1570714965,3.9025488,8.226477,-4.7261543,-0.7510343,-1.7055404,-0.10120321,0.7422025,-0.50757074,-1.4173675
1570714965,4.1276035,8.303091,-2.6431987,-0.5933704,-1.485024,-0.1725781,1.733402,-1.0582372,0.25378537
1570714965,3.1747115,9.212888,-3.0358477,-0.74890375,-1.2677033,-0.35367858,0.36870706,0.22505496,-0.12449849
1570714965,3.7062242,8.796297,-2.8682537,-0.9704855,-0.6700718,-0.33876443,0.9768343,-0.33997664,-0.18674773
1570714965,3.8163576,8.767567,-2.3750482,-0.8660864,-0.3419603,-0.54223615,1.6089035,-0.7038953,0.10055647
1570714965,2.7820623,8.595184,-2.906561,-0.8767394,-0.26952013,-0.8437152,0.94810385,-0.6847417,-0.40222588
1570714965,2.3654714,7.7907324,-3.9312792,-0.868217,-0.48044893,-1.1036476,0.51714754,-1.5275006,-1.7908629
1570714965,2.1547816,7.61835,-4.132392,-0.936396,-0.7126837,-1.0056403,0.7422025,-1.9297266,-2.2984335
1570714965,2.336741,8.389283,-3.4237084,-0.67220235,-0.60402334,-0.47618774,0.9768343,-1.532289,-2.0733786
1570714965,2.030283,9.093178,-3.3901896,-0.5305179,-0.42824936,-0.1736434,1.1013328,-0.62249243,-1.8339585
1570714965,2.2505496,9.136273,-5.9902925,-0.31958908,-0.5986969,-0.32385027,1.2066777,-0.5315128,-4.735731
1570714965,3.8259344,7.747637,-4.5298295,0.18323107,0.025567126,0.015979454,2.815581,-1.9201498,-3.2513258
1570714965,2.4612393,7.053318,-3.8738184,1.6043372,0.5880439,0.380311,1.3742718,-2.5713725,-2.5713725
1570714965,0.6991069,7.3549876,-3.016694,2.271213,0.98113847,0.9577019,-0.60333884,-2.1404164,-0.9576807
1570714965,1.4077905,14.5759,-4.1515455,2.127398,1.406192,3.0712512,-0.5650316,5.33907,-1.508347
1570714965,4.3478703,20.30762,1.1875241,1.3806248,0.44422883,4.039606,1.1875241,11.520899,4.1946416
1570714965,8.145074,11.664551,-1.9393034,1.1941979,-0.24075711,0.6327864,4.4484267,3.2225955,1.412579
1570714965,6.991069,6.4164605,-1.0582372,2.1550958,2.4853377,0.3185238,3.0358477,-1.8004397,2.542642
1570714965,5.9902925,5.57849,-0.33997664,1.9431016,2.101831,0.8607599,1.6280571,-2.327164,3.4763808
1570714965,3.4380736,7.905654,-4.1419687,1.3188376,0.29721785,1.2432015,-1.7908629,0.2825158,-0.6655881
1570714965,1.2210429,8.561666,-3.4141316,0.6785942,1.0567746,1.2069814,-3.86903,1.2689269,0.7182605
1570714965,1.6089035,9.174581,-1.6376339,0.8021686,1.1004517,0.5315832,-3.8163576,2.111686,2.4660277
1570714965,2.327164,6.670246,-0.9528923,0.7265325,0.60615396,-0.14914156,-3.217807,-0.272939,3.1842883
1570714965,1.6232687,6.2871737,-2.3654714,0.2759119,0.03089361,-0.49855897,-3.8738184,-0.6607997,1.8291701
1570714965,2.0207062,6.2967505,-2.2266076,-0.14061919,-0.16299044,-0.8469111,-3.3183637,-0.7613561,1.9919758
1570714965,4.5154643,6.1100025,-3.1411927,-0.6668759,0.092680834,-1.1675655,-0.59376204,-1.1683705,0.9864111
1570714965,8.37013,5.995081,-4.721366,-0.653027,0.57206446,-1.2911398,3.4955344,-1.5610195,-0.80445176
1570714965,10.769119,5.4922986,-4.367024,-0.37604982,0.68605125,-1.1537166,5.7843914,-2.3080103,-0.8762778
1570714965,7.9391727,8.135497,-9.509769,0.40800872,0.39842105,-0.14594568,3.3758245,0.25857377,-5.851429
1570714965,7.1347213,7.905654,-4.745308,0.54649734,0.9779426,0.3206544,2.695871,0.521936,-2.6767175
1570714965,8.336611,9.916783,0.6464345,-0.86289054,0.574195,-0.20240642,3.1986535,3.3327289,2.8107927
1570714965,3.371036,20.005949,-2.006341,-0.40587813,0.07989727,-0.88419646,-0.4309563,10.309433,1.0055647
1570714966,4.936844,11.329363,-3.3183637,-0.56780326,0.21518998,0.10866029,-0.93373865,6.301539,-0.21547815
1570714966,0.110133275,4.5537715,-0.07182605,-0.28123838,-0.08309316,0.17896989,-2.7820623,-3.7684734,2.1260512
1570714966,-4.4005427,9.533711,1.0965444,0.25780186,-0.16938221,-1.2687687,-9.682152,0.2825158,4.414908
1570714966,1.3934253,9.782708,-3.8019924,-0.33450323,-1.2943357,-1.5350928,-3.1986535,1.7812861,0.61291564
1570714966,3.1603463,7.920019,-4.213795,-0.760622,-1.172892,-0.6413088,-0.33997664,-0.038307227,-1.5705963
1570714966,0.36391866,7.9870567,-2.5234885,-0.8362581,-1.7236505,-0.12890093,-2.8107927,-1.1444284,0.2777274
1570714966,1.4891934,8.810662,-1.1827357,-0.8021686,-1.7193892,-0.053264845,-2.2026656,0.30645782,2.0398598
1570714966,3.8738184,7.795521,-5.1235914,-0.7329243,-1.618186,-0.091615535,0.31603462,-0.8379706,-1.532289
1570714966,4.414908,8.360553,-1.910573,-0.5539544,-1.5137869,-0.15979454,1.4460979,-1.0390835,0.51235914
1570714966,2.992752,9.346964,-2.633622,-0.7766015,-1.392343,-0.31958908,0.009576807,0.6560113,0.009576807
1570714966,3.3662477,8.418014,-3.2513258,-0.9917914,-0.7648832,-0.26845482,0.7422025,-0.40701428,-0.5650316
1570714966,3.6535518,9.021352,-2.2218192,-0.94278777,-0.3781804,-0.46979594,1.2976574,-0.19153613,0.4261679
1570714966,2.9496565,8.690952,-3.241749,-0.93426543,-0.30041373,-0.71587956,0.7374141,-0.37828386,-0.7613561
1570714966,2.4037786,8.355764,-3.4284968,-1.036534,-0.39415985,-0.94278777,0.5602432,-1.0821792,-1.2258313
1570714966,1.5993267,7.465121,-3.9025488,-1.1036476,-0.9118942,-0.88845766,-0.076614454,-1.733402,-1.8004397
1570714966,2.4181437,7.321469,-4.4340615,-0.79471153,-0.7627526,-0.312132,0.8379706,-2.3702598,-3.098097
1570714966,2.135628,8.025364,-3.2034419,-0.5347791,-0.40268224,-0.034089502,0.7422025,-1.5705963,-1.757344
1570714966,3.0119057,10.204087,-7.3549876,-0.13422741,-0.8138869,-0.14488038,1.1109096,0.866701,-5.209783
1570714966,4.6782703,6.5936313,-6.5122285,0.09907261,-0.32811147,0.12463974,3.3806129,-3.0262709,-5.118803
1570714966,3.3087866,5.659893,-3.8642416,1.5073951,0.5177343,0.50068957,1.8914193,-3.9025488,-2.2266076
1570714966,2.135628,7.608773,-3.9312792,2.317021,1.0738193,1.1547819,0.45010993,-1.8004397,-1.7429788
1570714966,2.2026656,18.358738,-3.1651347,1.9942359,1.7588053,3.738127,-0.22026655,7.8769236,-0.58418524
1570714966,5.363012,21.08334,1.1683705,1.6416225,0.556085,3.7796736,1.1540052,13.024457,2.873042
1570714966,7.2065473,11.008539,-2.480393,1.4211061,0.7052266,0.35474387,3.2465374,2.7246015,0.9672575
1570714966,6.4068837,6.2392898,-1.4891934,2.3660245,2.9785702,0.29082605,2.1260512,-1.8004397,2.1452048
1570714966,6.157887,5.889736,-0.7422025,2.1614876,1.9558852,0.78725445,1.4652514,-1.8100165,3.1124623
1570714966,2.3415294,7.441179,-4.295198,1.2730298,0.25780186,1.180349,-2.6719291,0.08619126,-0.17238252
1570714966,1.3263878,8.724471,-3.3758245,0.9108289,1.0024444,1.2293527,-3.6774938,1.5466543,0.7517793
1570714966,1.067814,9.615114,-1.8722657,0.9012412,1.32736,0.74464256,-4.8506527,2.6431987,2.1164744
1570714966,2.6767175,7.2448545,-0.7613561,0.8042992,0.7286631,-0.08628905,-3.2034419,0.61291564,3.4332852
1570714966,1.757344,6.8809357,-1.7190368,0.3419603,0.13103153,-0.41226992,-4.0892963,0.33518824,2.705448
1570714966,1.8626889,6.5265937,-2.1260512,-0.09694202,-0.19175345,-0.7297284,-4.074931,-0.2681506,2.1021092
1570714966,3.9791632,6.3063273,-2.4995465,-0.5784562,-0.091615535,-1.1089741,-2.1787236,-0.45968673,2.006341
1570714967,7.469909,5.6790466,-3.691859,-0.80749506,0.40587813,-1.3465353,1.316811,-1.5370775,0.46447513
1570714967,12.047623,6.019023,-3.7732618,-0.6615494,0.7169448,-1.1505207,6.579266,-1.4748282,0.16280572
1570714967,8.130709,5.8083334,-8.159439,-0.11824796,0.13422741,-0.5198649,4.256891,-1.7812861,-3.5242648
1570714967,6.9144545,7.632715,-6.8330517,0.7691444,0.73612016,0.070309594,1.9057846,0.038307227,-4.247314
1570714967,5.9759274,7.6135616,0.641646,-0.15872924,0.965159,-0.31319728,0.92416185,-0.61291564,2.9831753
1570714967,7.5848308,16.639702,-3.6535518,-0.78299326,0.31319728,-0.78192794,2.719813,6.531382,0.60333884
1570714967,3.6583402,17.228676,-2.72939,-0.47405714,0.09055024,-0.14914156,-0.45968673,13.043611,1.4077905
1570714967,3.2465374,3.3806129,-1.6424223,-0.79045033,0.02130594,0.30254433,-0.39264908,-3.6152446,0.16759412
1570714967,-3.9121256,5.78918,2.087744,-0.113986775,-0.5443667,-0.5986969,-7.795521,-3.1028855,4.4244847
1570714967,0.30166942,10.879252,-1.2785037,-0.16405573,-0.8639558,-1.5734435,-4.8937483,2.992752,3.371036
1570714967,3.8642416,10.405201,-6.2584434,-0.6210681,-1.3369477,-0.81708276,-0.23942018,2.633622,-3.4093432
1570714967,2.2601264,6.8043213,-3.1268275,-1.2964664,-1.5137869,0.064983115,-1.316811,-1.6089035,0.01436521
1570714967,0.7374141,8.0924015,-2.2936451,-1.0461216,-1.9090121,0.30360964,-3.0023289,-0.6464345,0.1436521
1570714967,3.41892,7.28795,-3.4093432,-0.7339896,-1.6639938,-0.17896989,-0.63206923,-1.0869676,-0.076614454
1570714967,5.731719,7.6949644,-4.10845,-0.4911019,-1.32736,-0.29082605,2.0207062,-1.2066777,-1.7525556
1570714967,4.5441947,9.356541,-1.2162545,-0.60934985,-1.1249535,-0.32704616,1.8626889,0.4309563,1.2880806
1570714967,3.1747115,8.451532,-2.815581,-0.8650211,-0.839454,-0.26099774,0.2873042,-0.1436521,0.20111294
1570714967,3.7780502,7.5944076,-3.083732,-0.93000424,-0.36433154,-0.2759119,0.8714894,-1.4030021,-0.49320555
1570714967,4.0557775,8.6334915,-2.1883004,-0.77873206,-0.07563608,-0.63065577,1.3120226,-0.5315128,0.110133275
1570714967,3.964798,8.968679,-2.5617957,-0.79471153,-0.18323107,-0.9694202,1.4221559,-0.24899697,-0.39264908
1570714967,2.753332,8.576031,-3.620033,-0.98753023,-0.5614115,-1.2602463,0.5554548,-0.78050977,-1.6759412
1570714967,0.6895301,6.3542113,-4.132392,-1.0834069,-0.9534408,-0.9353307,-1.13964,-3.1268275,-2.4420857
1570714967,1.2449849,7.479486,-2.9735985,-0.5933704,-0.26632422,-0.04793836,-0.4357447,-2.0638018,-1.4891934
1570714967,1.5131354,10.477027,-4.9464207,-0.40268224,-0.6072193,-0.11505207,-0.15801731,0.90979666,-3.5817258
1570714967,3.620033,8.456321,-6.540959,-0.11824796,-0.44422883,-0.29189137,2.0398598,-1.1300632,-5.2145715
1570714967,4.19943,7.1826053,-4.572925,0.93000424,0.37285393,-0.057526033,2.6479871,-2.3894134,-3.107674
1570714967,2.15957,7.1826053,-3.8019924,2.1977077,0.92148185,0.21412468,0.545878,-2.2984335,-1.8818425
1570714967,2.1978772,10.759542,-4.1515455,2.5481904,1.1569124,1.6331002,0.25857377,1.4939818,-1.5753847
1570714967,2.8107927,17.630901,-0.36870706,1.8674655,1.2368097,3.8542442,-0.047884032,8.767567,2.705448
1570714967,7.52737,14.705187,0.11971009,1.1153659,-0.08628905,2.500252,3.7541082,6.325481,3.5434184
1570714967,9.23683,9.619903,-1.2449849,1.7662623,1.4690444,0.4112046,5.209783,1.4748282,2.4468741
1570714967,5.3725886,4.7070007,-0.21547815,2.4139628,2.8400817,0.42931467,0.9528923,-3.1172507,3.7110126
1570714967,3.6822822,6.579266,-2.5570073,1.7460216,0.84904164,1.0482522,-1.1348516,-0.89064306,1.5753847
1570714968,0.90021986,8.073248,-4.0940847,0.9726161,0.47405714,1.2602463,-4.223372,0.94331545,0.2777274
1570714968,1.5370775,9.624691,-3.1507695,0.68498594,1.2730298,1.1217576,-3.9695864,2.791639,1.2210429
1570714968,3.5817258,9.093178,-0.40222588,0.85756403,0.9246777,0.3398297,-2.231396,2.4851813,3.9217024
1570714968,2.9975405,6.7324953,-1.091756,0.54223615,0.29082605,-0.21945117,-2.336741,0.5363012,3.6391866
1570714968,1.6950948,6.157887,-2.7629087,-0.005326485,0.0031958907,-0.6370476,-3.86903,-0.22505496,1.7812861
1570714968,2.1164744,5.9902925,-2.1691468,-0.37285393,-0.11505207,-1.0961906,-3.8067808,-0.6703765,2.1787236
1570714968,4.367024,5.070919,-2.6384103,-0.89591473,0.22903883,-1.485024,-1.5849615,-1.6567876,1.6136919
1570714968,10.175357,5.765238,-1.9919758,-1.1153659,0.42931467,-1.4658486,3.7493198,-2.087744,2.5139117
1570714968,13.627796,7.4363904,-10.539276,-0.15020686,-0.02130594,-0.4452941,9.797073,-0.4213795,-5.521029
1570714968,7.5944076,7.551312,-8.336611,1.0748847,0.5688686,0.5869786,2.873042,0.05746084,-6.0956373
1570714968,5.865794,5.463568,1.7477672,-0.10652969,1.2208303,-0.15020686,1.2785037,-1.8722657,4.501099
1570714968,5.913678,13.52724,-2.9400797,-0.8405193,0.17790459,-0.8437152,1.0199299,3.845088,2.6910827
1570714968,3.7253778,22.539015,-0.62728083,-0.5912398,0.35474387,-0.9832691,-0.25857377,15.773001,1.3359646
1570714968,7.3549876,4.673482,-4.2185836,-1.0162933,0.31958908,0.3781804,2.7006595,-0.46447513,-2.2505496
1570714968,-2.2266076,4.012682,1.3694834,-0.070309594,-0.7552955,-0.10120321,-5.377377,-4.7022123,3.9121256
1570714968,-1.1109096,11.382035,0.92416185,0.0,-0.6114804,-1.5830313,-7.503428,2.1068976,5.0182467
1570714968,5.3199162,9.763555,-7.85777,-0.527322,-1.4765016,-1.0493175,-0.095768064,1.6136919,-3.7732618
1570714968,3.8259344,7.2592196,-2.2744915,-0.88419646,-0.6988348,-0.243953,0.5267244,-1.316811,0.05267244
1570714968,-0.25857377,9.423578,-2.360683,-0.94704896,-1.6959528,-0.044742472,-3.715801,0.80445176,0.90979666
1570714968,1.3790601,7.417237,-2.5713725,-0.5901745,-1.5436152,-0.22158176,-2.6910827,-0.7134721,1.0007763
1570714968,4.7070007,7.4842744,-4.2521024,-0.5134731,-1.3934084,-0.2418224,0.93373865,-1.4556746,-1.3311762
1570714968,4.572925,9.380483,-1.2593501,-0.556085,-1.3891472,-0.23436533,1.7238252,0.33039984,1.6807296
1570714968,2.8682537,8.585608,-2.4420857,-0.84478045,-1.1505207,-0.15872924,-0.009576807,0.12928689,0.7182605
1570714968,3.7014358,7.9583263,-3.3518825,-0.9310695,-0.64237404,-0.1747087,0.79966336,-0.9864111,-0.45968673
1570714968,3.6296098,8.944737,-2.2026656,-0.84158456,-0.33450323,-0.4825795,0.7565677,-0.46447513,0.5315128
1570714968,3.3758245,9.572019,-2.3558946,-0.92574304,-0.35474387,-0.82027864,0.78529817,0.4357447,0.10534488
1570714968,2.5713725,8.987833,-3.5913026,-1.080211,-0.7936462,-1.1143006,0.2825158,-0.30645782,-1.2449849
1570714968,1.3694834,6.751649,-4.984728,-1.2826176,-1.2176344,-0.886327,-0.5602432,-2.657564,-3.0214825
1570714968,2.2601264,6.3206925,-4.0462008,-0.7840586,-0.63917816,-0.12677033,0.51235914,-3.1747115,-2.327164
1570714968,2.5617957,9.332599,-3.5817258,-0.5475626,-0.46766534,0.0063917814,0.81881696,-0.18674773,-2.0111294
1570714968,3.2321723,9.208099,-7.16824,-0.13209683,-0.6455699,-0.23649593,1.5705963,-0.33518824,-5.659893
1570714968,4.285621,6.789956,-5.085284,0.5986969,0.014914157,0.1043991,2.6431987,-2.743755,-3.4811692
1570714968,3.2082303,6.081272,-4.185065,1.9239262,0.60402334,0.4570124,1.460463,-3.3614593,-2.1978772
1570714968,2.8491,10.01734,-4.8219223,2.2829313,1.062101,1.7577399,0.7422025,0.78529817,-2.2601264
1570714969,3.3518825,17.458519,-1.9009962,1.7896988,1.3657106,3.871289,0.30166942,8.628703,1.0965444
1570714969,8.863335,15.021221,0.641646,1.140933,-0.035154797,2.3415227,4.9176903,6.6846113,3.9839516
1570714969,7.7572136,8.461109,-0.92416185,1.7620012,1.5276358,0.29295665,3.596091,0.34476504,2.6862943
1570714969,5.6215854,5.161899,-0.5506664,2.4778807,2.5588431,0.29934844,1.1444284,-2.657564,3.3135753
1570714969,3.9360676,6.943185,-2.006341,1.6032718,0.84158456,1.0578399,-0.91458505,-0.5315128,2.078167
1570714969,2.3558946,7.7332716,-3.9839516,0.9481143,0.66368,1.2389404,-2.825158,0.58418524,0.29688102
1570714969,1.5801731,9.021352,-1.9488802,0.6828553,1.3454701,1.0429257,-3.98874,2.15957,2.303222
1570714969,3.4763808,8.528147,-1.1252748,0.84158456,0.98539966,0.39415985,-2.6623523,2.1883004,2.8921957
1570714969,2.5378537,6.5744777,-1.2689269,0.52945256,0.32491556,-0.16938221,-2.8921957,0.090979666,3.2561142
1570714969,1.3311762,6.244078,-2.528277,-0.053264845,-0.019175345,-0.6157416,-4.4484267,-0.4261679,1.7381904
1570714969,2.1978772,6.009446,-2.3511062,-0.34302562,-0.04154658,-1.0280116,-3.7972038,-0.7613561,1.8483237
1570714969,5.070919,5.1810527,-3.0933087,-0.81282157,0.2418224,-1.4392161,-0.8571242,-1.6280571,1.2114661
1570714969,10.989386,5.7508726,-3.4763808,-0.8479764,0.72759783,-1.4658486,4.6830587,-1.934515,0.35434186
1570714969,11.554418,6.2105594,-6.95755,-0.40268224,0.1395539,-0.62639457,7.5944076,-1.4077905,-1.9009962
1570714969,7.153875,8.748413,-8.920795,0.68498594,0.33876443,0.3835069,1.9153614,0.272939,-5.947197
1570714969,7.067683,10.5680065,0.16759412,-0.12890093,0.9150901,0.14807628,1.757344,2.3175871,2.753332
1570714969,7.7093296,15.931018,-2.0638018,-0.7414467,0.59656626,-0.26206306,3.2992098,7.4363904,0.92895025
1570714969,4.223372,14.111424,-3.5529952,0.03728539,0.0010652969,0.10866029,-0.6751649,8.355764,0.15322891
1570714969,1.0869676,4.936844,-1.4173675,-0.25993246,-0.064983115,-0.091615535,-2.896984,-2.4277205,1.8531121
1570714969,-1.934515,7.2304893,1.2354081,0.2823037,-0.053264845,-1.2890093,-7.632715,-1.5227122,3.916914
1570714969,2.4468741,8.451532,-2.2409728,-0.28763017,-0.89165354,-1.3657106,-2.2649148,0.8714894,2.2697031
1570714969,3.5098996,9.80665,-4.9655743,-0.5283873,-0.9044371,-0.6935083,-0.44532153,1.8339585,-2.4756045
1570714969,2.1260512,7.359776,-3.0693667,-0.9065677,-1.3976696,-0.02130594,-1.7286136,-0.9959879,-0.16280572
1570714969,1.460463,8.762778,-0.50757074,-1.0972558,-1.3209682,-0.120378554,-2.8060043,0.19153613,2.6527755
1570714969,3.241749,8.336611,-2.8921957,-1.0237503,-1.1878061,-0.40481284,-0.51714754,-0.18195933,0.16759412
1570714969,4.43885,8.030152,-3.0454245,-0.742512,-1.1292148,-0.37604982,1.0486604,-0.78050977,-0.5363012
1570714969,2.4181437,9.308656,-2.8107927,-0.8639558,-1.1792837,-0.40161693,-0.641646,0.35913026,0.6751649
1570714969,3.5290532,8.686164,-3.4620156,-1.1260189,-0.6413088,-0.3781804,0.29688102,0.21547815,-0.8571242
1570714969,3.9073372,7.704541,-2.2601264,-1.0333381,-0.3100014,-0.50068957,0.89543146,-1.292869,0.21068975
1570714969,3.821146,8.767567,-2.7102363,-0.8639558,-0.13635801,-0.9044371,1.0869676,-0.29688102,-0.1436521
1570714969,2.873042,8.207323,-3.3997664,-0.85543346,-0.33450323,-1.0897988,0.34955344,-1.0486604,-1.3742718
1570714969,2.1739352,7.369353,-4.4963107,-0.88845766,-0.7840586,-1.0471869,0.02873042,-1.8004397,-2.5761611
1570714969,1.5705963,7.0964136,-4.6351743,-0.73931605,-0.7766015,-0.33130735,-0.08619126,-1.8626889,-2.705448
1570714970,2.2409728,9.141062,-4.027047,-0.47831833,-0.32811147,-0.1395539,0.33518824,-0.35434186,-2.4899697
1570714970,2.7629087,10.338163,-6.229713,-0.27165073,-0.4825795,-0.23330003,0.94331545,0.80924016,-4.7788267
1570714970,4.9655743,6.655881,-6.3542113,0.117182665,-0.08628905,-0.057526033,3.1842883,-2.873042,-4.879383
1570714970,3.8259344,6.009446,-3.6391866,1.5276358,0.8650211,0.15127216,1.9919758,-3.4715924,-1.9393034
1570714970,2.456451,8.537724,-3.4955344,2.6057162,1.1313454,0.74890375,0.45010993,-0.78529817,-1.2210429
1570714970,1.9249382,15.44739,-2.858677,2.2435153,1.392343,2.83369,-0.6991069,6.445191,0.009576807
1570714970,4.2664676,17.985243,0.009576807,1.6448184,0.36859274,3.3152041,0.641646,9.481039,3.2800562
1570714970,6.157887,11.401189,-2.054225,1.266638,-0.07883197,0.8266704,2.0446482,3.2513258,1.532289
1570714970,8.154651,6.8522053,-1.541866,2.2104912,1.6650591,0.5305179,3.8115692,-1.0199299,2.3702598
1570714970,6.6079965,4.8841715,-0.1436521,2.0751984,1.8749226,0.71374893,1.8722657,-2.0829554,4.1132383
1570714970,3.5338416,7.4507556,-3.7445314,1.4136491,0.30147904,1.1419983,-0.79008657,-0.10534488,1.532289
1570714970,1.7238252,8.51857,-3.3375173,0.7126837,0.88313115,1.2730298,-3.6583402,1.6759412,1.1779473
1570714970,2.27928,9.035717,-2.0733786,0.6967042,0.88739234,0.8405193,-3.7349546,2.384625,2.3223755
1570714970,3.8833952,6.7564373,-0.6751649,0.6796594,0.53371376,-0.04900366,-2.183512,0.32561144,3.8498764
1570714970,2.3702598,6.277597,-1.9680338,0.14701098,0.18962285,-0.4516859,-3.371036,0.023942016,2.8491
1570714970,1.460463,5.281609,-2.8778305,-0.15872924,-0.15020686,-0.8564987,-4.19943,-1.067814,1.7381904
1570714970,2.896984,4.9416323,-3.169923,-0.5262567,-0.09055024,-1.392343,-3.0502129,-1.7669208,1.3742718
1570714970,7.819463,5.7365074,-3.5865142,-0.9097636,0.33450323,-1.7204546,1.5801731,-1.6376339,0.8331822
1570714970,16.414646,8.159439,-4.223372,-0.8948494,1.4221714,-1.0599705,10.041282,0.47405192,-0.1388637
1570714970,8.532935,6.172252,-9.351752,-0.26525894,0.31958908,0.094811425,5.544971,-1.460463,-4.8219223
1570714970,7.2831616,11.171345,-2.0973208,0.5177343,0.4825795,0.5145384,2.1404164,2.4756045,-0.30645782
1570714970,5.0374002,18.315643,-0.8283938,-0.71907544,0.7041613,0.20347172,0.2681506,10.036493,3.4045548
1570714970,4.5920787,12.186486,-3.5098996,-0.42611876,-0.1033338,-0.25886714,-1.2641385,7.1586633,0.22984336
1570714970,2.9783869,5.118803,-1.2018893,-0.45807767,-0.67539823,-0.08628905,-1.4508862,-2.480393,1.6328455
1570714970,-1.9728222,6.0285997,0.22505496,-0.25354066,-0.77020967,-0.7563608,-6.703765,-2.2697031,2.930503
1570714970,2.3319526,8.374918,-2.3702598,-0.3451562,-0.43570644,-1.2176344,-3.1890767,0.92895025,2.1260512
1570714970,5.233725,10.46745,-5.3199162,-0.4218576,-1.3039235,-0.9150901,0.7469909,1.5993267,-1.8722657
1570714970,1.8483237,7.5704656,-2.8778305,-1.1260189,-0.8650211,-0.30360964,-2.183512,0.0,0.61770403
1570714970,0.7757214,6.7229185,-3.241749,-0.72014076,-1.5233747,0.063917816,-3.2273839,-1.6663644,0.023942016
1570714970,3.6822822,7.153875,-3.0214825,-0.6551576,-1.348666,-0.11505207,-0.7326257,-1.5514427,0.51714754
1570714970,5.683835,8.240842,-4.43885,-0.4836448,-1.237875,-0.23969181,2.0207062,-0.25857377,-1.1971009
1570714970,5.0613422,8.552089,-2.542642,-0.4932325,-0.9491796,-0.3398297,1.2114661,0.12449849,0.9720459
1570714970,3.2273839,8.815451,-2.9113493,-0.742512,-0.7414467,-0.35580918,-0.08619126,0.1340753,0.22984336
1570714971,3.7062242,7.8865004,-3.2369606,-0.87460876,-0.54543203,-0.2737813,0.51714754,-0.89064306,-0.24899697
1570714971,3.7828386,8.571242,-2.1068976,-0.81069094,-0.3856375,-0.5784562,0.7469909,-0.320823,0.6943185
1570714971,3.8498764,9.016563,-2.6671407,-0.98539966,-0.3185238,-0.88845766,1.0486604,-0.01436521,-0.07182605
1570714971,3.3662477,7.9631147,-3.86903,-1.1132354,-0.46446946,-1.0301422,0.8571242,-1.2258313,-1.5370775
1570714971,2.1021092,6.7133417,-4.687847,-1.1430637,-0.72759783,-0.91828597,0.0,-2.3175871,-2.4756045
1570714971,2.0398598,6.5840545,-2.5378537,-0.6903124,-0.28763017,-0.40481284,0.047884032,-2.8395233,-0.6991069
1570714971,1.8435353,9.974244,-3.0693667,-0.54330146,-0.33769912,-0.29082605,-0.06703765,0.50278234,-1.3742718
1570714971,1.7429788,9.859323,-6.933608,-0.2801731,-0.81175625,-0.5688686,0.009576807,0.33997664,-5.3247046
1570714971,3.4380736,7.0245876,-4.3718123,0.32598087,-0.22051647,-0.050068956,1.8100165,-2.504335,-2.7246015
1570714971,3.1890767,7.675811,-4.697424,1.7769153,0.36646214,0.574195,1.4652514,-1.7717092,-2.7150247
1570714971,2.992752,10.553641,-4.060566,2.281866,0.9012412,1.5766394,0.91937345,1.3120226,-1.5131354
1570714971,3.9552212,15.696386,-1.0247183,1.7769153,1.4019308,3.4877822,1.0486604,6.823475,1.9776106
1570714971,8.020576,14.441825,1.6807296,1.1579778,0.14807628,2.7271602,4.1946416,6.042965,4.999093
1570714971,8.236053,9.911995,-0.17238252,1.287944,0.51666903,0.81601745,3.4284968,0.6895301,3.4811692
1570714971,5.497087,5.659893,-2.504335,1.9942359,1.9612117,0.5539544,1.5275006,-1.4796166,1.8531121
1570714971,5.1523223,7.062895,-2.7389667,1.8344413,0.8479764,1.1920673,-0.090979666,-0.4213795,1.3024458
1570714971,2.0446482,7.73806,-4.759673,1.384886,0.23223473,1.3731678,-2.6719291,0.5554548,-0.79966336
1570714971,2.1787236,8.623915,-1.8148049,0.8011033,1.054644,1.2602463,-3.241749,1.3024458,1.8579005
1570714971,4.3526587,9.141062,-1.2018893,0.6711371,0.85330284,0.4548818,-1.0821792,2.2936451,3.2225955
1570714971,4.213795,6.6271505,-1.7142484,0.6285252,0.31958908,0.04154658,-1.2880806,0.6703765,2.9017725
1570714971,2.504335,6.6750345,-2.4133554,0.13316211,0.13209683,-0.36326626,-3.169923,0.35913026,1.934515
1570714971,1.9297266,6.14831,-2.1308396,-0.20240642,0.0021305939,-0.8096257,-3.9743748,-0.29209262,2.231396
1570714971,3.8115692,5.3821654,-2.7820623,-0.6370476,0.057526033,-1.2698339,-2.1547816,-1.283292,1.7717092
1570714971,7.07726,4.9176903,-3.9456444,-0.8042992,0.33343795,-1.5116564,1.0151415,-2.3558946,0.29688102
1570714971,12.373235,6.291962,-5.233725,-0.6551576,0.7808626,-1.219765,6.5744777,-1.3359646,-1.0534488
1570714971,9.730036,5.5880666,-9.394848,0.05219955,0.4175964,-0.25141007,5.48751,-1.8339585,-4.8458643
1570714971,7.9152308,6.5505357,-5.3678,0.6413088,0.6626147,0.28336897,3.3758245,-0.78529817,-2.8682537
1570714971,5.923255,8.983045,1.5993267,-0.72014076,0.72759783,-0.29295665,0.5363012,0.521936,5.6790466
1570714971,4.841076,20.561403,-2.4181437,-0.3163932,-0.070309594,-1.0407951,-0.08619126,10.951078,0.1388637
1570714971,7.07726,12.167333,-4.7405195,-0.3504827,-0.243953,0.30467492,0.61291564,6.215348,-1.0199299
1570714971,1.8100165,4.7261543,-0.5746084,-0.30041373,-0.22797355,0.30680552,-1.0007763,-3.4620156,2.0973208
1570714971,-3.0789435,9.950302,2.4756045,0.040481284,0.11505207,-1.3454701,-8.992621,1.0151415,6.2392898
1570714971,0.46447513,9.222465,-3.3327289,-0.46766534,-1.4445426,-1.7236505,-4.4915223,0.78050977,1.0390835
1570714971,2.5330653,9.260772,-4.548983,-0.9193513,-0.9619631,-0.742512,-1.1683705,1.8052281,-2.0159178
1570714972,1.7908629,6.0477533,-3.1268275,-1.1068435,-1.4775668,0.116117366,-2.030283,-2.3989902,0.05267244
1570714972,1.2497733,7.967903,-0.9911995,-0.92574304,-1.6032718,0.26099774,-2.4947581,-0.5363012,2.1260512
1570714972,3.145981,7.991845,-4.0940847,-0.79151565,-1.8216578,-0.053264845,-0.45968673,-0.58897364,-1.0055647
1570714972,5.267244,8.121132,-3.715801,-0.55075854,-1.4679792,-0.23436533,1.8483237,-0.5363012,-0.62249243
1570714972,4.0462008,9.414001,-1.5035586,-0.73612016,-1.4232367,-0.28336897,0.8331822,0.6703765,1.5658079
1570714972,3.98874,8.743625,-2.6527755,-1.0514481,-0.8064298,-0.1725781,0.92895025,-0.10055647,0.2681506
1570714972,4.0318356,8.030152,-2.7581203,-0.93426543,-0.36220095,-0.31319728,1.0821792,-0.91937345,-0.05267244
1570714972,3.7014358,9.083601,-2.4420857,-0.91828597,-0.23010413,-0.7797974,0.93373865,0.0047884034,0.038307227
1570714972,3.5290532,8.192958,-3.787627,-0.91615534,-0.31745848,-0.98113847,1.0295067,-1.0199299,-1.532289
1570714972,2.753332,7.1490865,-4.6830587,-1.0024444,-0.6615494,-0.89698005,0.5506664,-2.1883004,-2.6623523
1570714972,1.733402,6.7803793,-4.4340615,-0.8319969,-0.53904027,-0.50495076,-0.22984336,-2.657564,-2.6384103
1570714972,2.8491,8.5473,-2.858677,-0.42611876,-0.23436533,0.0010652969,0.92895025,-0.92416185,-1.1923125
1570714972,2.9831753,9.615114,-6.4404025,-0.28123838,-0.43357584,-0.21305938,1.115698,0.11492168,-4.8602295
1570714972,4.175488,7.9583263,-6.1387334,0.054330144,0.018110048,-0.009587673,2.4612393,-1.7525556,-3.98874
1570714972,3.4380736,6.8905125,-3.9121256,1.0684928,0.50921196,0.25141007,1.8770541,-2.2457612,-2.4181437
1570714972,1.8962077,7.632715,-3.715801,2.2509725,0.6967042,0.818148,-0.19632454,-1.661576,-1.3934253
1570714972,2.2649148,12.306197,-3.9935284,2.1753364,0.9491796,2.3447185,-0.33039984,1.9967642,-1.2593501
1570714972,4.9703627,19.469648,-1.0534488,1.628839,0.85862935,3.6571643,0.58897364,10.299856,0.9720459
1570714972,8.0684595,13.081918,-1.3551182,1.1185617,-0.40161693,1.2922052,4.4244847,5.7125654,2.906561
1570714972,7.5800424,7.905654,-0.6895301,2.0315213,2.2467113,0.33343795,3.4093432,0.521936,3.0214825
1570714972,5.8945246,3.3039982,0.062249243,2.1923811,2.2264707,0.4857754,1.2497733,-4.0462008,4.256891
1570714972,3.4955344,6.4978633,-4.309563,1.3763636,0.11824796,1.0834069,-0.89543146,-1.3072342,0.47884035
1570714972,2.006341,7.9583263,-3.86903,0.99392205,1.0322727,1.1654348,-3.193865,0.6751649,0.272939
1570714972,1.4939818,10.151415,-1.757344,1.0035098,1.3699719,0.66794115,-4.4963107,3.5625722,2.4899697
1570714972,4.1802764,7.2209125,-0.8475474,1.0429257,0.6295905,-0.1725781,-1.7812861,1.2737153,3.5003228
1570714972,2.9400797,6.7468605,-2.5187001,0.487906,0.14807628,-0.50068957,-2.834735,0.33518824,2.0973208
1570714972,2.8491,6.7133417,-2.327164,-0.0010652969,-0.014914157,-0.74783844,-3.0789435,0.05267244,2.054225
1570714972,4.43885,6.679823,-3.098097,-0.39522517,0.10652969,-1.0514481,-1.508347,0.15322891,1.5658079
1570714972,6.564901,5.2385135,-4.0653543,-0.6540923,0.487906,-1.2932705,0.7086837,-1.6567876,0.33518824
1570714972,10.060435,5.267244,-4.237737,-0.574195,0.75742614,-1.2762257,4.4340615,-1.9728222,0.047884032
1570714972,9.208099,6.229713,-8.121132,-0.15127216,0.54649734,-0.5603462,4.960786,-1.2593501,-3.1316159
1570714972,7.513005,7.493851,-6.799533,0.7052266,0.8405193,0.26206306,2.5474305,0.22984336,-4.0797195
1570714972,7.0102224,9.299079,2.3798366,-0.4548818,0.81282157,-0.117182665,1.4269443,0.89543146,5.7269306
1570714973,6.3542113,20.973207,-4.4915223,-0.487906,0.020240642,-0.80323386,2.0446482,11.453861,-0.6847417
1570714973,2.633622,12.354081,-3.8402996,-0.34302562,-0.009587673,-0.10972559,-2.4277205,4.6926355,-0.39264908
1570714973,2.8443117,3.7349546,-0.6512229,-0.56354207,-0.25141007,0.01065297,-2.2122424,-3.9791632,2.6623523
1570714973,-1.2785037,8.346188,2.8443117,-0.05539544,-0.21945117,-1.2740952,-7.177817,-0.6847417,6.229713
1570714973,2.15957,8.695741,-2.7629087,-0.32278496,-0.95450604,-1.3912778,-2.360683,0.6607997,0.5746084
1570714973,4.3047748,9.725247,-5.4204726,-0.5177343,-0.9491796,-0.7307937,0.17717093,1.5035586,-2.0207062
1570714973,2.633622,6.3685765,-3.1651347,-0.96835494,-1.2389404,0.08522376,-1.3455414,-1.9632454,0.12449849
1570714973,0.7469909,8.058883,-1.8674773,-0.789385,-1.6458838,0.16299044,-3.1555579,-0.16759412,1.3934253
1570714973,3.4237084,7.7907324,-3.2752678,-0.6604841,-1.5681171,-0.25567126,-0.25378537,-0.6943185,-0.019153614
1570714973,5.209783,8.561666,-3.3327289,-0.40055165,-1.2559851,-0.25567126,1.733402,0.0,-0.047884032
1570714973,3.2513258,9.873688,-1.8531121,-0.68498594,-1.248528,-0.23543063,-0.033518825,1.2306197,1.4173675
1570714973,2.1499932,8.628703,-3.5242648,-0.9065677,-0.7808626,-0.18642697,-0.9864111,-0.10534488,-0.36870706
1570714973,3.0310593,7.723695,-2.7485435,-0.8426499,-0.5358444,-0.30680552,0.0047884034,-1.115698,0.22505496
1570714973,3.4476504,8.614338,-2.255338,-0.818148,-0.46446946,-0.60189277,0.60333884,-0.33997664,0.5410896
1570714973,3.5003228,9.155427,-3.2800562,-0.9353307,-0.48044893,-0.7968421,0.89064306,0.062249243,-0.6751649
1570714973,2.8299465,8.063671,-3.9791632,-1.1633042,-0.760622,-0.8810006,0.50278234,-1.1683705,-1.6232687
1570714973,1.5227122,6.196194,-3.8259344,-1.0919293,-0.85117227,-0.6210681,-0.5267244,-3.1603463,-1.7429788
1570714973,3.241749,7.7907324,-3.763685,-0.6604841,-0.66900647,-0.040481284,1.3120226,-1.6328455,-1.8674773
1570714973,2.5091233,8.829816,-4.6926355,-0.60508865,-0.63385165,-0.23969181,0.641646,-0.6368576,-2.9400797
1570714973,4.2904096,9.11712,-6.6415157,-0.12996623,-0.54330146,-0.2759119,2.542642,-0.38307226,-4.951209
1570714973,5.2480903,7.7093296,-4.903325,0.50388545,0.11292148,0.04900366,3.4476504,-1.8387469,-2.6288335
1570714973,3.3279405,7.1251445,-4.1276035,1.8014171,0.7371855,0.3824416,2.0111294,-2.2218192,-2.2026656
1570714973,2.930503,10.13705,-3.9791632,2.152965,1.2783563,1.3507965,0.7565677,0.05746084,-1.3790601
1570714973,2.825158,15.868769,-1.9249382,1.6821039,1.4328244,3.3098776,-0.10055647,6.469133,0.91937345
1570714973,6.8426285,14.800955,2.0494366,1.0130974,0.41440052,2.6952012,2.4420857,7.752425,5.1235914
1570714973,7.4268136,9.169792,-1.067814,1.4988728,0.91828597,0.71587956,3.6008794,2.231396,2.1739352
1570714973,5.4683566,5.746084,-1.1492168,2.0666761,2.2839966,0.41440052,1.091756,-1.8674773,2.1404164
1570714973,4.721366,7.0581064,-2.1260512,1.6757121,0.5869786,1.2634422,0.2825158,-1.0582372,2.3989902
1570714973,1.70946,7.4842744,-4.2760444,1.0184239,0.2087982,1.4093878,-3.4332852,0.33039984,-0.40701428
1570714973,2.1547816,8.834604,-2.0254946,0.68498594,1.062101,1.2549198,-3.3854012,1.8148049,2.0446482
1570714973,4.4101195,8.322245,-0.6895301,0.78192794,0.6828553,0.42824936,-1.8579005,2.207454,3.514688
1570714973,3.2465374,6.081272,-1.7812861,0.43357584,-0.011718267,-0.026632423,-2.2026656,-0.3878607,2.8443117
1570714973,2.3319526,5.8083334,-2.5474305,-0.05113425,-0.113986775,-0.409074,-3.466804,-0.6368576,1.8148049
1570714974,2.873042,5.267244,-2.327164,-0.36433154,-0.023436533,-0.88952297,-3.0597897,-1.292869,2.054225
1570714974,5.3486466,4.3766007,-3.739743,-0.63065577,0.089484945,-1.3103153,-0.545878,-2.432509,0.79487497
1570714974,10.055647,5.463568,-4.548983,-0.63491696,0.6370476,-1.5276358,3.7349546,-1.9632454,-0.3878607
1570714974,12.689269,6.8043213,-5.985504,-0.4218576,0.5347791,-0.9960526,8.293514,-0.90021986,-0.93373865
1570714974,8.025364,8.78672,-9.370906,0.6668759,0.6168069,0.2109288,3.0023289,0.7230489,-5.93762
1570714974,6.8665705,7.824251,0.076614454,0.040481284,1.0344033,0.2077329,1.9153614,0.07182605,2.1547816
1570714974,6.6510925,13.972561,-3.572149,-0.63811284,0.68924713,-0.28976077,1.7956513,4.8506527,0.50757074
1570714974,3.098097,17.295713,0.5554548,-0.30254433,0.11505207,-0.29189137,-2.0925324,9.677363,3.892972
1570714974,5.473145,6.1195793,-1.70946,-0.52945256,-0.46553475,0.1725781,0.29688102,-0.47884035,1.3311762
1570714974,-1.7238252,7.043741,1.0390835,-0.0074570784,0.5443667,-0.7339896,-7.560889,-0.6512229,4.2999864
1570714974,1.1587936,7.843405,-0.7134721,-0.33769912,-0.41440052,-1.5159175,-3.6631286,-0.06703765,2.4899697
1570714974,1.6663644,9.193734,-5.0038815,-0.6125457,-1.5585294,-1.4264326,-2.9113493,0.62249243,-0.9624691
1570714974,2.4516625,6.9527617,-3.5051112,-0.9353307,-1.1004517,-0.46340418,-1.5753847,-1.4030021,-0.32561144
1570714974,0.770933,8.441956,-1.5610195,-0.7979074,-1.5819659,0.012783563,-2.7629087,-0.009576807,1.5801731
1570714974,3.5434184,7.8386164,-3.2992098,-0.8650211,-1.4711751,0.05113425,-0.18195933,-0.6895301,-0.21068975
1570714974,4.6591167,7.8912888,-3.787627,-0.63811284,-1.2453321,-0.05646074,1.0486604,-0.6991069,-0.7374141
1570714974,3.4811692,9.083601,-2.3894134,-0.6285252,-1.3699719,-0.3472868,0.05267244,0.40701428,0.6368576
1570714974,3.739743,9.078813,-3.1603463,-0.8224092,-0.93426543,-0.29934844,0.15322891,0.59855044,-0.090979666
1570714974,4.1802764,7.929596,-2.7006595,-0.9619631,-0.4538165,-0.32598087,1.0582372,-0.9528923,0.033518825
1570714974,4.0940847,8.676587,-2.3750482,-0.87993526,-0.28336897,-0.5976316,1.1252748,-0.320823,0.14844051
1570714974,3.9217024,8.595184,-3.3662477,-0.9065677,-0.28976077,-0.81282157,1.1731589,-0.5315128,-1.0582372
1570714974,2.777274,8.145074,-4.343082,-0.98753023,-0.574195,-0.95024484,0.31603462,-1.115698,-2.255338
1570714974,1.1779473,6.0238113,-4.3766007,-1.0099015,-0.7648832,-0.54649734,-1.0295067,-3.347094,-2.5330653
1570714974,2.4756045,7.666234,-3.739743,-0.6370476,-0.56673795,-0.13209683,0.37828386,-1.7669208,-2.0733786
1570714974,3.0023289,8.748413,-4.793192,-0.5784562,-0.58484805,-0.18749227,0.9720459,-0.41180268,-2.9592333
1570714974,5.142745,6.871359,-6.4787097,0.018110048,-0.35580918,0.031958908,3.1507695,-2.60968,-4.975151
1570714974,4.912902,6.5361705,-4.0462008,1.0684928,0.4538165,0.3100014,3.1507695,-3.1411927,-2.920926
1570714974,2.3319526,7.5465236,-3.7205894,2.174271,0.6828553,0.674333,0.37349546,-2.3080103,-1.6280571
1570714974,2.4516625,14.958972,-4.146757,2.3543062,1.1260189,2.4022446,-0.15801731,4.3287168,-1.5514427
1570714974,5.746084,19.364304,0.45010993,1.9569504,0.79151565,3.2736576,1.7717092,11.056423,1.5658079
1570714974,7.019799,11.080365,-1.4891934,1.1771531,-0.40587813,0.8309316,3.289633,4.0318356,2.72939
1570714974,7.359776,6.2488666,-1.4987702,1.912208,1.754544,0.4506206,2.9257145,-1.4221559,2.5474305
1570714974,6.1387334,5.1762643,-0.6560113,2.1774669,2.0826554,0.5869786,1.292869,-3.1364043,3.3375173
1570714974,3.7684734,8.149862,-3.2944214,1.4828933,0.44849002,1.1707613,-0.6943185,0.61770403,1.2880806
1570714975,2.0829554,7.9487495,-3.1794999,0.9917914,0.7307937,1.1356065,-3.3901896,0.8619126,1.0582372
1570714975,1.7142484,8.983045,-2.3175871,0.87993526,1.140933,0.6967042,-4.146757,2.030283,1.9967642
1570714975,3.4524388,7.7811556,-1.0582372,0.907633,0.8735435,-0.09055024,-2.585738,1.5849615,2.9831753
1570714975,2.7150247,6.3589997,-1.8291701,0.50068957,0.19707993,-0.49642837,-3.145981,-0.009576807,2.8203697
1570714975,2.4660277,6.019023,-2.60968,0.09055024,-0.053264845,-0.7808626,-3.3854012,-0.48362875,1.8866309
1570714975,3.86903,6.215348,-2.6767175,-0.33876443,0.14061919,-1.140933,-2.0829554,-0.2873042,1.934515
1570714975,6.143522,5.884948,-3.86903,-0.6359823,0.4847101,-1.384886,0.7422025,-1.0582372,0.45968673
1570714975,11.722012,6.172252,-4.295198,-0.5443667,1.0088362,-1.2453321,5.9519854,-1.1540052,-0.11971009
1570714975,9.524135,5.8705826,-7.2209125,-0.31532788,0.46446946,-0.63917816,4.4340615,-1.5801731,-3.3758245
1570714975,7.61835,7.053318,-6.3302693,0.67752886,0.75209963,0.23969181,2.6862943,-0.40222588,-3.7349546
1570714975,6.655881,8.686164,1.9871874,-0.54543203,0.9459837,-0.091615535,1.1109096,0.51714754,5.3007627
1570714975,6.7324953,19.953278,-2.96881,-0.54543203,-0.029828314,-0.7936462,1.6759412,10.127473,0.33039984
1570714975,4.783615,12.492945,-4.185065,-0.6231987,-0.050068956,0.17151281,-1.0199299,7.920019,-0.01436521
1570714975,3.892972,3.7205894,-1.1204864,-0.5816521,-0.064983115,0.39522517,-1.292869,-3.9456444,2.111686
1570714975,-4.3622355,9.557653,2.360683,0.18003519,-0.11079088,-1.1206924,-9.734824,0.4261679,5.6790466
1570714975,1.4413095,10.457873,-1.9776106,-0.4847101,-1.0344033,-1.6320349,-3.2848446,2.5187001,1.3120226
1570714975,3.217807,7.8386164,-5.9567738,-0.868217,-1.266638,-0.82560515,-1.0534488,-0.34476504,-2.6527755
1570714975,1.3455414,6.181829,-3.2944214,-0.9321348,-1.4914157,0.07989727,-2.7389667,-2.135628,-0.08619126
1570714975,1.4221559,8.504205,-1.4652514,-0.7467731,-1.7055404,0.2737813,-2.5617957,0.1436521,1.7621324
1570714975,4.6016555,8.030152,-4.175488,-0.7627526,-1.7428257,-0.028763017,0.7565677,-0.3878607,-0.93373865
1570714975,5.434838,8.178593,-3.3423057,-0.56673795,-1.3390783,-0.12890093,1.757344,-0.31603462,-0.095768064
1570714975,3.8355112,9.141062,-1.9536686,-0.7627526,-1.2794216,-0.22158176,0.33997664,0.5602432,1.2593501
1570714975,3.7301662,8.599973,-3.3087866,-1.0961906,-0.74038136,-0.14914156,0.36870706,-0.08619126,-0.23942018
1570714975,4.280833,7.6949644,-2.9735985,-1.0322727,-0.39948636,-0.3835069,1.0342951,-1.115698,-0.1388637
1570714975,4.0078936,8.690952,-2.7964275,-0.9140248,-0.29295665,-0.7510343,0.94810385,-0.25378537,-0.18674773
1570714975,3.667917,8.034941,-3.7445314,-0.89698005,-0.25780186,-0.8085604,0.7278373,-0.866701,-1.1348516
1570714975,3.064578,7.398083,-4.280833,-0.9917914,-0.54330146,-0.84158456,0.7326257,-1.5753847,-1.685518
1570714975,1.3694834,7.062895,-4.3861775,-0.95450604,-0.692443,-0.6540923,-0.8810662,-2.0973208,-2.4947581
1570714975,3.1124623,8.432379,-3.1986535,-0.5944357,-0.43783703,-0.2791078,0.7086837,-0.9768343,-1.7190368
1570714975,2.9831753,9.825804,-3.3087866,-0.53904027,-0.25354066,-0.25460598,0.9768343,0.08140286,-1.388637
1570714975,4.2042184,9.399636,-6.6989765,-0.14701098,-0.3526133,-0.24927948,1.6903064,0.36870706,-4.912902
1570714975,4.6399627,6.1195793,-4.745308,0.54543203,0.3142626,0.08522376,2.7820623,-3.2034419,-3.5194764
1570714975,2.5570073,6.3446345,-3.8833952,1.9825176,0.9001759,0.30254433,0.92895025,-3.2225955,-1.9440918
1570714976,1.8626889,10.965444,-4.098873,2.4331381,0.9310695,1.4434774,-0.6895301,0.7469909,-1.3742718
1570714976,2.8395233,16.472107,-0.9864111,1.8919674,1.266638,3.5293288,-0.6751649,7.536947,1.6663644
1570714976,7.5465236,14.384364,0.91937345,1.3358823,0.094811425,2.5737574,2.873042,7.2927384,4.8027687
1570714976,8.42759,9.294291,-1.2066777,1.6980833,1.072754,0.3856375,4.280833,2.3989902,1.9057846
1570714976,5.6646814,5.085284,-0.62249243,2.3628285,2.2264707,0.3398297,1.982399,-1.5514427,2.8634653
1570714976,5.0661306,6.871359,-1.7286136,1.7886336,1.0674275,0.96835494,0.7326257,-1.043872,2.920926
1570714976,2.2266076,7.28795,-4.0078936,1.0514481,0.6935083,1.162239,-2.8874073,0.20111294,0.06703765
1570714976,1.9057846,8.863335,-2.3463178,0.7883197,1.2186997,1.0993865,-3.739743,2.0590134,1.958457
1570714976,3.2848446,8.7532015,-1.4556746,0.89698005,0.7297284,0.30147904,-3.0214825,2.60968,2.7150247
1570714976,3.0885203,6.7372837,-1.0869676,0.7670138,0.2428877,-0.2066676,-2.944868,0.4309563,3.3806129
1570714976,2.7389667,6.2728086,-2.504335,0.18323107,-0.11824796,-0.5731298,-3.2225955,0.009576807,2.2505496
1570714976,3.691859,6.1004257,-2.4277205,-0.29082605,-0.07883197,-0.94704896,-2.3511062,-0.272939,2.1308396
1570714976,5.5018754,5.3103395,-3.6104562,-0.5944357,0.14274979,-1.180349,-0.090979666,-1.3790601,0.866701
1570714976,9.074024,4.984728,-4.3143516,-0.5528891,0.53690964,-1.2442669,3.6822822,-1.9871874,-0.01436521
1570714976,10.342952,5.57849,-5.5880666,-0.36220095,0.50708133,-1.0514481,5.118803,-1.6328455,-1.4796166
1570714976,7.503428,6.555324,-8.236053,0.2066676,0.4932325,-0.5976316,2.4133554,-0.79487497,-4.209007
1570714976,7.1395097,7.8865004,-4.865018,0.39735577,0.9992485,-0.05646074,2.0015526,0.5506664,-0.8619126
1570714976,8.355764,12.08593,-0.9911995,-0.7382508,0.6828553,-0.23223473,3.1316159,3.5673606,3.3135753
1570714976,5.5641246,17.472883,-1.9919758,-0.5550197,0.23223473,-0.41440052,0.37828386,9.964667,1.5993267
1570714976,2.9640217,5.875371,-1.3838485,-0.487906,-0.16299044,0.050068956,-1.460463,-1.2162545,1.7046716
1570714976,-1.0199299,5.8945246,-0.18674773,-0.14168449,-0.16831692,-0.27165073,-6.1770406,-1.6998832,3.2513258
1570714976,0.2777274,10.6637745,1.5370775,-0.21518998,-0.24075711,-1.4722403,-4.6255975,2.9017725,4.9799395
1570714976,3.0214825,8.920795,-3.9504328,-0.8064298,-1.2336138,-1.2048508,-1.4748282,0.90979666,-0.51714754
1570714976,1.8770541,7.9391727,-3.596091,-1.0269462,-0.82880104,-0.5134731,-2.60968,-0.2681506,-0.25378537
1570714976,0.62728083,7.062895,-3.394978,-0.8224092,-1.7513481,0.1395539,-3.4045548,-1.2497733,-0.11971009
1570714976,3.1986535,7.326257,-2.4516625,-0.72759783,-1.7151281,0.043677174,-0.6943185,-1.043872,0.8475474
1570714976,6.0860605,8.264784,-4.223372,-0.54543203,-1.5180482,-0.12996623,2.3702598,-0.17238252,-0.8858546
1570714976,4.8362875,9.14585,-2.006341,-0.5582156,-1.2708993,-0.21305938,1.3024458,0.62728083,1.3359646
1570714976,3.4093432,9.595961,-2.6048915,-0.82880104,-0.98859555,-0.2098635,0.047884032,0.9864111,0.6751649
1570714976,3.3901896,8.025364,-3.1172507,-1.0099015,-0.674333,-0.2087982,0.062249243,-0.46926352,0.24899697
1570714976,3.5194764,8.413225,-2.432509,-0.88419646,-0.4548818,-0.54649734,0.4357447,-0.4261679,0.47405192
1570714976,3.7014358,8.825027,-3.0119057,-0.94704896,-0.36752746,-0.70948774,0.82360536,-0.15322891,-0.30645782
1570714976,3.964798,8.384495,-3.572149,-1.0162933,-0.40268224,-0.74890375,1.316811,-0.7278373,-1.1061212
1570714977,2.6479871,7.4124484,-4.027047,-1.0099015,-0.6157416,-0.789385,0.545878,-1.5466543,-1.9153614
1570714977,1.0534488,6.612785,-3.8546648,-0.85010695,-0.72333664,-0.5923051,-1.0630256,-2.6431987,-1.8100165
1570714977,2.9017725,8.327033,-3.0214825,-0.50495076,-0.5113425,-0.050068956,0.41180268,-1.4508862,-1.043872
1570714977,3.0693667,9.667787,-3.596091,-0.50495076,-0.39309457,-0.18642697,1.2162545,0.2777274,-1.484405
1570714977,3.6248214,9.390059,-5.683835,-0.03728539,-0.50921196,-0.3472868,1.3982137,0.16280572,-3.787627
1570714977,4.6495395,7.97748,-4.7261543,0.5688686,0.1033338,0.011718267,2.8203697,-1.2641385,-2.7964275
1570714977,2.815581,7.1826053,-4.999093,1.6117942,0.58378273,0.4548818,1.3455414,-2.4037786,-3.1794999
1570714977,2.5330653,9.591172,-4.1515455,2.0176723,0.82560515,1.3390783,-0.023942016,-0.4357447,-1.5849615
1570714977,3.442862,13.493721,-1.8387469,1.7588053,1.2059162,3.1809766,-0.023942016,4.2281604,1.2689269
1570714977,7.0964136,13.062764,2.4420857,1.2432015,0.42718408,2.5215578,2.6910827,5.377377,5.770026
1570714977,8.317456,10.228029,-0.7517793,1.460522,0.36539686,0.60828453,4.8219223,3.1124623,2.8299465
1570714977,5.5018754,6.8665705,-2.1643584,2.0570884,1.5979455,0.53264844,1.5179238,-0.33997664,1.1348516
1570714977,4.0940847,7.3406224,-2.4851813,1.6671897,0.8724782,1.266638,-0.038307227,-0.02873042,2.3654714
1570714977,2.6910827,7.5944076,-4.132392,1.1601083,0.46660006,1.348666,-2.4133554,0.47884035,0.2777274
1570714977,3.2321723,8.5473,-1.5993267,0.6540923,1.13028,1.198459,-2.4277205,1.7046716,2.5761611
1570714977,4.7022123,8.030152,-0.8762778,0.64343935,0.44635943,0.5219955,-1.2354081,1.6663644,3.4763808
1570714977,2.8538885,6.042965,-2.2266076,0.39842105,0.029828314,0.15446806,-3.0310593,-0.37828386,2.2649148
1570714977,1.7238252,5.8322754,-3.0789435,0.07776668,-0.039415985,-0.23756121,-4.1132383,-0.62728083,1.4269443
1570714977,2.0638018,5.133168,-2.0685902,-0.22690825,-0.13103153,-0.7169448,-3.643975,-1.4460979,2.4277205
1570714977,5.023035,4.697424,-3.3806129,-0.7286631,-0.05113425,-1.1398677,-0.47405192,-2.1164744,1.0295067
1570714977,9.064447,5.3486466,-4.1132383,-0.91615534,0.4548818,-1.2123079,2.801216,-1.8435353,0.36391866
1570714977,12.5743475,6.3589997,-4.8267107,-0.5656727,0.67539823,-0.6189375,7.383718,-0.9864111,-0.91458505
1570714977,7.0102224,6.2584434,-9.351752,0.3813763,0.33876443,-0.067113705,1.8387469,-1.1492168,-5.535394
1570714977,7.2687964,7.52737,-3.0310593,0.5944357,0.95557135,-0.094811425,2.0207062,0.20111294,0.8379706
1570714977,8.7292595,11.559206,-1.0151415,-0.7883197,0.8064298,-0.4836448,3.4380736,4.1371803,2.60968
1570714977,7.273585,20.709845,-1.2306197,-0.5614115,0.2418224,-0.49855897,2.087744,13.13459,2.2266076
1570714977,4.9416323,8.418014,-4.55856,-0.5816521,0.17790459,0.32598087,-0.25857377,3.5338416,-1.4700398
1570714977,-2.906561,4.8506527,0.15801731,-0.14594568,-0.09587672,-0.3451562,-8.145074,-2.801216,3.3327289
1570714977,-0.033518825,10.213664,0.91937345,-0.01384886,-0.52519137,-1.7620012,-4.9464207,2.3654714,4.1515455
1570714977,4.2521024,9.581595,-6.2105594,-0.46979594,-1.5350928,-1.3752984,-0.18195933,1.4796166,-2.9113493
1570714977,3.2944214,8.350976,-2.528277,-0.99392205,-0.70948774,-0.42718408,-0.8523358,0.08140286,0.7230489
1570714977,0.39743748,8.413225,-2.3798366,-1.0312074,-1.5255052,0.11079088,-3.6152446,0.023942016,0.7422025
1570714977,1.5801731,7.4507556,-1.8387469,-0.8767394,-1.5489417,-0.019175345,-2.873042,-0.6607997,1.6998832
1570714977,5.0900726,7.3166804,-4.2999864,-0.527322,-1.3049887,-0.2098635,1.3790601,-1.2210429,-1.2258313
1570714978,5.1379566,9.193734,-2.006341,-0.487906,-1.2751604,-0.3451562,1.7621324,0.110133275,0.5602432
1570714978,3.4715924,9.485827,-2.695871,-0.8479764,-0.9694202,-0.3462215,0.16759412,0.7565677,0.31603462
1570714978,3.6343982,7.9966335,-2.9257145,-1.0919293,-0.62213343,-0.18323107,0.45010993,-0.6847417,0.047884032
1570714978,3.53863,7.872135,-2.2984335,-0.9662243,-0.31319728,-0.48151422,0.3878607,-1.2449849,0.35434186
1570714978,3.9839516,8.801085,-2.5570073,-0.8767394,-0.16192514,-0.8596946,1.1827357,-0.25857377,0.07182605
1570714978,3.9552212,8.734048,-3.4332852,-0.9619631,-0.2823037,-1.0631664,1.5658079,-0.4165911,-1.0486604
1570714978,2.695871,6.8522053,-4.960786,-1.015228,-0.68072474,-0.8618252,0.6512229,-2.0015526,-2.8682537
1570714978,2.2266076,5.9998693,-3.9312792,-0.6658106,-0.3494174,-0.26099774,-0.2873042,-3.6822822,-2.6288335
1570714978,2.9352913,8.896853,-3.1364043,-0.37178862,-0.053264845,-0.11292148,1.1683705,-1.0342951,-0.89064306
1570714978,2.7389667,9.605537,-6.339846,-0.22477765,-0.33769912,-0.39629045,0.45010993,0.37828386,-4.405331
1570714978,3.8881836,6.847417,-5.7508726,0.3142626,-0.064983115,-0.015979454,1.7908629,-2.4420857,-4.4819455
1570714978,2.7629087,6.9958572,-3.5577838,1.628839,0.5475626,0.43890235,1.1875241,-2.5617957,-1.9201498
1570714978,1.5466543,8.801085,-3.5913026,2.317021,0.8319969,1.1633042,-0.59855044,-1.1444284,-1.388637
1570714978,3.0071173,16.965313,-2.1260512,2.2871926,1.0919293,3.1181242,-0.4357447,6.50744,0.2873042
1570714978,7.469909,16.917429,1.4508862,1.3795595,0.2748466,2.9604602,3.643975,10.204087,4.7788267
1570714978,8.743625,10.189722,-0.90021986,1.384886,0.3856375,0.527322,4.060566,3.040636,2.3654714
1570714978,6.1195793,4.817134,-1.1444284,2.1231368,2.3127596,0.57739097,2.7868507,-1.8818425,2.3942018
1570714978,5.4444146,5.6551046,-1.436521,1.9633423,1.4946116,0.98539966,1.283292,-2.542642,2.9975405
1570714978,2.5139117,7.52737,-4.43885,1.0684928,0.1043991,1.2218956,-2.3463178,0.47884035,-0.023942016
1570714978,1.8866309,8.240842,-2.944868,0.7755362,0.82453984,1.2240262,-3.6391866,1.4652514,1.4987702
1570714978,2.705448,8.743625,-1.9440918,0.7265325,1.0961906,0.65196174,-3.1507695,2.2266076,2.4612393
1570714978,3.7588966,6.373365,-1.0103531,0.64663523,0.3451562,-0.10759499,-1.8962077,0.2633622,3.5434184
1570714978,2.5187001,6.033388,-2.695871,0.17044751,-0.11505207,-0.43037996,-3.3183637,-0.24420857,1.9201498
1570714978,2.4899697,6.0860605,-2.4516625,-0.13316211,-0.1384886,-0.74357724,-3.323152,-0.40222588,2.0398598
1570714978,4.271256,5.482722,-2.6767175,-0.64663523,0.08628905,-1.1388024,-1.3503298,-1.2306197,1.733402
1570714978,7.455544,5.0996494,-4.510676,-0.82453984,0.33876443,-1.4488038,2.078167,-1.9393034,-0.29688102
1570714978,12.076353,5.659893,-5.363012,-0.35474387,0.8937841,-1.2890093,6.9240313,-1.6663644,-1.3694834
1570714978,9.9790325,6.459556,-8.772355,0.10866029,0.5731298,-0.070309594,4.88896,-0.9911995,-4.936844
1570714978,8.42759,7.40766,-4.381389,0.64343935,0.82027864,0.5305179,3.1747115,0.08619126,-0.50278234
1570714978,6.7372837,9.414001,-1.2880806,-0.8671517,1.1526513,-0.12677033,1.3263878,2.0925324,2.360683
1570714978,4.036624,16.903065,-1.6472107,-0.054330144,0.059656627,-1.1196271,-1.2545617,9.409213,1.8195933
1570714978,7.441179,13.982138,-4.1611223,-0.33450323,-0.43570644,0.22264706,2.2697031,6.4020953,-0.6895301
1570714978,2.3798366,4.548983,-1.2018893,-0.6551576,-0.19921052,0.35474387,-1.2737153,-2.7629087,1.9393034
1570714979,-1.5753847,8.532935,1.5514427,0.17896989,0.22797355,-1.0812764,-6.727707,0.8762778,4.865018
1570714979,0.39743748,8.829816,-1.9201498,-0.116117366,-0.8522375,-1.6501449,-4.582502,0.8714894,2.2840683
1570714979,3.265691,9.380483,-4.8985367,-0.82134396,-0.9747467,-0.9033718,-1.0295067,1.2545617,-1.4748282
1570714979,2.7150247,6.3925185,-3.6535518,-1.0514481,-1.5010034,-0.054330144,-1.0486604,-1.9249382,-0.40701428
1570714979,2.2457612,8.542512,-0.45489833,-0.99392205,-1.3635801,-0.04793836,-2.1260512,0.1436521,2.633622
1570714979,3.4620156,7.920019,-4.534618,-0.7957768,-1.3369477,-0.25780186,-0.023942016,-0.545878,-1.340753
1570714979,4.510676,7.6231384,-3.8067808,-0.487906,-1.0759499,-0.25780186,0.9816227,-1.1923125,-1.2066777
1570714979,3.7062242,9.241618,-2.27928,-0.75316495,-1.1249535,-0.40161693,0.2777274,0.40701428,1.0055647
1570714979,3.5434184,8.556877,-2.7389667,-1.0024444,-0.6785942,-0.3920293,0.21547815,0.023942016,0.30166942
1570714979,4.0653543,8.00621,-2.2170308,-0.8778047,-0.21838588,-0.4506206,0.82360536,-1.1731589,0.29209262
1570714979,3.8498764,8.978256,-2.566584,-0.8778047,-0.15979454,-0.77447087,0.80445176,0.023942016,0.110133275
1570714979,2.954445,8.001422,-3.9791632,-0.95024484,-0.3792457,-1.0567746,0.5506664,-0.90021986,-1.5610195
1570714979,2.0446482,6.7372837,-4.1515455,-1.1036476,-0.8266704,-0.88313115,-0.1388637,-2.1883004,-2.135628
1570714979,2.767697,6.9623384,-3.2609026,-0.6988348,-0.4548818,-0.17151281,0.22026655,-2.528277,-1.8770541
1570714979,1.9153614,9.3421755,-3.490746,-0.5891092,-0.54649734,-0.08628905,0.06703765,-0.545878,-1.1444284
1570714979,2.8395233,10.156203,-7.575254,-0.3419603,-0.7563608,-0.22158176,0.23942018,1.1492168,-5.827487
1570714979,4.831499,7.1251445,-4.6160207,0.2418224,-0.07457078,0.17683929,2.4229321,-2.15957,-3.6631286
1570714979,4.1036615,7.632715,-3.8881836,1.7140628,0.42079228,0.3792457,2.4229321,-1.8195933,-1.8435353
1570714979,3.3375173,8.422802,-3.620033,2.3255432,0.7691444,0.98539966,0.8762778,-1.2162545,-1.1875241
1570714979,3.289633,13.843274,-2.4708161,1.9399058,1.2474627,2.8464735,0.37349546,3.7828386,-0.29688102
1570714979,6.8091097,16.654066,0.01436521,1.4040613,0.46233886,3.3887095,2.0685902,8.724471,2.4468741
1570714979,7.551312,11.003751,-1.0055647,1.4200408,0.21305938,0.7542302,2.777274,3.3135753,2.5570073
1570714979,7.2448545,7.819463,-0.5267244,2.145508,1.7907641,0.42718408,3.2848446,0.24420857,3.572149
