time,ax,ay,az,gx,gy,gz,la_x,la_y,la_z,fox,foy,foz
1570715589,19.302734,-3.502411,4.9861145,1.282135,1.3805237,4.9818115,10.202123,-0.64016175,2.313092
1570715589,21.066055,-4.243408,6.949356,1.0168762,1.5722656,4.1232147,12.3736925,-0.31829214,3.95014
1570715589,35.935257,-6.851898,0.5532532,0.8773346,0.92459106,2.1524658,26.181234,-2.4607754,-2.3832183
1570715589,10.98288,4.221283,-0.090789795,-2.745636,0.3674469,-0.37539673,3.7208052,8.842239,-4.757257
1570715589,5.7216187,-4.7186584,2.466217,-1.9498749,2.198639,1.8009338,-1.7990246,0.57838964,-1.4965816
1570715589,4.094757,-3.8854828,7.905838,-0.45851135,-0.236557,1.659256,-3.7495904,1.2222219,4.7589693
1570715589,7.6298065,-4.586975,3.316162,-0.47769165,-1.7279205,1.5122528,-0.37555742,1.8383379,0.86529636
1570715589,8.4151,-5.1783447,2.138214,-0.50431824,-1.9516296,1.579361,0.53584146,0.9914775,-0.21577907
1570715589,7.3544617,-7.511505,3.7818298,-0.30404663,-1.9931793,1.6549988,-0.25828838,0.143754,1.3406435
1570715589,6.770279,-6.8901978,-1.2926788,0.6120758,-2.8592377,1.5665741,-0.19788456,0.54466295,-0.95505
1570715589,5.9670258,-8.925278,0.6633911,-0.25823975,-1.1750488,2.1961517,-0.46874905,-1.0538607,-0.977594
1570715589,4.379669,-9.475937,2.842102,-0.29019165,-1.5723877,2.057663,-1.5953093,-0.099061966,2.2772453
1570715589,7.2778473,-10.212158,-5.281418,-0.6459961,-1.0983429,2.0161133,3.9164786,-1.0890656,-4.525493
1570715589,7.834503,-9.042587,-0.39126587,-1.2936707,0.41220093,1.1553802,3.2541938,0.29799747,-1.7584476
1570715589,2.8629456,-4.0351257,-0.55526733,-0.37008667,1.5009003,-0.80895996,-1.3363919,4.77503,-0.8576401
1570715589,1.9399872,-2.7290802,-0.13627625,-0.031341553,0.9256592,-1.6334839,-4.515032,7.6538763,-0.23340443
1570715589,1.1953888,-3.9357605,0.5676117,-0.2784729,0.4143219,-1.5940704,-5.290093,4.7855787,0.75392
1570715589,5.0141296,-2.993637,2.184906,0.4043579,1.0438995,-0.14317322,-2.1819568,4.951168,1.5627732
1570715590,10.542343,-6.985977,3.6776886,1.0999756,-0.87997437,-0.52453613,4.4678817,1.1194344,1.774998
1570715590,12.080627,-7.6790924,1.9011841,1.1564331,-1.7321777,-1.207367,6.2584157,-0.19559097,1.504633
1570715590,9.053146,-8.013092,1.3373566,1.4057007,-2.339386,-0.619339,2.6504369,-0.8532977,1.7649511
1570715590,2.36734,-4.76416,0.22764587,0.52578735,-0.98223877,-0.03451538,-2.6252732,2.308886,-0.131441
1570715590,2.9096375,-6.562195,1.1170807,0.72073364,-0.33029175,0.44592285,-5.5734797,1.258501,0.28900683
1570715590,3.9331512,-6.290451,-0.90960693,0.8400421,-0.24081421,1.0999908,-2.0569825,1.8112221,-0.7375738
1570715590,7.264679,-7.428894,3.2036285,1.0722809,0.004196167,1.3418121,1.1301441,0.44355297,2.7203844
1570715590,3.2711487,-9.611221,2.998932,1.3556366,0.060653687,2.70961,-2.2324018,-1.2087889,1.8552
1570715590,3.4770508,-9.728531,3.6381836,0.7942352,0.27903748,3.9069672,-3.6319919,-1.080718,1.8622178
1570715590,2.4547272,-8.032242,0.457489,0.5332489,1.0492249,1.9937439,-0.02481556,-0.093361855,-2.035627
1570715590,0.9427948,-5.056244,2.019699,0.35429382,1.0375061,0.9402008,-2.1712642,3.5679836,-0.2576207
1570715590,2.5349426,-4.103348,3.8668213,-0.49153137,-0.15878296,-0.220932,-0.9080703,5.347885,1.6981866
1570715590,6.9570312,-6.6424103,2.9330902,-1.2393494,0.5165863,-0.26887512,2.0868502,3.92879,1.4423144
1570715590,5.536072,-4.072235,2.7535248,-2.4537506,-0.142807,-0.6385193,1.6750348,5.65396,1.3776143
1570715590,6.3967896,-7.653961,-0.15542603,-2.5155334,-0.75320435,1.0605774,2.209301,3.6318026,-0.976208
1570715590,3.8637238,-9.823105,-0.50857544,-0.7535858,-0.80433655,1.5484619,0.6581762,-0.35969162,-0.68899924
1570715590,1.0002594,-7.9807587,0.9459076,0.946579,-1.7289886,1.9830933,-2.4454973,3.3580828,1.016046
1570715590,8.879578,-2.4154358,-1.6925049,0.6600189,-1.9015656,1.4824219,6.2893457,6.2363663,-2.050271
1570715590,1.8346405,-10.765213,4.5503693,0.77719116,-2.4277954,-0.6449127,-0.3984313,-5.4671135,4.191644
1570715590,-3.6899872,-12.568054,0.2886963,-0.13360596,-0.27064514,-0.0206604,-6.42894,-2.9692202,-0.07078625
1570715590,2.2189026,-11.573257,0.14503479,0.29356384,0.101135254,-0.55223083,-0.7868154,-1.4945078,0.14682007
1570715590,1.0672913,-9.167084,1.070404,0.08796692,0.37278748,0.038986206,-1.3183272,0.29697418,0.5190078
1570715590,1.3414307,-6.8207703,1.7994385,0.64616394,0.5219116,0.89653015,-0.8312144,3.1081648,1.3747547
1570715590,0.20298767,-6.7872467,1.1925049,0.48744202,-0.025634766,1.565506,-1.5160785,3.0727777,0.42931837
1570715590,0.06651306,-3.1815796,2.9893494,0.61953735,-1.0301666,1.5420685,-1.2521739,6.6973095,2.2202444
1570715590,0.24967957,-3.443756,1.7731018,1.218216,-1.9686737,1.5058594,-0.7278042,6.442034,0.82715607
1570715590,1.1774292,-5.009552,0.25517273,2.094925,2.1102295,1.5878754,0.66318506,4.8652763,-1.1540898
1570715590,1.79393,-9.185043,5.50206,-0.8963318,-0.29301453,0.21582031,1.8877062,0.22765827,3.6182687
1570715590,0.85061646,-6.8327484,-0.014175415,-0.98687744,-2.0102234,-0.7450409,0.5399648,3.1778135,-1.2714396
1570715590,-0.6505432,-5.9121704,2.7283783,0.8570862,1.9078217,-0.75250244,-1.1599782,3.7696152,0.795964
1570715590,0.23051453,-5.4812164,3.2084198,0.48532104,-0.2163086,-0.40841675,-0.48897034,4.215356,1.5655012
1570715590,-6.748581,-38.427826,3.1138458,1.1979828,-1.9803925,1.1394043,-6.386092,-26.006887,1.3702537
1570715590,7.821335,-8.465591,2.742752,0.9018402,-2.7782745,4.816696,8.354061,0.53774357,0.43539596
1570715590,1.572464,-10.058929,0.4084015,0.14230347,-1.2677307,0.9370117,2.9461646,0.049200058,-1.9899406
1570715591,-2.4438019,-8.245316,2.1741333,-0.7173767,1.4295197,-0.0867157,-1.3218491,1.2328291,-0.13793826
1570715591,-2.682022,-8.677475,3.283844,-0.4744873,1.385849,0.28720093,-1.5446733,1.0290947,1.2189455
1570715591,-1.9613647,-9.284409,3.493332,-0.047317505,0.48356628,0.32341003,-0.5774888,0.4127941,1.5673013
1570715591,-2.2690277,-8.77684,2.5260773,0.12098694,0.005264282,0.2062378,-0.7847376,0.7731724,0.5941769
1570715591,-1.6980133,-7.535446,1.2834778,-0.199646,0.14801025,0.07839966,-0.20241821,2.2207994,-0.6498085
1570715591,-0.8720093,-8.950409,2.5428314,-0.25291443,0.6145935,0.107162476,0.6578065,0.66798973,0.60174537
1570715591,-1.4921112,-8.7948,2.5320587,0.01234436,0.464386,0.021942139,0.14059472,0.8132391,0.7566533
1570715591,-2.4354248,-8.641556,2.0795593,-0.15811157,0.52937317,-0.037704468,-0.6822915,1.0802565,0.4721781
1570715591,-2.1361542,-8.761276,2.287857,-0.082473755,0.25985718,0.003829956,-0.51417804,0.90385914,0.61661935
1570715591,-1.5771027,-8.606842,2.1011047,-0.082473755,0.20446777,-0.0014953613,0.025621176,1.0188913,0.4485054
1570715591,-1.4190826,-8.600861,2.0651855,-0.06329346,0.25346375,-0.016403198,0.24601221,1.0303679,0.42930293
1570715591,-1.3939514,-8.614029,2.0005493,-0.072891235,0.26731873,-0.03237915,0.29725003,0.9917774,0.36429453
1570715591,-1.5184479,-8.694229,1.8592834,-0.06222534,0.22576904,-0.031326294,0.17331553,0.91010284,0.27905583
1570715591,-1.5651245,-8.546997,1.8880157,-0.0664978,0.18103027,-0.016403198,0.10166633,1.0556993,0.33205152
1570715591,-1.614212,-8.679871,1.9047852,-0.04838562,0.15866089,-0.013214111,0.098139286,0.9167328,0.42335248
1570715591,-1.4729614,-8.61882,1.8042145,-0.049453735,0.09048462,-0.0025634766,0.19705868,0.9862242,0.2786317
1570715591,-1.6429443,-8.675079,1.750351,-0.059036255,0.09580994,-0.011077881,0.06979728,0.92133236,0.24049056
1570715591,-1.8943329,-8.739731,1.714447,-0.06222534,0.08729553,-0.007888794,-0.15700936,0.77894497,0.27332187
1570715591,-1.8069458,-8.773239,1.5863495,-0.10484314,0.018051147,-0.0057525635,-0.106583714,0.8088503,0.10105252
1570715591,-1.8488464,-8.890564,2.0077362,-0.11123657,0.035095215,0.0070343018,-0.14383888,0.5966387,0.48745954
1570715591,-1.6980133,-8.415314,2.4566345,-0.10270691,-0.008590698,0.014480591,-0.0047308207,1.0386696,1.0008022
1570715591,-1.784195,-8.426086,2.339325,-0.117630005,0.027633667,0.008102417,-0.06454396,0.9865742,0.92422295
1570715591,-1.9146881,-8.484741,2.3417206,-0.105911255,0.05000305,0.0017089844,-0.21179903,0.9571285,0.8989388
1570715591,-1.7961731,-8.551788,2.3177795,-0.049453735,0.0031280518,-0.0014953613,-0.075228095,0.9351187,0.9904742
1570715591,-1.6261902,-7.9604187,1.5444489,0.0016784668,0.029769897,6.4086914E-4,0.09300125,1.4316015,0.33857715
1570715591,-1.6477356,-8.521851,1.3553162,0.037902832,0.11817932,0.011291504,0.08972335,1.0280905,-0.08009875
1570715591,-1.7135773,-9.499878,1.3469238,0.0592041,0.0340271,-0.0025634766,0.04905522,0.10467148,-0.016767144
1570715591,-1.7351227,-8.925278,0.78189087,0.01020813,0.04360962,-0.026000977,-5.145073E-4,0.41156673,-0.4801538
1570715591,-1.8967285,-9.164703,0.888443,-0.07394409,0.17677307,-0.015335083,-0.14847374,0.28711414,-0.57947206
1570715591,-1.5316162,-8.725357,1.516922,-0.13574219,0.093673706,-0.013214111,0.11975622,0.5970278,0.13617456
1570715591,-1.0874939,-8.574524,1.6234589,-0.11656189,0.06704712,-0.014282227,0.5935861,0.93084717,0.3080052
1570715591,-1.2790222,-8.515869,1.6964874,-0.08886719,0.048934937,-0.018539429,0.46719182,0.9272461,0.4166801
1570715591,-1.6812439,-8.343491,1.8461151,-0.026016235,-0.037353516,-0.013214111,0.0869118,1.1207094,0.5858828
1570715592,-2.0679169,-8.605652,1.698883,0.04322815,-0.058654785,-0.003616333,-0.30173898,0.8459282,0.42788386
1570715592,-2.0774841,-8.677475,1.5360718,0.07305908,-0.1108551,0.008102417,-0.4164722,0.73203754,0.3430649
1570715592,-2.0343933,-8.752899,1.3241882,0.053878784,-0.09913635,0.016616821,-0.31488323,0.6871681,0.092645645
1570715592,-2.0152435,-8.792404,1.4127655,0.017669678,-0.049057007,0.018753052,-0.28840637,0.6106558,0.08819902
1570715592,-1.7375183,-8.781631,1.600708,0.0059509277,-0.035217285,0.011291504,-0.028070569,0.60447025,0.21739674
1570715592,-1.456192,-8.555374,1.6809235,0.029388428,0.032958984,6.4086914E-4,0.27086365,0.7895937,0.38529265
1570715592,-1.4131012,-8.665512,1.5731812,0.0315094,0.093673706,-0.016403198,0.30898905,0.7347374,0.21324217
1570715592,-1.8249054,-8.809158,1.6102905,0.009140015,0.1320343,-0.010009766,-0.12666821,0.56842136,0.27174377
1570715592,-1.6249847,-8.71817,1.5875397,0.008071899,0.08622742,-0.011077881,0.074795485,0.61928463,0.17270279
1570715592,-1.5651245,-8.712189,1.6294403,-0.0036468506,0.05532837,-0.0046844482,0.14733195,0.64837074,0.26361752
1570715592,-1.5854797,-8.706207,1.7012787,-0.0068359375,-0.0032653809,0.003829956,0.100230575,0.64173126,0.36326778
1570715592,-1.4454193,-8.633179,1.7826691,0.007003784,-0.011779785,0.008102417,0.21200752,0.6983242,0.36466324
1570715592,-1.4585876,-8.65593,1.7288055,0.01234436,-0.042678833,0.016616821,0.24902117,0.6223402,0.33314645
1570715592,-1.495697,-8.639175,1.8126068,0.026184082,-0.051193237,0.011291504,0.21653378,0.6021862,0.34090662
1570715592,-1.8045502,-8.672684,1.6916962,0.032577515,-0.052261353,0.020874023,-0.07325888,0.5677872,0.29678178
1570715592,-1.6609039,-8.7313385,1.4917755,0.030441284,-0.0874176,0.028335571,-0.027286649,0.49120808,0.042968154
1570715592,-1.5555573,-8.758881,1.619873,0.024047852,-0.07356262,0.015548706,0.1241914,0.40902615,0.07282245
1570715592,-1.708786,-8.737335,1.540863,0.022994995,-0.06716919,0.010223389,0.0119924545,0.43784428,0.048567414
1570715592,-1.8093414,-8.651138,1.561203,0.009140015,-0.061843872,0.017684937,-0.06833923,0.4642172,0.03533542
1570715592,-1.7411041,-8.691849,1.710846,0.008071899,-0.07356262,0.018753052,-0.06704724,0.40014172,0.18878889
1570715592,-1.7470856,-8.609238,1.7826691,0.027252197,-0.07676697,0.016616821,-0.07564604,0.4433546,0.24941051
1570715592,-1.7554779,-8.615234,1.679718,0.029388428,-0.0362854,0.015548706,-0.03130102,0.40637493,0.12383258
1570715592,-1.8284912,-8.684662,1.5779724,0.026184082,-0.038406372,0.013427734,-0.13260543,0.39344406,0.04041636
1570715592,-1.7530823,-8.71817,1.7371826,0.022994995,-0.0128479,0.0070343018,-0.100825906,0.29526997,0.13423193
1570715592,-1.8225098,-8.616425,1.9131622,0.028320312,-0.03201294,0.013427734,-0.10151601,0.4145527,0.32017088
1570715592,-1.7662506,-8.631989,1.8054199,0.025115967,-0.03201294,0.010223389,-0.037620783,0.34168148,0.21544349
1570715592,-1.7806091,-8.696625,1.7575378,0.028320312,0.011657715,0.0070343018,-0.051507115,0.30507278,0.14059436
1570715592,-1.8260956,-8.672684,1.9119568,0.027252197,0.016983032,0.008102417,-0.047456622,0.28158092,0.26163316
1570715592,-1.7458954,-8.624802,1.8652802,0.029388428,0.009521484,0.008102417,-0.02620864,0.3395977,0.21248567
1570715592,-1.827301,-8.690643,1.8880157,0.015533447,0.02230835,-4.272461E-4,-0.07403445,0.22836018,0.20219433
1570715592,-1.9039154,-8.629593,1.8257751,0.016601562,0.021240234,0.003829956,-0.14251995,0.28985023,0.1887536
1570715592,-1.6704712,-8.661911,1.7970428,0.013397217,0.005264282,0.012359619,0.05458343,0.25157642,0.14211476
1570715592,-1.7387085,-8.660721,1.7850647,0.01020813,0.027633667,-4.272461E-4,0.015738606,0.22775364,0.13479984
1570715593,-1.8057556,-8.628403,1.8018341,0.0059509277,0.014846802,6.4086914E-4,-0.07437515,0.23551369,0.08886027
1570715593,-1.7602539,-8.622406,1.9047852,0.01234436,0.028701782,-0.0014953613,-0.038947105,0.19798851,0.18283808
1570715593,-1.7147675,-8.63678,1.7312012,0.002746582,0.03189087,-0.0014953613,0.042710662,0.19229889,0.009560704
1570715593,-1.866806,-8.701416,1.8640747,-0.0025787354,0.028701782,-0.0068206787,-0.0605433,0.12436581,0.08382213
1570715593,-1.7542725,-8.63797,1.8509064,0.002746582,0.01272583,-4.272461E-4,0.047973275,0.19875908,0.1285187
1570715593,-1.6704712,-8.660721,1.8568878,-0.0025787354,0.027633667,-0.0046844482,0.0921489,0.1940813,0.14231753
1570715593,-1.8356781,-8.634384,1.8161926,0.0048828125,0.041488647,-0.0057525635,-0.064537644,0.16327477,0.06184745
1570715593,-1.9051056,-8.696625,1.8521118,6.2561035E-4,0.046813965,-0.0046844482,-0.13292456,0.10869503,0.10485065
1570715593,-1.8165283,-8.624802,1.8760529,0.0038146973,0.025497437,0.0027618408,-0.044519424,0.15325356,0.101869464
1570715593,-1.7746277,-8.61882,1.8114014,-0.0015106201,0.040420532,-0.0025634766,0.052917838,0.17086697,0.07200003
1570715593,-1.7411041,-8.653534,1.750351,-0.0025787354,0.042541504,-0.0046844482,-0.0017117262,0.10538292,0.04277134
1570715593,-1.7183533,-8.649948,1.813797,0.0048828125,0.052139282,-0.0014953613,0.052268505,0.10824394,0.051285148
1570715593,-1.7590637,-8.702621,1.8090057,-0.0015106201,0.054260254,-0.003616333,0.0314703,0.06672096,0.060151458
1570715593,-1.8356781,-8.675079,1.7623291,-0.021759033,0.058532715,-0.0046844482,0.02110207,0.11295605,-0.052583218
1570715593,-1.6788635,-8.612839,1.8437195,-0.0068359375,0.044677734,0.0017089844,0.084511995,0.14653397,0.0964036
1570715593,-1.629776,-8.641556,1.829361,-0.008972168,0.040420532,-0.003616333,0.17596233,0.11260414,0.06646252
1570715593,-1.8141327,-8.761276,1.7479553,-0.0057678223,0.05000305,-0.012145996,-0.014289141,0.0020313263,0.009808421
1570715593,-1.8308868,-8.610443,1.7299957,-0.007904053,0.040420532,-0.0068206787,-0.04446864,0.11478901,-0.024246812
1570715593,-1.784195,-8.65712,1.7276001,-0.019622803,0.039352417,-0.007888794,0.0041713715,0.07959938,-0.016820312
1570715593,-1.9362335,-8.65712,1.7671051,-0.026016235,0.053207397,-0.0057525635,-0.122654796,0.077581406,0.026742578
1570715593,-1.8045502,-8.57692,1.8317566,-0.026016235,0.04360962,-0.0057525635,-0.03927517,0.16891289,0.11448729
1570715593,-1.7854004,-8.654724,1.7288055,-0.015365601,0.030838013,-0.0025634766,0.03115654,0.11036682,0.05936098
1570715593,-1.7063904,-8.640366,1.6306458,-0.026016235,0.041488647,-0.007888794,0.086811304,0.06246376,-0.06603074
1570715593,-1.7830048,-8.69902,1.5552216,-0.03453064,0.0340271,-0.007888794,-0.0070654154,0.02573204,-0.13217425
1570715593,-1.7901917,-8.670288,1.6677551,-0.03453064,0.02444458,-0.007888794,0.009393215,0.029407501,-0.044466138
1570715593,-1.7291412,-8.677475,1.6881104,-0.044128418,0.01272583,-0.0057525635,0.04579389,0.0625124,-0.010470152
1570715593,-1.732727,-8.688248,1.5947266,-0.047317505,0.005264282,-0.0057525635,0.052966118,0.036011696,-0.060201883
1570715593,-1.6908264,-8.727753,1.7120514,-0.035598755,0.004196167,-0.010009766,0.04814315,-0.041762352,0.06960869
1570715593,-1.6429443,-8.615234,1.6845093,-0.030273438,0.01272583,-0.015335083,0.09370446,0.104771614,0.03793502
1570715593,-1.7949677,-8.682266,1.7288055,-0.030273438,0.02444458,-0.015335083,-0.027928352,0.04745865,0.07319093
1570715593,-1.871582,-8.665512,1.6928864,-0.021759033,0.028701782,-0.007888794,-0.09092796,0.0426836,0.06601417
1570715593,-1.6968079,-8.621216,1.6234589,-0.019622803,0.035095215,-0.0014953613,0.055967093,0.07971382,-0.018802524
1570715593,-1.6022491,-8.69783,1.6210632,-0.016418457,0.027633667,-0.0014953613,0.13089061,0.06597519,-0.038682103
1570715593,-1.693222,-8.708603,1.6976776,-0.02494812,0.02017212,-4.272461E-4,0.07087529,-0.015703201,0.07734907
1570715594,-1.7195587,-8.755295,1.4438934,-0.02494812,0.039352417,-0.007888794,0.027877927,-0.029802322,-0.14578855
1570715594,-1.7806091,-8.712189,1.5899353,-0.03453064,0.041488647,-0.008956909,-0.015109897,0.012023926,0.0024524927
1570715594,-1.8045502,-8.669098,1.5456543,-0.037734985,0.02230835,0.0048980713,-0.04524076,0.044247627,-0.03472686
1570715594,-1.7195587,-8.677475,1.6306458,-0.033462524,0.018051147,0.009155273,0.055438995,0.036681175,0.045261025
1570715594,-1.5914612,-8.673889,1.6450043,-0.018554688,-0.006454468,0.0070343018,0.16494465,0.043447495,0.07914901
1570715594,-1.6968079,-8.614029,1.6031036,-0.0036468506,0.0063323975,-0.0046844482,0.0750711,0.07512283,0.021369338
1570715594,-1.9075012,-8.666702,1.6761322,0.0038146973,0.015914917,6.4086914E-4,-0.14322233,0.033582687,0.084567904
1570715594,-1.772232,-8.605652,1.6521912,0.015533447,0.0010070801,0.011291504,-0.039626956,0.059818268,0.071974754
1570715594,-1.7674408,-8.654724,1.6497955,0.020858765,0.02230835,0.003829956,0.019170403,0.032465935,0.038189173
1570715594,-1.7758179,-8.702621,1.4594574,0.026184082,0.02444458,0.0017089844,0.007924676,0.008482933,-0.070538044
1570715594,-1.7830048,-8.71817,1.453476,0.018722534,0.041488647,-0.003616333,0.05031991,-0.027422905,-0.12109208
1570715594,-1.7985687,-8.63678,1.5635986,0.01979065,0.029769897,0.0017089844,-0.032623768,0.07289505,-0.0414418
1570715594,-1.7782135,-8.671494,1.4869843,0.014465332,0.025497437,0.0048980713,0.008451819,0.02815342,-0.107124925
1570715594,-1.818924,-8.749298,1.4893799,0.014465332,0.013793945,0.0059661865,-0.052947164,-0.0033369064,-0.070284486
1570715594,-1.6465302,-8.724167,1.5695953,0.017669678,-0.009643555,0.008102417,0.08914292,-0.06336117,-0.033026695
1570715594,-1.6860352,-8.705017,1.556427,0.008071899,0.005264282,-0.0046844482,0.07538271,0.0027189255,-0.025877237
1570715594,-1.950592,-8.6475525,1.6138763,0.0038146973,0.009521484,-4.272461E-4,-0.20961678,0.051760674,0.03986168
1570715594,-1.7626495,-8.682266,1.6545868,0.015533447,-0.021362305,0.0048980713,-0.020297766,0.024585724,0.0807085
1570715594,-1.8524323,-8.663116,1.6845093,0.011276245,0.008453369,0.0059661865,-0.008761406,0.03741932,0.11494613
1570715594,-1.8201141,-8.675079,1.6222687,0.018722534,0.0010070801,0.003829956,-0.05668187,0.016181946,-0.0072357655
1570715594,-1.7291412,-8.725357,1.5348816,0.014465332,0.013793945,-0.003616333,0.05063653,0.019516945,-0.037639856
1570715594,-1.8763733,-8.67868,1.6833191,0.022994995,0.019119263,-0.0025634766,-0.073697805,-0.047595024,0.06053686
1570715594,-1.8452606,-8.610443,1.5528259,0.024047852,-0.01071167,0.003829956,-0.067702174,0.07535362,-0.029135108
1570715594,-1.763855,-8.7313385,1.5815582,0.007003784,0.008453369,-4.272461E-4,0.042716146,-0.028345108,-0.03396225
1570715594,-1.8009644,-8.758881,1.6581726,0.009140015,0.015914917,-0.003616333,-0.016460657,-0.102537155,0.01949811
1570715594,-1.808136,-8.604446,1.7048645,0.017669678,-0.01071167,6.4086914E-4,-0.007738471,0.071525574,0.05498278
1570715594,-1.808136,-8.642761,1.6809235,0.017669678,-0.006454468,0.0017089844,-0.018603444,0.035588264,0.06622696
1570715594,-1.7351227,-8.712189,1.6677551,0.028320312,-0.011779785,-4.272461E-4,0.07754135,5.41687E-4,-0.03575492
1570715594,-1.7015991,-8.606842,1.6473999,0.03364563,0.015914917,-0.0057525635,0.054823637,-0.0067253113,-0.0030195713
1570715594,-1.8021545,-8.710999,1.5588226,0.017669678,-0.0043182373,-4.272461E-4,-0.029482126,-0.022216797,-0.008547902
1570715594,-1.7949677,-8.722961,1.6031036,0.013397217,-0.0053863525,-4.272461E-4,0.009500265,-0.029444695,-0.016011953
1570715594,-1.6956177,-8.710999,1.674942,0.007003784,0.0031280518,-0.0068206787,0.0837481,-0.025903702,-0.037920237
1570715594,-1.8344727,-8.640366,1.655777,-0.0025787354,0.018051147,-0.0046844482,0.0023766756,0.03603077,0.010189772
1570715595,-1.7913818,-8.652344,1.7240143,-0.010040283,0.0063323975,-0.0014953613,-0.019800901,0.014759064,0.0022295713
1570715595,-1.7650452,-8.763672,1.7264099,-0.0025787354,0.0010070801,-0.003616333,0.07172716,-0.03238392,0.09402275
1570715595,-1.808136,-8.630783,1.8592834,0.0048828125,0.0063323975,-0.0025634766,-0.023852468,0.06470871,0.15944278
1570715595,-1.8201141,-8.713394,1.7060547,-0.0057678223,0.008453369,-0.0068206787,0.0030397177,0.03264618,0.08174288
1570715595,-1.8332825,-8.681061,1.6845093,-0.0025787354,0.023376465,-0.007888794,-0.04381144,-0.05872917,-0.02368784
1570715595,-1.6596985,-8.73494,1.734787,-0.004714966,0.005264282,0.0027618408,0.04513967,-0.026748657,0.087703586
1570715595,-1.7099762,-8.63678,1.600708,-0.01109314,0.009521484,6.4086914E-4,0.07148504,0.055153847,-0.03293407
1570715595,-1.7734222,-8.707397,1.6150818,-0.017486572,0.015914917,-0.008956909,0.015872598,-0.026758194,-0.026083231
1570715595,-1.8404694,-8.719376,1.6318359,-0.015365601,0.030838013,-0.007888794,-0.032933235,-0.058377266,-0.061126232
1570715595,-1.8021545,-8.6870575,1.664154,-0.02494812,0.01272583,6.4086914E-4,-0.019813657,3.0994415E-4,0.0019727945
1570715595,-1.7566681,-8.694229,1.616272,-0.028137207,0.0074005127,0.0027618408,0.017683864,-0.0024328232,-0.047255516
1570715595,-1.7494812,-8.695435,1.6210632,-0.02708435,0.011657715,-0.0046844482,0.028276801,0.034892082,-0.03445506
1570715595,-1.7602539,-8.664307,1.6126862,-0.020690918,0.0020751953,0.003829956,-0.020581365,0.0537405,0.00852859
1570715595,-1.7039948,-8.676285,1.6282501,-0.015365601,-0.009643555,0.003829956,0.07545316,0.03254509,-0.0044407845
1570715595,-1.8237,-8.71579,1.5576172,-0.01109314,-0.0011291504,0.003829956,0.01150167,0.030034065,-0.038517237
1570715595,-1.74469,-8.661911,1.5791626,-0.0015106201,0.0020751953,0.0027618408,0.026520729,0.01067543,-0.020058155
1570715595,-1.6776581,-8.65712,1.611496,0.002746582,-0.0053863525,-4.272461E-4,0.057498813,0.025669098,1.6307831E-4
1570715595,-1.8344727,-8.750504,1.5157166,0.0016784668,0.005264282,0.0048980713,-0.056829214,-0.063108444,-0.085190415
1570715595,-1.787796,-8.690643,1.5193176,-4.4250488E-4,-0.0021972656,0.0017089844,-0.0064799786,0.0043697357,-0.061570168
1570715595,-1.748291,-8.626007,1.619873,-0.0015106201,0.0020751953,-0.003616333,0.031082273,0.050644875,0.010973096
1570715595,-1.8500366,-8.640366,1.6438141,0.007003784,0.0031280518,6.4086914E-4,-0.052518368,0.03062725,0.061180115
1570715595,-1.7015991,-8.661911,1.6138763,0.002746582,-0.0128479,0.0027618408,0.069889665,0.016178131,-0.006517887
1570715595,-1.7746277,-8.742126,1.5731812,0.008071899,0.0074005127,-4.272461E-4,0.03758633,0.006114006,-0.01956141
1570715595,-1.8763733,-8.712189,1.5552216,0.007003784,-0.0032653809,0.0048980713,-0.0816952,-4.491806E-4,0.0100700855
1570715595,-1.708786,-8.663116,1.6318359,-0.008972168,0.005264282,0.0070343018,0.04488671,0.016176224,0.027562141
1570715595,-1.6776581,-8.69902,1.5743713,0.002746582,-0.0021972656,6.4086914E-4,0.09752309,-0.009853363,-0.02748084
1570715595,-1.7267456,-8.642761,1.7000732,0.014465332,-0.013916016,6.4086914E-4,0.020700097,0.047175407,0.06300557
1570715595,-1.7674408,-8.670288,1.5827637,0.01020813,-0.0053863525,6.4086914E-4,0.041864753,0.003332138,-0.020332575
1570715595,-1.8703918,-8.688248,1.6809235,0.01020813,-0.006454468,0.0017089844,-0.099871635,-0.013329506,0.041645527
1570715595,-1.7542725,-8.641556,1.7084503,0.01234436,-0.01071167,0.003829956,0.005518317,0.034176826,0.093010426
1570715595,-1.8165283,-8.624802,1.6126862,0.011276245,-0.01071167,0.009155273,-0.032601476,0.0298872,0.021284819
1570715595,-1.6980133,-8.677475,1.6509857,0.018722534,-0.0128479,0.0017089844,0.05463493,0.011389732,0.014226556
1570715595,-1.7578583,-8.707397,1.5516357,0.027252197,0.004196167,-0.0014953613,0.0121433735,-0.04160595,-0.04790759
1570715596,-1.8356781,-8.677475,1.5983276,0.01979065,-0.0053863525,0.0070343018,-0.04808104,-0.017127037,-0.07768965
1570715596,-1.7937775,-8.705017,1.595932,0.008071899,-6.1035156E-5,0.0017089844,0.0106499195,-0.0472126,-0.029545188
1570715596,-1.7901917,-8.6475525,1.7312012,0.013397217,0.005264282,-0.0025634766,-0.013302684,0.011511803,0.06438494
1570715596,-1.7830048,-8.606842,1.6653595,0.01020813,0.0031280518,0.0027618408,0.004286647,0.07544613,0.038882017
1570715596,-1.8284912,-8.693039,1.710846,0.008071899,0.0010070801,0.0048980713,0.009954095,0.0031137466,0.037145495
1570715596,-1.772232,-8.648743,1.7216187,0.011276245,-0.0043182373,-4.272461E-4,0.017983913,0.01932621,0.08000958
1570715596,-1.808136,-8.639175,1.6928864,0.007003784,0.008453369,0.0017089844,-0.026606679,0.030291557,0.031423926
1570715596,-1.8201141,-8.695435,1.6581726,-0.0015106201,0.005264282,6.4086914E-4,-0.042477846,-0.041994095,-0.005980015
1570715596,-1.7865906,-8.707397,1.750351,-0.0057678223,0.0031280518,-4.272461E-4,0.0044738054,-0.032585144,0.048232794
1570715596,-1.74469,-8.63678,1.7407684,-0.008972168,0.019119263,-0.0025634766,0.04050362,0.037866592,0.035045028
1570715596,-1.8596191,-8.643951,1.6893005,0.002746582,0.004196167,0.0017089844,-0.076902986,0.00818634,0.046776533
1570715596,-1.7470856,-8.683456,1.7204285,-0.010040283,-0.007522583,0.008102417,0.033017755,-0.016910553,0.070760965
1570715596,-1.7159729,-8.673889,1.6186676,0.0048828125,0.0031280518,-0.0014953613,0.08305371,5.340576E-4,-0.043573856
1570715596,-1.7734222,-8.6475525,1.5971222,0.0038146973,0.0020751953,-0.008956909,-0.0059990883,0.026494026,-0.054228783
1570715596,-1.9350433,-8.730148,1.5923309,-0.01109314,0.019119263,-0.0046844482,-0.14733672,-0.037795067,-0.08331704
1570715596,-1.8141327,-8.712189,1.6246643,-0.0068359375,0.0074005127,0.003829956,-0.019448161,-0.04586506,-0.031592846
1570715596,-1.6704712,-8.633179,1.5755768,-0.0036468506,0.0020751953,-4.272461E-4,0.10893464,0.018332481,-0.033433676
1570715596,-1.7865906,-8.67868,1.5683899,-0.007904053,0.0074005127,-0.0014953613,-0.013506293,-0.0041208267,-0.098472
1570715596,-1.7590637,-8.669098,1.6270447,-0.0036468506,-0.0128479,6.4086914E-4,0.007208824,0.008356094,-0.035174012
1570715596,-1.7542725,-8.63678,1.6067047,-0.0057678223,-0.0053863525,-0.0068206787,0.014221072,0.022025108,-0.036715508
1570715596,-1.8835602,-8.661911,1.6629639,-0.010040283,-0.01071167,0.003829956,-0.092648506,0.022431374,0.009989023
1570715596,-1.7734222,-8.685852,1.6270447,-0.014297485,-0.0021972656,0.0017089844,0.042648673,-0.020812988,-0.029402018
1570715596,-1.7470856,-8.684662,1.6378174,-0.012161255,-6.1035156E-5,6.4086914E-4,0.0469625,-0.00664711,0.0057628155
1570715596,-1.7554779,-8.682266,1.655777,-0.018554688,-0.011779785,-0.0014953613,0.006586075,6.67572E-5,0.0010312796
1570715596,-1.808136,-8.677475,1.616272,-0.02281189,-0.0053863525,-0.0014953613,-0.042045474,0.0026540756,-0.019581676
1570715596,-1.7746277,-8.630783,1.6533813,-0.02494812,-0.009643555,6.4086914E-4,6.2942505E-5,0.036328316,0.0040131807
1570715596,-1.6776581,-8.596069,1.698883,-0.008972168,-0.018173218,0.0027618408,0.09684777,0.0653801,0.08550537
1570715596,-1.8093414,-8.631989,1.6725464,0.0038146973,-0.008590698,6.4086914E-4,-0.017588496,0.0617342,0.05749929
1570715596,-1.7854004,-8.750504,1.5995178,0.0059509277,-0.016036987,-0.0025634766,-0.04108262,-0.03474331,-0.035778284
1570715596,-1.7734222,-8.628403,1.6486053,0.01020813,-6.1035156E-5,-0.0068206787,-0.0061472654,0.06795502,-0.021594763
1570715596,-1.8021545,-8.659515,1.6438141,0.01020813,-0.01071167,0.0027618408,-0.03790152,-0.008467674,0.029514551
1570715596,-1.6800537,-8.676285,1.5504303,0.015533447,-0.021362305,0.0048980713,0.0729903,-0.03448677,-0.14083016
1570715596,-1.7303314,-8.69783,1.5935364,0.017669678,0.009521484,-0.0046844482,0.06780279,-0.06044197,-0.016621947
1570715596,-1.7147675,-8.675079,1.6282501,0.01234436,0.0020751953,-0.0025634766,0.03640306,0.012917519,-0.03671837
1570715597,-1.7542725,-8.65593,1.6462097,0.013397217,-0.009643555,6.4086914E-4,2.861023E-4,0.030151367,0.025512338
1570715597,-1.7075806,-8.681061,1.7132416,0.009140015,0.0031280518,-4.272461E-4,0.0452559,-0.0026779175,-0.004220724
1570715597,-1.7291412,-8.682266,1.714447,0.008071899,-0.011779785,0.0027618408,0.019580126,-0.019485474,0.07129085
1570715597,-1.6872406,-8.665512,1.6258545,6.2561035E-4,-0.0053863525,0.0048980713,0.09789884,-0.018618584,-0.035834193
1570715597,-1.8320923,-8.646347,1.703659,6.2561035E-4,-6.1035156E-5,-0.0014953613,-0.043434978,7.5531006E-4,0.07216704
1570715597,-1.763855,-8.6475525,1.7048645,0.007003784,-0.016036987,0.0027618408,-9.317398E-4,0.026053429,0.04396081
1570715597,-1.7901917,-8.672684,1.7072601,-4.4250488E-4,0.0063323975,0.0017089844,-0.013508081,-0.0026626587,0.041118145
1570715597,-1.7710266,-8.733734,1.6869049,-0.0036468506,-0.008590698,0.008102417,-0.0039180517,-0.037198067,0.0305202
1570715597,-1.6668854,-8.645157,1.719223,0.002746582,0.0074005127,6.4086914E-4,0.10336399,0.02644062,0.021852374
1570715597,-1.7961731,-8.660721,1.6881104,0.013397217,-0.0021972656,0.003829956,0.009485006,0.04105854,0.02454269
1570715597,-1.6908264,-8.690643,1.6270447,0.007003784,-0.009643555,-0.003616333,0.047724724,-0.015816689,-0.019407392
1570715597,-1.8679962,-8.691849,1.6450043,0.0016784668,0.02230835,-0.0046844482,-0.12581646,-0.05530262,-0.03180456
1570715597,-1.871582,-8.627197,1.6306458,-0.0015106201,-0.011779785,0.009155273,-0.11220157,0.042816162,0.013366342
1570715597,-1.7111816,-8.651138,1.6497955,-0.0025787354,0.004196167,0.0048980713,0.043416142,0.030011177,0.008139372
1570715597,-1.7997589,-8.649948,1.6366272,0.0059509277,0.009521484,-0.0014953613,-0.03645706,-0.0010204315,-0.026639104
1570715597,-1.7554779,-8.664307,1.6330414,0.009140015,0.0010070801,0.0048980713,0.021616101,0.013005257,0.027062535
1570715597,-1.8392639,-8.658325,1.6725464,0.002746582,-0.0032653809,0.003829956,-0.026229858,0.022641182,-0.01241529
1570715597,-1.8548279,-8.665512,1.6342316,0.0059509277,-0.0011291504,0.0048980713,-0.082993865,0.006099701,-0.022310972
1570715597,-1.7734222,-8.65593,1.6091003,0.0048828125,0.0010070801,0.009155273,0.03624487,0.040989876,-0.06883311
1570715597,-1.6501312,-8.7265625,1.635437,0.011276245,-0.0021972656,0.0070343018,0.09881163,-0.030975342,0.012713313
1570715597,-1.7590637,-8.649948,1.5827637,0.013397217,-0.0011291504,-0.0014953613,0.038105607,-0.010612488,-0.06101644
1570715597,-1.8249054,-8.658325,1.6497955,0.007003784,-0.0021972656,-0.0046844482,-0.008292556,-0.0010881424,-0.0109375715
1570715597,-1.90271,-8.626007,1.7443695,6.2561035E-4,0.0010070801,-4.272461E-4,-0.10983133,-0.011331558,0.027223468
1570715597,-1.748291,-8.642761,1.703659,0.002746582,-0.020309448,0.012359619,-0.03188944,0.03505516,0.047649026
1570715597,-1.6668854,-8.645157,1.8185883,0.009140015,-0.0043182373,-4.272461E-4,0.13217807,-0.022483826,0.07996881
1570715597,-1.8249054,-8.63678,1.7012787,0.01020813,0.0031280518,-0.0046844482,-0.03688848,0.026630402,0.0028563738
1570715597,-1.8356781,-8.695435,1.679718,0.008071899,-0.014968872,-4.272461E-4,-0.06362057,0.009518623,0.055661798
1570715597,-1.8009644,-8.690643,1.6473999,0.0016784668,-0.0053863525,0.0017089844,-0.0032494068,-0.019543648,-0.036376715
1570715597,-1.7602539,-8.649948,1.6821136,-4.4250488E-4,-0.0043182373,0.0048980713,0.023386478,0.0016803741,-0.050684214
1570715597,-1.7674408,-8.634384,1.7443695,0.0059509277,0.0063323975,-0.0025634766,0.05488217,0.008398056,0.07083285
1570715597,-1.7818146,-8.712189,1.6677551,-4.4250488E-4,-0.0032653809,-4.272461E-4,0.0030184984,-0.005470276,-0.024875164
1570715597,-1.8296967,-8.643951,1.6916962,-0.0036468506,-0.0021972656,0.0017089844,-0.03869152,-0.025715828,-0.027387857
1570715597,-1.7901917,-8.63797,1.7168274,-0.0015106201,-0.007522583,0.0048980713,-0.029894233,0.013286591,0.044339895
1570715598,-1.708786,-8.663116,1.6725464,-0.0025787354,-0.0043182373,0.0017089844,0.056758046,-0.0078029633,0.0070779324
1570715598,-1.827301,-8.660721,1.679718,-0.0025787354,0.0074005127,-0.0025634766,-0.058372617,0.0047254562,0.05107665
1570715598,-1.7913818,-8.615234,1.6893005,-0.0036468506,-0.0032653809,6.4086914E-4,0.031223416,0.027375221,0.011449933
1570715598,-1.8237,-8.703812,1.7048645,0.0038146973,0.0010070801,0.0017089844,-0.024124742,-0.034183502,0.02942586
1570715598,-1.7195587,-8.652344,1.6509857,0.002746582,-0.006454468,0.003829956,0.062052727,0.0010433197,-0.013242722
1570715598,-1.7698364,-8.750504,1.6342316,0.0048828125,0.008453369,-0.003616333,0.03186786,-0.028455734,-0.028224707
1570715598,-1.8141327,-8.679871,1.6928864,0.0048828125,0.0010070801,0.0017089844,-0.043691874,-0.0039052963,-6.1285496E-4
1570715598,-1.7423096,-8.610443,1.7276001,-0.008972168,0.004196167,0.0027618408,0.01366663,0.0076408386,0.029714346
1570715598,-1.779419,-8.585297,1.7132416,6.2561035E-4,0.01272583,-4.272461E-4,-0.03324938,0.03962803,0.015557408
1570715598,-1.7554779,-8.65712,1.7060547,0.008071899,0.0010070801,-0.0014953613,0.02864933,-0.004945755,0.018628001
1570715598,-1.748291,-8.702621,1.6857147,0.002746582,0.013793945,-4.272461E-4,0.034176946,-0.020175934,-0.00810957
1570715598,-1.808136,-8.688248,1.6701508,-0.0036468506,0.0063323975,-0.003616333,-0.00907588,-0.014837265,-0.0088608265
1570715598,-1.8117371,-8.707397,1.6869049,-0.008972168,0.0063323975,-4.272461E-4,0.002927184,-0.07182598,-0.007350087
1570715598,-1.7889862,-8.641556,1.750351,-0.020690918,0.004196167,-0.003616333,-0.014596581,0.0131073,0.034954786
1570715598,-1.8368683,-8.633179,1.8185883,-0.012161255,0.004196167,-4.272461E-4,-0.010336995,0.03049469,0.11692202
1570715598,-1.7746277,-8.626007,1.7491608,-0.0068359375,-0.0053863525,0.0027618408,0.028758407,0.051068306,0.065463185
1570715598,-1.7973633,-8.712189,1.6318359,-0.0068359375,-0.0021972656,-0.0014953613,-0.01626575,-0.057369232,-0.0364995
1570715598,-1.7961731,-8.654724,1.695282,-0.0015106201,0.011657715,-0.003616333,0.0062521696,0.025784492,0.022890091
1570715598,-1.8787689,-8.720566,1.6054993,-0.014297485,0.01272583,-0.003616333,-0.06772268,-0.05480957,-0.09396708
1570715598,-1.7865906,-8.695435,1.6019135,-0.020690918,0.019119263,-0.0014953613,0.024616838,-0.04024887,-0.027055502
1570715598,-1.6956177,-8.658325,1.6486053,-0.015365601,0.013793945,-0.0068206787,0.09208703,0.010416031,-0.031083226
1570715598,-1.7818146,-8.623611,1.6270447,-0.01322937,0.018051147,-0.0046844482,0.031157732,0.04980278,-0.015000343
1570715598,-1.8213043,-8.658325,1.6366272,-0.008972168,0.0020751953,-4.272461E-4,-0.04542923,0.023021698,-3.7431717E-4
1570715598,-1.7231445,-8.652344,1.6486053,-0.0068359375,-6.1035156E-5,6.4086914E-4,0.047834396,0.023361206,-0.011675835
1570715598,-1.7291412,-8.62001,1.619873,-0.0025787354,0.0031280518,-4.272461E-4,0.04563701,0.0272398,-0.0316782
1570715598,-1.8249054,-8.69902,1.6174774,-0.01109314,0.005264282,-0.0014953613,-0.043886304,-0.045306206,-0.016037703
1570715598,-1.7650452,-8.670288,1.5432587,-0.0068359375,0.0010070801,-4.272461E-4,-0.010784507,0.026583672,-0.090459704
1570715598,-1.7566681,-8.658325,1.6282501,-0.008972168,0.005264282,-0.0057525635,0.030078173,-0.057836533,-0.005173683
1570715598,-1.787796,-8.640366,1.532486,-0.01109314,0.0020751953,0.003829956,-0.010483146,0.02980423,-0.09861934
1570715598,-1.7363129,-8.6870575,1.6785278,-0.019622803,0.0020751953,0.0070343018,0.040519357,-0.0074214935,0.032355905
1570715598,-1.7159729,-8.615234,1.7096558,-4.4250488E-4,-0.0021972656,0.003829956,0.053665638,0.05203533,0.085377336
1570715598,-1.6920319,-8.645157,1.679718,0.01234436,-0.0128479,-0.0014953613,0.08561182,0.03846073,0.036952376
1570715598,-1.8835602,-8.720566,1.6473999,0.009140015,0.013793945,-0.003616333,-0.06934893,-0.037319183,-0.010819674
1570715599,-1.8524323,-8.721771,1.5659943,0.01234436,-0.0021972656,6.4086914E-4,-0.06091392,-0.046200752,-0.0675323
1570715599,-1.6956177,-8.694229,1.6067047,0.0038146973,-0.0043182373,0.0027618408,0.074106455,-0.014640808,-0.053410172
1570715599,-1.8177185,-8.653534,1.6486053,0.002746582,-0.0011291504,0.0017089844,-0.019847631,0.0140218735,0.022135377
1570715599,-1.6860352,-8.675079,1.6785278,0.01020813,-0.0043182373,-4.272461E-4,0.080228925,0.02560711,0.01579094
1570715599,-1.739914,-8.679871,1.619873,0.009140015,0.0105896,-0.0025634766,0.03433299,-0.007050514,-0.044846892
1570715599,-1.8069458,-8.665512,1.710846,0.007003784,-0.006454468,0.0059661865,-0.025389314,0.001200676,0.059426904
1570715599,-1.7506866,-8.639175,1.5971222,0.0016784668,-0.009643555,0.0048980713,0.032054543,0.01204586,-0.04541099
1570715599,-1.74469,-8.630783,1.7323914,0.011276245,0.0010070801,0.0027618408,0.034040928,0.0479908,0.0682596
1570715599,-1.748291,-8.679871,1.6174774,0.01234436,-0.008590698,0.0059661865,0.0839746,-0.043006897,-0.055699587
1570715599,-1.847641,-8.661911,1.6031036,0.0059509277,0.008453369,0.0017089844,-0.030365229,-0.00203228,-0.08531129
1570715599,-1.7901917,-8.679871,1.6869049,0.0038146973,-0.0021972656,0.003829956,-0.008692026,-0.024410248,0.0159415
1570715599,-1.827301,-8.649948,1.7072601,-4.4250488E-4,0.009521484,0.003829956,-0.009132385,0.017098427,0.020133853
1570715599,-1.8177185,-8.672684,1.7156372,0.0038146973,-0.01071167,0.0059661865,-0.016442537,0.034888268,0.082744
1570715599,-1.7099762,-8.614029,1.6581726,0.009140015,0.0063323975,0.0027618408,0.034681916,0.06365013,0.05472994
1570715599,-1.8572235,-8.702621,1.6569824,0.007003784,0.005264282,6.4086914E-4,-0.057842135,-0.05551243,0.0053195953
1570715599,-1.8488464,-8.63797,1.5875397,0.002746582,-0.0053863525,0.0048980713,-0.060534835,0.014214516,-0.068063736
1570715599,-1.7961731,-8.683456,1.6497955,-0.0025787354,0.004196167,0.0027618408,-0.0069726706,-0.016013145,-0.012567759
1570715599,-1.7111816,-8.648743,1.6091003,0.0038146973,0.0010070801,0.003829956,0.101991534,0.034482002,-0.048642993
1570715599,-1.8225098,-8.7265625,1.6653595,-4.4250488E-4,0.011657715,0.0017089844,0.004905939,-0.07288551,0.011104941
1570715599,-1.8596191,-8.670288,1.703659,-0.0015106201,0.005264282,-0.0046844482,-0.071195245,-0.0064878464,0.04210496
1570715599,-1.8344727,-8.604446,1.664154,-4.4250488E-4,0.0031280518,-4.272461E-4,-0.027623415,0.031276703,0.030390859
1570715599,-1.8045502,-8.65593,1.6725464,-0.0036468506,0.01272583,0.003829956,0.017297745,0.018445969,0.006795168
1570715599,-1.8344727,-8.703812,1.7383881,-0.0015106201,0.0010070801,0.0048980713,-0.04008937,-0.015943527,0.030337334
1570715599,-1.7375183,-8.642761,1.6486053,-4.4250488E-4,-0.009643555,6.4086914E-4,0.062064648,0.0035181046,0.024241328
1570715599,-1.8260956,-8.648743,1.7204285,-0.0025787354,0.0031280518,-4.272461E-4,-0.020137906,0.011841774,0.020977259
1570715599,-1.942215,-8.664307,1.6689453,-4.4250488E-4,0.0063323975,0.0027618408,-0.13365364,-0.024785995,0.012985945
1570715599,-1.7434998,-8.676285,1.6150818,0.002746582,0.008453369,-4.272461E-4,0.048051953,0.032855034,-0.05591309
1570715599,-1.808136,-8.672684,1.6486053,0.0059509277,0.011657715,-0.0014953613,0.0034000874,-0.0045957565,-0.0011113882
1570715599,-1.7339172,-8.624802,1.5947266,0.0016784668,0.0010070801,0.0017089844,0.085780025,0.024549484,-0.09588921
1570715599,-1.8679962,-8.667892,1.5923309,0.0059509277,0.015914917,-0.0025634766,-0.01498282,-0.005044937,-0.074965715
1570715599,-1.7434998,-8.69902,1.6342316,0.008071899,-0.0128479,0.0017089844,0.04514563,-0.011550903,0.0032063723
1570715599,-1.784195,-8.675079,1.6246643,0.0016784668,0.0010070801,-0.003616333,0.05589378,0.003619194,-0.0040603876
1570715599,-1.8129272,-8.649948,1.6210632,-0.0015106201,-0.006454468,6.4086914E-4,-0.04259038,-0.0075416565,-0.05730343
1570715599,-1.7698364,-8.665512,1.7072601,0.0048828125,-0.0032653809,6.4086914E-4,0.063450456,-0.02193737,0.04277861
1570715600,-1.7650452,-8.606842,1.7312012,0.009140015,-0.0053863525,0.003829956,0.00496912,0.012705803,0.10741615
1570715600,-1.8260956,-8.671494,1.6473999,6.2561035E-4,-0.007522583,0.0017089844,-0.0052303076,0.0020580292,0.007827997
1570715600,-1.7973633,-8.7313385,1.6497955,0.0038146973,-0.0011291504,-4.272461E-4,0.030251384,-0.052957535,-0.026062965
1570715600,-1.7662506,-8.681061,1.6976776,0.0059509277,0.005264282,-4.272461E-4,0.0144354105,-0.043540955,0.032796144
1570715600,-1.808136,-8.648743,1.7216187,-0.0025787354,-0.0021972656,0.0027618408,-0.010952711,0.0102882385,0.010496616
1570715600,-1.8524323,-8.712189,1.655777,-0.0015106201,-0.0032653809,0.003829956,0.008959293,-0.018738747,0.05679083
1570715600,-1.6609039,-8.640366,1.7288055,6.2561035E-4,-0.0128479,0.0027618408,0.11102581,-0.020765305,0.107331395
1570715600,-1.818924,-8.669098,1.679718,-4.4250488E-4,-6.1035156E-5,-4.272461E-4,0.014539719,0.024748802,-0.0116273165
1570715600,-1.8512421,-8.665512,1.6809235,0.0048828125,-0.0128479,-4.272461E-4,-0.04264152,0.003071785,0.015989304
1570715600,-1.7854004,-8.667892,1.7072601,0.011276245,0.004196167,6.4086914E-4,0.0040535927,-0.00392437,0.025300384
1570715600,-1.7901917,-8.725357,1.6174774,0.002746582,-0.006454468,0.0059661865,-0.035001636,-0.032372475,-0.0743531
1570715600,-1.7710266,-8.695435,1.6102905,-0.004714966,0.0020751953,-0.0025634766,0.05118215,-0.06981182,-0.04765427
1570715600,-1.8404694,-8.61882,1.758728,-0.0015106201,0.005264282,-4.272461E-4,-0.04343295,0.032161713,0.039034367
1570715600,-1.80336,-8.6080475,1.6509857,-0.0025787354,0.0020751953,6.4086914E-4,0.0097801685,0.023392677,0.03800726
1570715600,-1.8416595,-8.676285,1.7312012,0.0038146973,0.0074005127,0.0017089844,-0.06723571,-0.02261734,0.038391948
1570715600,-1.7219543,-8.682266,1.6294403,6.2561035E-4,-0.0043182373,-0.0014953613,0.10357058,-0.008574486,-0.036929846
1570715600,-1.827301,-8.639175,1.6629639,-4.4250488E-4,0.004196167,6.4086914E-4,-0.051547885,-0.0025367737,-0.02108705
1570715600,-1.80336,-8.671494,1.6845093,-0.0036468506,-0.009643555,0.0017089844,-0.004512906,-0.007910728,0.02541244
1570715600,-1.7818146,-8.683456,1.6809235,-0.004714966,0.0074005127,-0.0014953613,0.029354692,-0.010877609,0.007931709
1570715600,-1.8308868,-8.696625,1.7168274,-0.007904053,0.0063323975,-0.0057525635,-0.05893874,-0.002450943,0.035470963
1570715600,-1.7985687,-8.663116,1.6689453,-0.015365601,0.0010070801,-0.0057525635,-0.013899922,0.02279377,0.006310463
1570715600,-1.7973633,-8.635574,1.7288055,-0.014297485,0.008453369,-0.0046844482,-0.02556467,-0.032839775,0.09351528
1570715600,-1.7949677,-8.634384,1.7515564,-0.010040283,-0.0032653809,-0.0014953613,0.01992333,0.022155762,0.049184322
1570715600,-1.8237,-8.65712,1.5971222,-0.01322937,0.0063323975,-4.272461E-4,-0.02716279,-0.012971878,0.031567097
1570715600,-1.7746277,-8.709793,1.6330414,-0.014297485,0.0063323975,-0.0057525635,-0.0021435022,-0.038236618,-0.044102788
1570715600,-1.8165283,-8.703812,1.664154,-0.014297485,0.013793945,-0.0057525635,-0.033237696,0.0027093887,0.0035625696
1570715600,-1.8380737,-8.701416,1.6653595,-0.021759033,0.014846802,-0.0046844482,-0.05962038,-0.03178501,0.022378802
1570715600,-1.8153229,-8.63797,1.5396576,-0.019622803,0.016983032,-0.003616333,-0.005548954,0.036488533,-0.1099813
1570715600,-1.7051849,-8.654724,1.5971222,-0.01109314,0.005264282,0.0027618408,0.07005465,-0.0076150894,-0.029171705
1570715600,-1.6944122,-8.642761,1.5815582,-0.01109314,0.008453369,-0.0057525635,0.09616256,0.035993576,-0.08567035
1570715600,-1.871582,-8.65712,1.5528259,-0.010040283,0.008453369,-0.0046844482,-0.063598156,0.027127266,-0.027142406
1570715600,-1.7530823,-8.661911,1.6438141,-0.004714966,0.0010070801,-4.272461E-4,-0.0022594929,-0.024312973,-0.05121064
1570715600,-1.7806091,-8.621216,1.659378,-0.0036468506,-0.0032653809,6.4086914E-4,0.017315626,0.03914547,0.028318405
1570715601,-1.7159729,-8.705017,1.6138763,-0.004714966,-0.0043182373,-0.0025634766,0.034198403,-0.028416634,-0.020525813
1570715601,-1.7985687,-8.665512,1.6102905,6.2561035E-4,0.0010070801,-0.003616333,-0.014278173,0.019731522,0.011594653
1570715601,-1.7782135,-8.635574,1.635437,0.0016784668,-0.0021972656,-0.0014953613,0.026055217,-0.0037193298,0.024571657
1570715601,-1.7506866,-8.664307,1.6617737,-0.0068359375,0.0031280518,-0.003616333,0.043051243,0.0075216293,0.019068599
1570715601,-1.7650452,-8.670288,1.7276001,-0.0036468506,0.004196167,-0.0046844482,-0.03366053,-0.005343437,0.070348024
1570715601,-1.7542725,-8.683456,1.6857147,-0.008972168,0.0031280518,-0.0014953613,0.05473578,0.0021266937,0.026413918
1570715601,-1.7818146,-8.708603,1.6426086,-0.010040283,0.0020751953,-0.003616333,-0.003866315,-0.011965752,0.042227626
1570715601,-1.7219543,-8.677475,1.5707855,-0.01322937,-0.0011291504,-0.0046844482,0.026177526,0.022508621,-0.04243982
1570715601,-1.8368683,-8.688248,1.6102905,-0.015365601,-6.1035156E-5,-0.0014953613,-0.05037594,-0.024371147,0.023808599
1570715601,-1.7063904,-8.681061,1.5851593,-0.014297485,-0.011779785,0.003829956,0.040604234,-0.011678696,-0.05574298
1570715601,-1.7458954,-8.742126,1.5480499,-0.019622803,-0.0043182373,-0.003616333,0.011018515,-0.07417107,-0.06800079
1570715601,-1.72435,-8.667892,1.6138763,-0.021759033,-0.007522583,-0.0014953613,-0.026472807,0.002981186,-0.03599882
1570715601,-1.7961731,-8.683456,1.5504303,-0.02494812,-0.009643555,-0.0014953613,-0.021132112,0.024151802,-0.037833452
1570715601,-1.7650452,-8.675079,1.611496,-0.02281189,-0.020309448,-0.0014953613,-0.0066678524,-0.0039815903,0.04921329
1570715601,-1.7590637,-8.594879,1.6881104,-0.015365601,-0.018173218,0.0017089844,0.00970304,0.08439255,0.08683479
1570715601,-1.7901917,-8.682266,1.659378,-0.0057678223,-0.016036987,6.4086914E-4,-0.0332855,0.046689034,0.039252043
1570715601,-1.8057556,-8.665512,1.5252991,-0.0025787354,-0.01071167,0.0017089844,0.009811163,0.010119438,-0.074763894
1570715601,-1.7578583,-8.695435,1.5444489,0.0038146973,-0.017105103,0.0027618408,0.017092705,-0.023065567,-0.05820763
1570715601,-1.772232,-8.670288,1.580368,0.002746582,-0.008590698,-0.0014953613,0.012000442,0.018419266,-0.021805882
1570715601,-1.772232,-8.69902,1.4881897,-0.0025787354,-0.016036987,-4.272461E-4,-0.0025606155,-0.012023926,-0.08310425
1570715601,-1.7578583,-8.708603,1.5995178,-0.008972168,0.0020751953,-0.0014953613,0.03324747,0.0030574799,-0.029248
1570715601,-1.7411041,-8.703812,1.611496,-0.008972168,-0.011779785,-0.003616333,-0.00555408,-0.012070656,0.040111184
1570715601,-1.7411041,-8.65712,1.5061493,-0.015365601,-0.018173218,-4.272461E-4,0.06111133,0.025538445,-0.05574894
1570715601,-1.8213043,-8.71698,1.6258545,-0.020690918,-0.011779785,-0.0046844482,-0.052155018,-0.029261589,0.043626785
1570715601,-1.8093414,-8.667892,1.671341,-0.021759033,-0.019241333,-0.0014953613,-0.055332184,0.02184391,0.08856356
1570715601,-1.7997589,-8.67868,1.6306458,-0.020690918,-0.014968872,-4.272461E-4,-0.039117694,0.04281044,0.07439852
1570715601,-1.7985687,-8.670288,1.6964874,-0.014297485,-0.009643555,-0.0025634766,-0.054059625,0.048862457,0.12350476
1570715601,-1.7423096,-8.65593,1.616272,-4.4250488E-4,-0.009643555,6.4086914E-4,0.030440688,0.041612625,0.035173893
1570715601,-1.8105316,-8.677475,1.5863495,-4.4250488E-4,0.005264282,-0.003616333,-0.02336669,0.006855011,0.02646041
1570715601,-1.8512421,-8.720566,1.5193176,6.2561035E-4,0.009521484,-0.003616333,-0.090488434,-0.030824661,-0.062017918
1570715601,-1.7758179,-8.707397,1.4666443,-0.0025787354,0.0074005127,6.4086914E-4,-0.012909651,-0.030277252,-0.091150284
1570715601,-1.7195587,-8.738525,1.4953766,-0.0068359375,0.013793945,6.4086914E-4,0.06283939,-0.04051113,-0.07078147
1570715601,-1.6884308,-8.713394,1.4893799,-0.0068359375,0.008453369,-0.0025634766,0.07500005,-0.02071762,-0.08756006
1570715602,-1.7614594,-8.700226,1.5097351,-0.004714966,0.013793945,-0.0046844482,0.014695406,-0.0193367,-0.030151606
1570715602,-1.7039948,-8.6870575,1.5061493,0.0059509277,-0.01071167,6.4086914E-4,0.055686116,-0.0053958893,-0.055953622
1570715602,-1.6788635,-8.6870575,1.532486,0.0059509277,-6.1035156E-5,-0.003616333,0.06462324,-0.004556656,-0.025062084
1570715602,-1.8368683,-8.788803,1.4917755,-4.4250488E-4,0.0074005127,-0.0057525635,-0.061263442,-0.09610462,-0.05167198
1570715602,-1.7806091,-8.61882,1.5839539,0.009140015,0.0031280518,0.0027618408,-0.016876936,0.035710335,0.040924907
1570715602,-1.7159729,-8.642761,1.7599335,0.0016784668,0.0074005127,0.0048980713,0.049809217,0.042524338,0.19771302
1570715602,-1.7542725,-8.666702,1.5851593,0.01979065,0.0063323975,-0.0014953613,0.023105145,0.0179739,0.012987018
1570715602,-1.8057556,-8.744507,1.5683899,0.020858765,0.014846802,-0.0068206787,0.0019203424,-0.044070244,-0.014860272
1570715602,-1.7854004,-8.69783,1.5731812,0.0048828125,0.018051147,-0.0025634766,-0.013020515,0.012217522,0.00683558
1570715602,-1.8165283,-8.661911,1.5911407,0.009140015,0.008453369,0.0017089844,-0.058682084,0.016835213,0.033966422
1570715602,-1.6441345,-8.714584,1.5695953,0.0038146973,0.0031280518,0.0027618408,0.11704552,-0.03998661,-0.03203821
1570715602,-1.7925873,-8.719376,1.556427,-0.0015106201,0.02017212,-0.0057525635,0.004060507,-0.06375694,-0.06329739
1570715602,-1.7542725,-8.670288,1.6629639,-0.0025787354,-0.01071167,0.0017089844,-0.025852084,0.021510124,0.06466472
1570715602,-1.684845,-8.666702,1.635437,0.0016784668,-0.0032653809,0.0027618408,0.08233273,0.044730186,0.021643877
1570715602,-1.7865906,-8.679871,1.576767,-0.0025787354,-6.1035156E-5,6.4086914E-4,-0.051919103,0.002978325,0.02009809
1570715602,-1.748291,-8.624802,1.5540314,-0.0015106201,-0.0032653809,0.003829956,0.042475104,0.029677391,-0.027106166
1570715602,-1.7806091,-8.681061,1.580368,0.0059509277,-0.0032653809,-4.272461E-4,-0.02298224,0.0034589767,0.006175518
1570715602,-1.7566681,-8.679871,1.5743713,0.002746582,-0.008590698,0.0059661865,-0.004737973,0.013813019,-0.044192314
1570715602,-1.7913818,-8.71817,1.4343109,-4.4250488E-4,0.011657715,-0.0025634766,0.011602163,-0.04496479,-0.1161927
1570715602,-1.7782135,-8.710999,1.5288849,-0.004714966,0.0020751953,-4.272461E-4,-0.02729249,0.018456459,-0.06404734
1570715602,-1.7375183,-8.689453,1.5528259,-0.010040283,-0.0011291504,0.0027618408,0.009804249,0.008324623,-0.021741271
1570715602,-1.779419,-8.661911,1.5887451,-0.010040283,-0.0032653809,0.0027618408,0.004467249,-0.039697647,0.023815155
1570715602,-1.7470856,-8.660721,1.5707855,-0.008972168,-0.007522583,-4.272461E-4,-0.007830858,0.05463314,-0.0019936562
1570715602,-1.784195,-8.689453,1.5648041,-0.014297485,-0.01071167,6.4086914E-4,-0.010385156,0.03430271,-0.009633303
1570715602,-1.8021545,-8.758881,1.4869843,-0.019622803,-0.023498535,6.4086914E-4,-0.038027883,-0.044923782,-0.061223507
1570715602,-1.7949677,-8.708603,1.516922,-0.02281189,-0.030960083,0.0017089844,-0.048461318,-0.057061195,-0.036037087
1570715602,-1.7279358,-8.6870575,1.5276947,-0.033462524,-0.014968872,-0.0046844482,0.03038907,-0.030340195,-0.083533764
1570715602,-1.8177185,-8.664307,1.640213,-0.03453064,-0.006454468,6.4086914E-4,-0.0797596,0.0036344528,0.11074567
1570715602,-1.7375183,-8.641556,1.5995178,-0.02281189,-0.02456665,0.0070343018,0.0067687035,0.0737133,0.05338657
1570715602,-1.739914,-8.616425,1.7228241,0.0038146973,-0.0128479,-0.003616333,0.06528759,0.08391476,0.17483413
1570715602,-1.7710266,-8.631989,1.619873,0.016601562,-0.0053863525,-0.0068206787,-0.012533903,0.07240772,0.08699381
1570715602,-1.8536377,-8.710999,1.5300903,0.020858765,0.011657715,-0.0014953613,-0.10051668,0.008049011,-0.021098018
1570715602,-1.7901917,-8.708603,1.556427,0.029388428,0.0010070801,6.4086914E-4,-0.0067311525,-0.04427433,-0.0017131567
1570715602,-1.7602539,-8.707397,1.5336761,0.01979065,0.016983032,6.4086914E-4,0.038941145,-0.027501106,-0.02158761
1570715603,-1.7423096,-8.702621,1.4786072,0.01979065,-6.1035156E-5,0.0059661865,-0.018881798,-0.02848816,-0.051430464
1570715603,-1.5735168,-8.641556,1.5229034,0.025115967,0.0020751953,-4.272461E-4,0.18560398,0.030674934,-0.025915623
1570715603,-1.7566681,-8.669098,1.6054993,0.030441284,0.008453369,-0.0014953613,0.0016425848,-0.026496887,0.03480935
1570715603,-1.669281,-8.701416,1.4558716,0.022994995,-0.013916016,0.003829956,0.04910648,0.007037163,-0.13925946
1570715603,-1.7734222,-8.748108,1.5839539,0.020858765,-0.006454468,0.0027618408,0.048454165,-0.07635784,-0.015624523
1570715603,-1.7111816,-8.707397,1.5121307,0.026184082,-0.025634766,0.008102417,0.031089306,-0.033599854,-0.0788759
1570715603,-1.7255402,-8.727753,1.5432587,0.0048828125,0.0010070801,-0.0025634766,0.0722512,0.0030937195,-0.06482947
1570715603,-1.8177185,-8.688248,1.664154,0.0059509277,-0.0011291504,0.0059661865,-0.10054362,-0.011014938,0.04826653
1570715603,-1.6752625,-8.628403,1.6629639,0.01020813,-0.0128479,0.0059661865,0.07934308,0.043553352,0.075202346
1570715603,-1.8416595,-8.63797,1.6904907,0.011276245,0.019119263,0.003829956,-0.06292164,0.03757,0.04129541
1570715603,-1.7255402,-8.71579,1.595932,0.015533447,-0.0043182373,0.0027618408,-0.03614545,-0.021483421,-0.020817399
1570715603,-1.7590637,-8.605652,1.6378174,0.016601562,0.01272583,0.0017089844,0.04764831,0.049804688,0.0820322
1570715603,-1.8656006,-8.748108,1.5516357,0.007003784,0.018051147,0.0027618408,-0.09035802,-0.047096252,-0.068478346
1570715603,-1.8260956,-8.71698,1.5731812,0.01234436,0.0020751953,0.008102417,-0.07618022,-0.0569067,-0.021011353
1570715603,-1.72435,-8.630783,1.7419739,0.0059509277,0.008453369,0.008102417,0.039379478,0.049835205,0.115650296
1570715603,-1.7554779,-8.666702,1.5755768,0.01020813,0.005264282,0.0017089844,0.03764546,0.002035141,-0.045468092
1570715603,-1.9087067,-8.696625,1.6186676,0.009140015,0.01272583,-0.0025634766,-0.11562264,-0.01670456,-0.0066685677
1570715603,-1.7578583,-8.651138,1.5923309,0.01020813,0.005264282,0.0027618408,0.012499571,0.005724907,-0.01399374
1570715603,-1.7949677,-8.688248,1.5779724,0.008071899,0.009521484,0.0048980713,-0.0067425966,0.008695602,-0.023343444
1570715603,-1.7494812,-8.705017,1.6186676,0.008071899,-0.0011291504,0.0048980713,-6.937981E-5,-0.045475006,-0.006959319
1570715603,-1.8021545,-8.665512,1.5743713,0.002746582,0.018051147,-0.0014953613,0.017024994,0.008528709,-0.02498436
1570715603,-1.8105316,-8.664307,1.6893005,-0.0036468506,0.01272583,-0.0025634766,-0.020430326,-0.024416924,0.06212461
1570715603,-1.7578583,-8.648743,1.6054993,0.007003784,0.0010070801,0.003829956,-0.03606999,0.039827347,-0.022738338
1570715603,-1.7854004,-8.684662,1.6677551,0.002746582,0.011657715,6.4086914E-4,0.018387198,-0.029006958,0.032046437
1570715603,-1.7542725,-8.643951,1.5923309,-4.4250488E-4,0.0031280518,-0.0025634766,0.020161033,-0.016681671,-0.0028959513
1570715603,-1.8344727,-8.724167,1.6497955,-0.0025787354,0.009521484,-4.272461E-4,-0.05154288,0.007569313,0.005417466
1570715603,-1.7255402,-8.679871,1.6462097,-0.0025787354,-0.0021972656,6.4086914E-4,0.015019059,-0.023649216,0.070771456
1570715603,-1.7746277,-8.681061,1.640213,-0.004714966,0.014846802,-0.007888794,-0.028606534,0.02253151,0.031978607
1570715603,-1.8572235,-8.694229,1.5935364,-0.016418457,0.02444458,-0.0068206787,-0.05543554,-0.056607246,-0.01673448
1570715603,-1.7458954,-8.659515,1.6689453,-0.015365601,0.011657715,-0.0025634766,0.032102704,0.02673626,0.053227544
1570715603,-1.7530823,-8.631989,1.703659,-0.008972168,0.013793945,-0.0014953613,0.01747477,0.034192085,0.09705424
1570715603,-1.708786,-8.693039,1.5983276,-0.007904053,-6.1035156E-5,-0.0014953613,0.06829977,-0.0064554214,-0.020442009
1570715603,-1.7387085,-8.737335,1.5468445,-0.018554688,0.0063323975,-0.0057525635,0.032611966,-0.039157867,-0.033121705
1570715604,-1.8105316,-8.701416,1.5827637,-0.017486572,0.008453369,-0.003616333,-0.028626084,-0.028085709,-0.0145487785
1570715604,-1.8799744,-8.681061,1.6258545,-0.021759033,-0.0011291504,0.0017089844,-0.09459078,0.020284653,0.037481904
1570715604,-1.7782135,-8.646347,1.6306458,-0.030273438,0.0063323975,0.0017089844,-0.008466721,0.009291649,-0.0809294
1570715604,-1.7075806,-8.691849,1.4474792,-0.015365601,0.0010070801,-0.003616333,0.0662806,-0.024226189,-0.13094342
1570715604,-1.7626495,-8.660721,1.5300903,-0.020690918,0.008453369,-0.011077881,0.09035885,-0.0035114288,-0.06516552
1570715604,-1.8775787,-8.700226,1.5779724,-0.021759033,-0.0032653809,-0.0025634766,-0.14831674,2.0217896E-4,-0.007712722
1570715604,-1.6992035,-8.688248,1.5420532,-0.021759033,-0.006454468,0.0017089844,0.04360509,-0.012791634,-0.061919928
1570715604,-1.6381531,-8.676285,1.5731812,-0.010040283,-0.0128479,6.4086914E-4,0.1404978,0.004447937,0.0084267855
1570715604,-1.7135773,-8.622406,1.5791626,-0.0068359375,-0.025634766,0.003829956,0.054080606,0.06516838,0.0044407845
1570715604,-1.7782135,-8.669098,1.5312805,-0.012161255,-0.02243042,-4.272461E-4,-0.017245531,0.0029039383,-0.056653857
1570715604,-1.8452606,-8.721771,1.4905853,-0.01322937,-0.011779785,-0.0025634766,-0.04372561,-0.042616844,-0.06784797
1570715604,-1.8021545,-8.661911,1.5743713,-0.020690918,-0.016036987,6.4086914E-4,-0.02977264,0.033391,0.009463191
1570715604,-1.739914,-8.73613,1.5528259,-0.015365601,-0.016036987,0.0017089844,0.023101807,-0.02435875,-0.0037544966
1570715604,-1.7566681,-8.732544,1.5552216,-0.017486572,-0.011779785,-0.003616333,0.042149782,-0.03748989,-0.053059816
1570715604,-1.7315216,-8.703812,1.5396576,-0.017486572,-0.0128479,-0.003616333,-0.0038044453,-0.00344944,-0.07430816
1570715604,-1.8284912,-8.701416,1.5229034,-0.02494812,-0.011779785,-0.0057525635,-0.03386748,-0.00740242,-0.016138673
1570715604,-1.8021545,-8.685852,1.501358,-0.029205322,-0.018173218,-0.0025634766,-0.053214073,-5.2165985E-4,-0.051763177
1570715604,-1.7303314,-8.684662,1.5085449,-0.028137207,-0.025634766,-0.003616333,0.019044876,0.0095386505,-2.1457672E-6
1570715604,-1.6860352,-8.658325,1.5504303,-0.028137207,-0.014968872,-0.012145996,0.06933093,0.032611847,0.046639323
1570715604,-1.8656006,-8.708603,1.5671997,-0.031341553,0.0010070801,-0.013214111,-0.12888515,-0.01508522,0.05115509
1570715604,-1.8021545,-8.626007,1.4702301,-0.030273438,-0.021362305,-0.0057525635,-0.042854786,0.077736855,-0.03928089
1570715604,-1.772232,-8.653534,1.5731812,-0.016418457,-0.0128479,-0.010009766,-0.010125041,0.047050476,0.086492896
1570715604,-1.7494812,-8.720566,1.5444489,-0.008972168,-0.01071167,-0.012145996,0.0056091547,-1.9645691E-4,0.041606426
1570715604,-1.7997589,-8.672684,1.5252991,-0.015365601,0.0063323975,-0.008956909,-0.039999604,0.033032417,0.03128898
1570715604,-1.8679962,-8.700226,1.4678345,-0.014297485,0.025497437,-0.013214111,-0.10348904,-0.025082588,-0.016675472
1570715604,-1.6956177,-8.683456,1.4486847,-0.014297485,-0.009643555,-0.008956909,0.013860583,0.008719444,-0.05191505
1570715604,-1.5759125,-8.693039,1.4343109,-0.023880005,0.004196167,-0.018539429,0.17522645,0.019198418,-0.028247476
1570715604,-1.7339172,-8.752899,1.3600922,-0.047317505,0.028701782,-0.03237915,-0.015895724,-0.025611877,-0.08299422
1570715604,-1.8895416,-8.787613,1.3816528,-0.05050659,0.026565552,-0.026000977,-0.1455543,-0.07382679,-0.07211578
1570715604,-1.7387085,-8.702621,1.4869843,-0.052642822,0.015914917,-0.016403198,-0.020287633,0.023674965,0.05265093
1570715604,-1.739914,-8.679871,1.5217133,-0.045181274,0.008453369,-0.015335083,-0.009798169,0.051792145,0.08116114
1570715604,-1.7039948,-8.773239,1.4822083,-0.051574707,-0.007522583,-0.010009766,0.020011306,-0.044638634,0.07973707
1570715604,-1.7099762,-8.775635,1.4031982,-0.052642822,0.021240234,-0.015335083,0.013261795,-0.030946732,6.2072277E-4
1570715605,-1.7746277,-8.667892,1.5444489,-0.03453064,0.032958984,6.4086914E-4,-0.051414013,0.058722496,0.16019917
1570715605,-1.6776581,-8.640366,1.5480499,-0.015365601,0.014846802,0.010223389,0.03423536,0.083600044,0.16505873
1570715605,-1.6429443,-8.79718,1.4486847,-0.008972168,0.028701782,0.0048980713,0.076032996,-0.0503664,0.06370771
1570715605,-1.5687256,-8.740921,1.248764,-0.014297485,0.046813965,-0.0025634766,0.110150576,-0.009257317,-0.12461209
1570715605,-1.5830841,-8.762466,1.3205872,-0.02281189,0.06492615,-0.003616333,0.12448251,-0.020565987,-0.034513116
1570715605,-1.6273804,-8.772049,1.2870789,-0.032409668,0.037216187,0.0048980713,0.08163285,-0.024245262,-0.08305144
1570715605,-1.6273804,-8.714584,1.2559509,-0.032409668,0.027633667,0.015548706,0.077929854,0.0051755905,-0.10748255
1570715605,-1.4945068,-8.676285,1.3553162,-0.023880005,0.04788208,0.003829956,0.24766672,0.050499916,-0.028880835
1570715605,-1.6740723,-8.673889,1.2427826,-0.02281189,0.037216187,-4.272461E-4,0.06770635,0.08707905,-0.0049455166
1570715605,-1.7375183,-8.799576,1.169754,-0.02281189,0.021240234,0.008102417,-0.01886487,-0.07553387,-0.13156843
1570715605,-1.6609039,-8.702621,1.2787018,-0.016418457,0.01272583,0.014480591,0.035457253,0.0062742233,-0.066449046
1570715605,-1.6333618,-8.714584,1.2834778,-0.029205322,0.01272583,0.010223389,0.061688423,0.03469181,-0.018824816
1570715605,-1.8237,-8.8055725,1.2128601,-0.026016235,0.032958984,0.0048980713,-0.07948303,-0.06315613,-0.0963608
1570715605,-1.7830048,-8.712189,1.1529999,-0.01322937,-0.017105103,0.012359619,-0.050124645,-0.019630432,-0.15827334
1570715605,-1.6249847,-8.722961,1.3361511,-0.01322937,0.028701782,0.003829956,0.09356904,0.016685486,0.08093214
1570715605,-1.9075012,-8.742126,1.2739105,-0.015365601,0.015914917,-4.272461E-4,-0.15299106,0.016145706,0.010725379
1570715605,-1.847641,-8.769653,1.2164459,-0.026016235,0.004196167,0.008102417,-0.16250193,-0.024446487,-0.03268552
1570715605,-1.7614594,-8.6870575,1.2391968,-0.017486572,0.028701782,0.011291504,-0.03434491,0.033172607,-0.0055754185
1570715605,-1.7219543,-8.700226,1.3229828,-0.016418457,0.032958984,0.0070343018,0.030217767,0.04681778,0.048162103
1570715605,-1.7590637,-8.705017,1.2739105,-0.017486572,0.0020751953,0.011291504,-0.03177929,0.01978302,0.05388534
1570715605,-1.7075806,-8.755295,1.2332001,-0.007904053,-0.0021972656,0.018753052,0.018770218,-0.03924656,0.024470925
1570715605,-1.6788635,-8.707397,1.169754,-0.015365601,0.015914917,0.012359619,0.06207776,0.0053300858,-0.07125151
1570715605,-1.8452606,-8.754089,1.200882,-0.026016235,0.02017212,0.008102417,-0.074801445,0.06174183,0.030047774
1570715605,-1.8296967,-8.785217,1.2368011,-0.015365601,0.005264282,0.019805908,-0.09050369,-0.0052604675,0.015754461
1570715605,-1.7806091,-8.663116,1.1182861,-0.0015106201,0.026565552,0.016616821,-0.030910492,0.03299141,-0.096327186
1570715605,-1.8045502,-8.702621,1.1290588,-0.004714966,0.048934937,0.012359619,0.0052759647,0.014462471,-0.07076836
1570715605,-1.7159729,-8.792404,1.1242676,-0.0057678223,0.04360962,0.012359619,0.03834212,-0.017036438,-0.07563841
1570715605,-1.7279358,-8.713394,1.3146057,0.0048828125,-6.1035156E-5,0.0059661865,0.048330307,-0.046740532,0.12656415
1570715605,-1.8524323,-8.710999,1.0727997,-0.0015106201,0.0105896,0.009155273,-0.06320083,0.025637627,-0.08606005
1570715605,-1.7387085,-8.720566,1.1972961,-0.010040283,0.011657715,0.011291504,0.0314852,-0.00244236,-0.013664961
1570715605,-1.6788635,-8.786407,1.2763062,-0.014297485,0.028701782,0.013427734,0.098894835,-0.035391808,0.026923656
1570715605,-1.7351227,-8.694229,1.2128601,-4.4250488E-4,0.02017212,0.008102417,0.04825461,0.0121126175,0.0062115192
1570715605,-1.9517975,-8.800781,1.3170013,-0.0025787354,0.048934937,0.003829956,-0.14229167,-0.038298607,0.09394002
1570715605,-1.8380737,-8.749298,1.0895538,-0.007904053,0.032958984,0.003829956,-0.0597893,0.0386734,-0.05199945
1570715606,-1.8117371,-8.703812,1.1194763,-0.01109314,0.07344055,-0.0025634766,0.0078758,-0.03937149,-0.028657556
1570715606,-1.8811646,-8.705017,1.2260284,-0.007904053,0.060653687,0.008102417,-0.06394136,0.05083084,0.014375091
1570715606,-1.7937775,-8.744507,1.1517944,-0.004714966,0.06492615,0.0048980713,0.046485066,-0.009322166,-0.010722518
1570715606,-1.763855,-8.818741,1.1182861,-0.0025787354,0.081970215,-0.0014953613,0.082431436,-0.03766918,-0.099916935
1570715606,-1.7099762,-8.719376,1.1278534,-0.0025787354,0.09474182,-0.0025634766,0.08251393,0.03515911,-0.08052528
1570715606,-1.8572235,-8.670288,1.1709595,0.002746582,0.09580994,6.4086914E-4,-0.007822514,0.02842331,0.07837474
1570715606,-1.7411041,-8.804367,1.109909,-0.0015106201,0.101135254,0.0059661865,-0.012206912,-0.037303925,-0.05533302
1570715606,-1.6632996,-8.708603,1.0296936,0.0016784668,0.0851593,-4.272461E-4,0.12371707,-0.00935936,-0.0863235
1570715606,-1.7159729,-8.745712,1.1553955,0.0016784668,0.093673706,-0.010009766,0.11585343,0.0054979324,-0.024465084
1570715606,-1.8763733,-8.739731,1.1266632,0.008071899,0.06278992,0.0017089844,-0.06155622,0.0010328293,0.026208758
1570715606,-1.6345673,-8.617615,1.0105438,0.01020813,0.07557678,-0.0025634766,0.13376272,0.065564156,-0.1135416
1570715606,-1.9051056,-8.73494,1.2188416,0.013397217,0.068115234,-4.272461E-4,-0.049748063,-0.035817146,0.06822705
1570715606,-1.784195,-8.709793,1.1529999,0.013397217,0.021240234,6.4086914E-4,0.046310544,0.008600235,-0.02833867
1570715606,-1.8967285,-8.727753,1.1577911,0.013397217,0.041488647,-0.0014953613,-0.078421235,-0.029432297,0.017820597
1570715606,-1.8811646,-8.750504,1.1410217,0.01020813,0.046813965,0.0027618408,-0.07022786,-0.03421688,-0.012547255
1570715606,-1.7686462,-8.732544,1.1003265,0.008071899,0.02444458,0.0017089844,0.03317964,-0.006532669,-0.013755441
1570715606,-1.8153229,-8.707397,1.1925049,-0.0057678223,0.054260254,-0.011077881,-0.012109399,0.005470276,0.07433188
1570715606,-1.8931427,-8.727753,1.209259,-0.0015106201,0.027633667,-0.003616333,-0.089500785,0.008997917,0.093057394
1570715606,-1.8464508,-8.703812,1.1374359,-0.0036468506,0.039352417,-0.0014953613,-0.055077434,0.0016765594,-0.0019876957
1570715606,-1.8464508,-8.703812,1.1374359,-0.0036468506,0.039352417,-0.0014953613,-0.055077434,0.0016765594,-0.0019876957
1570715606,-1.8464508,-8.703812,1.1374359,-0.0036468506,0.039352417,-0.0014953613,-0.055077434,0.0016765594,-0.0019876957
1570715606,-1.8464508,-8.703812,1.1374359,-0.0036468506,0.039352417,-0.0014953613,-0.055077434,0.0016765594,-0.0019876957
1570715606,-1.8464508,-8.703812,1.1374359,-0.0036468506,0.039352417,-0.0014953613,-0.055077434,0.0016765594,-0.0019876957
1570715606,-1.8464508,-8.703812,1.1374359,-0.0036468506,0.039352417,-0.0014953613,-0.055077434,0.0016765594,-0.0019876957
1570715606,-1.8464508,-8.703812,1.1374359,-0.0036468506,0.039352417,-0.0014953613,-0.055077434,0.0016765594,-0.0019876957
1570715606,-1.8464508,-8.703812,1.1374359,-0.0036468506,0.039352417,-0.0014953613,-0.055077434,0.0016765594,-0.0019876957
1570715606,-1.8464508,-8.703812,1.1374359,-0.0036468506,0.039352417,-0.0014953613,-0.055077434,0.0016765594,-0.0019876957
1570715606,-1.8464508,-8.703812,1.1374359,-0.0036468506,0.039352417,-0.0014953613,-0.055077434,0.0016765594,-0.0019876957
1570715606,-1.8105316,-8.69902,1.1482086,0.007003784,0.11605835,-4.272461E-4,0.08481717,0.08536053,0.03233421
1570715606,-1.8105316,-8.69902,1.1482086,0.007003784,0.11605835,-4.272461E-4,0.08481717,0.08536053,0.03233421
1570715606,-1.8105316,-8.69902,1.1482086,0.007003784,0.11605835,-4.272461E-4,0.08481717,0.08536053,0.03233421
1570715606,-1.8105316,-8.69902,1.1482086,0.007003784,0.11605835,-4.272461E-4,0.08481717,0.08536053,0.03233421
1570715606,-1.8105316,-8.69902,1.1482086,0.007003784,0.11605835,-4.272461E-4,0.08481717,0.08536053,0.03233421
1570715607,-1.8105316,-8.69902,1.1482086,0.007003784,0.11605835,-4.272461E-4,0.08481717,0.08536053,0.03233421
1570715607,-1.8105316,-8.69902,1.1482086,0.007003784,0.11605835,-4.272461E-4,0.08481717,0.08536053,0.03233421
1570715607,-1.8105316,-8.69902,1.1482086,0.007003784,0.11605835,-4.272461E-4,0.08481717,0.08536053,0.03233421
1570715607,-1.8105316,-8.69902,1.1482086,0.007003784,0.11605835,-4.272461E-4,0.08481717,0.08536053,0.03233421
1570715607,-1.8105316,-8.69902,1.1482086,0.007003784,0.11605835,-4.272461E-4,0.08481717,0.08536053,0.03233421
1570715607,-1.8105316,-8.69902,1.1482086,0.007003784,0.11605835,-4.272461E-4,0.08481717,0.08536053,0.03233421
1570715607,-1.8883514,-8.708603,1.062027,-0.030273438,0.12243652,-0.014282227,-0.04237938,0.06950569,0.016871274
1570715607,-1.8524323,-8.767258,0.9818115,-0.017486572,0.15119934,-0.016403198,-0.0034714937,-0.0051116943,0.05004984
1570715607,-1.8620148,-8.769653,0.9985657,-0.020690918,0.1554718,-0.008956909,0.004324436,-0.013134956,0.054446995
1570715607,-1.9374237,-8.708603,0.927948,-0.012161255,0.16505432,-0.012145996,-0.110628724,0.06810093,0.0075082183
1570715607,-2.0032654,-8.779236,0.9111786,0.0016784668,0.17463684,-4.272461E-4,-0.10098231,-0.064310074,-0.021159232
1570715607,-1.7231445,-8.6475525,0.9219513,6.2561035E-4,0.159729,6.4086914E-4,0.10988414,0.10791874,-0.026627839
1570715607,-1.6836395,-8.725357,0.9686432,0.009140015,0.15226746,-0.007888794,0.18526864,-0.017402649,0.07001358
1570715607,-1.7578583,-8.784012,0.8417511,0.0048828125,0.12243652,-0.0057525635,0.08043301,-0.027813911,-0.11763883
1570715607,-1.7746277,-8.788803,0.8130188,0.015533447,0.11924744,6.4086914E-4,0.004280567,-0.017374992,-0.12028414
1570715607,-1.6213989,-8.750504,0.8597107,0.014465332,0.077697754,0.0017089844,0.18868816,0.030769348,-0.072681665
1570715607,-1.7818146,-8.69783,0.91596985,0.020858765,0.07237244,-0.0025634766,0.059818625,0.041454315,0.024664044
1570715607,-1.7818146,-8.791199,0.79626465,0.01234436,0.054260254,-0.003616333,0.044780374,-0.022532463,-0.127182
1570715607,-1.7375183,-8.8498535,0.7878876,0.0016784668,0.037216187,-0.003616333,0.06908226,-0.07332516,-0.17744881
1570715607,-1.8907471,-8.739731,0.9135742,-0.0025787354,0.0382843,0.0027618408,-0.05166149,-0.020407677,0.001516819
1570715607,-1.7099762,-8.740921,0.7028961,-0.017486572,0.02017212,0.008102417,0.10186851,-0.007966995,-0.1675427
1570715607,-1.6896362,-8.775635,0.7759094,-0.018554688,-6.1035156E-5,0.003829956,0.10470235,-0.029554367,-0.029928923
1570715607,-1.6908264,-8.799576,0.8740692,-0.029205322,-0.014968872,-0.0025634766,0.12611902,-0.01654911,-0.005534172
1570715607,-1.9601746,-8.775635,0.9399109,-0.028137207,-0.02243042,0.0070343018,-0.16832602,0.013269424,0.09888232
1570715607,-1.7913818,-8.7313385,0.79626465,-0.03666687,-0.0639801,0.012359619,0.022138953,0.03129196,-0.029701889
1570715607,-1.7710266,-8.744507,0.98062134,-0.039855957,-0.044799805,0.003829956,0.079957366,0.009914398,0.10974872
1570715607,-1.9434204,-8.751694,0.9686432,-0.028137207,-0.053329468,0.011291504,-0.098817706,-0.009281158,0.05655116
1570715607,-1.8464508,-8.628403,0.95428467,-0.02494812,-0.082092285,0.02407837,-0.0026109219,0.10647869,0.072737575
1570715607,-1.8129272,-8.809158,0.89442444,-0.016418457,-0.05758667,0.011291504,0.040747285,-0.0054159164,0.058712244
1570715607,-1.9039154,-8.836685,0.7507782,-0.021759033,-0.08634949,0.010223389,-0.07980716,-0.06214428,-0.09265572
1570715607,-1.8751831,-8.804367,0.71606445,-0.040924072,-0.08314514,0.0059661865,-0.024194002,-0.05630493,-0.1440345
1570715607,-1.9972839,-8.712189,0.98779297,-0.040924072,-0.07356262,0.009155273,-0.16384625,0.04509926,0.1470254
1570715607,-1.926651,-8.71579,0.8609009,-0.04624939,-0.091674805,0.009155273,-0.079935074,0.074567795,0.006974578
1570715608,-1.9290466,-8.760071,0.97702026,-0.031341553,-0.06504822,0.0048980713,-0.10169959,-0.012750626,0.16882885
1570715608,-1.842865,-8.710999,0.8381653,-0.014297485,-0.10020447,0.009155273,0.008148074,0.05940914,-0.023613095
1570715608,-1.8332825,-8.71698,0.92674255,0.0016784668,-0.08314514,0.009155273,-0.009968877,0.02108574,0.040033102
1570715608,-1.8440552,-8.742126,0.6502228,-0.0057678223,-0.077819824,0.008102417,-0.011903644,0.022302628,-0.18615091
1570715608,-1.8560333,-8.839081,0.68133545,-0.0068359375,-0.06930542,0.0059661865,-0.024398446,-0.09151745,-0.16048294
1570715608,-1.8308868,-8.784012,0.6442261,-0.0057678223,-0.09913635,0.0059661865,-0.02090013,-0.04968548,-0.14613861
1570715608,-1.9302521,-8.752899,0.7220459,-0.01109314,-0.079956055,-0.003616333,-0.06168711,0.01638794,-0.08221018
1570715608,-1.9398193,-8.782822,0.73760986,-0.015365601,-0.09060669,0.0027618408,-0.074869156,-0.005800247,-0.0795899
1570715608,-1.847641,-8.786407,0.78189087,-0.014297485,-0.077819824,0.0017089844,0.04366684,-0.014012337,-0.026329398
1570715608,-1.827301,-8.672684,0.8297882,0.002746582,-0.077819824,0.009155273,0.0055422783,0.06402969,0.038665175
1570715608,-1.7782135,-8.730148,0.9064026,0.0048828125,-0.08102417,0.003829956,0.10028255,0.07786846,-0.010523677
1570715608,-1.9206696,-8.790009,0.8561249,0.015533447,-0.09913635,0.003829956,-0.063620925,-0.028938293,0.026785016
1570715608,-1.787796,-8.7708435,0.730423,0.017669678,-0.1108551,0.0059661865,0.081293106,-0.0027484894,-0.10325146
1570715608,-1.787796,-8.754089,0.8716736,0.020858765,-0.08421326,6.4086914E-4,0.049707413,0.0030937195,0.008853078
1570715608,-1.8608093,-8.681061,0.8190155,0.032577515,-0.07463074,0.0048980713,-0.03824234,0.02701664,-0.058685064
1570715608,-1.8129272,-8.782822,0.8381653,0.026184082,-0.082092285,0.011291504,0.023325205,-0.033932686,-0.03656006
1570715608,-1.7782135,-8.782822,0.8118286,0.037902832,-0.089538574,0.009155273,0.059948325,-0.07222462,-0.049961388
1570715608,-1.7602539,-8.751694,0.80345154,0.034713745,-0.091674805,0.0027618408,0.08423996,0.0041484833,-0.08034599
1570715608,-1.8787689,-8.767258,0.9243469,0.022994995,-0.07888794,-0.0025634766,-0.04483795,-0.013090134,0.01488471
1570715608,-1.9541931,-8.708603,0.8513336,0.024047852,-0.06716919,0.0027618408,-0.118587136,0.037644386,-0.04061967
1570715608,-1.8344727,-8.780426,0.94111633,0.018722534,-0.07356262,0.018753052,-0.03528154,-0.0147743225,0.031371176
1570715608,-1.7566681,-8.785217,0.95547485,0.018722534,-0.07888794,0.0048980713,0.06674683,-0.014409065,0.040890217
1570715608,-2.0260162,-8.73613,1.0500488,0.017669678,-0.039474487,0.0027618408,-0.13791895,0.036732674,0.08090216
1570715608,-1.8572235,-8.720566,1.0368805,0.01979065,-0.052261353,0.014480591,-0.03010881,0.010432243,0.047710776
1570715608,-1.8057556,-8.754089,1.0129395,0.029388428,-0.035217285,0.0070343018,0.023370147,-0.014184952,0.044468224
1570715608,-1.7770233,-8.7265625,0.9602661,0.032577515,-0.016036987,0.0027618408,0.03441453,0.036177635,-0.0022403002
1570715608,-1.9170837,-8.823517,0.9782257,0.025115967,-0.0043182373,-4.272461E-4,-0.049187183,-0.09362602,-0.009651482
1570715608,-1.9134827,-8.737335,0.9470978,0.014465332,-0.02243042,0.0048980713,-0.058779955,-0.0260849,-0.026585937
1570715608,-1.7542725,-8.709793,0.97224426,0.0038146973,-0.014968872,0.0059661865,0.07885158,0.031058311,0.0041874647
1570715608,-1.8320923,-8.800781,1.0153351,-0.0068359375,-0.0011291504,-0.0014953613,0.0049034357,-0.046833992,0.0356676
1570715608,-1.887146,-8.700226,1.0057526,-0.012161255,-0.01071167,0.0027618408,-0.103384376,0.01669693,0.07894617
1570715608,-1.8117371,-8.667892,1.1027222,6.2561035E-4,-0.009643555,0.009155273,-0.010217309,0.07021046,0.1175316
1570715608,-1.8129272,-8.695435,1.185318,0.007003784,-0.017105103,6.4086914E-4,0.06948066,0.029776573,0.12996781
1570715608,-1.9805298,-8.787613,1.106308,0.0016784668,-0.020309448,0.0070343018,-0.11345935,-0.015369415,0.09375107
1570715609,-1.9601746,-8.7660675,1.0189209,6.2561035E-4,-0.02456665,0.010223389,-0.11850548,-0.009882927,0.0024783611
1570715616,-1.9601746,-8.7660675,1.0189209,6.2561035E-4,-0.02456665,0.010223389,-0.11850548,-0.009882927,0.0024783611
1570715616,-1.9601746,-8.7660675,1.0189209,6.2561035E-4,-0.02456665,0.010223389,-0.11850548,-0.009882927,0.0024783611
1570715616,-1.9601746,-8.7660675,1.0189209,6.2561035E-4,-0.02456665,0.010223389,-0.11850548,-0.009882927,0.0024783611
1570715616,-1.9601746,-8.7660675,1.0189209,6.2561035E-4,-0.02456665,0.010223389,-0.11850548,-0.009882927,0.0024783611
1570715616,-1.9601746,-8.7660675,1.0189209,6.2561035E-4,-0.02456665,0.010223389,-0.11850548,-0.009882927,0.0024783611
1570715616,-1.9601746,-8.7660675,1.0189209,6.2561035E-4,-0.02456665,0.010223389,-0.11850548,-0.009882927,0.0024783611
1570715616,-1.9601746,-8.7660675,1.0189209,6.2561035E-4,-0.02456665,0.010223389,-0.11850548,-0.009882927,0.0024783611
1570715616,-1.9601746,-8.7660675,1.0189209,6.2561035E-4,-0.02456665,0.010223389,-0.11850548,-0.009882927,0.0024783611
1570715616,-1.9601746,-8.7660675,1.0189209,6.2561035E-4,-0.02456665,0.010223389,-0.11850548,-0.009882927,0.0024783611
1570715616,-1.9601746,-8.7660675,1.0189209,6.2561035E-4,-0.02456665,0.010223389,-0.11850548,-0.009882927,0.0024783611
1570715616,-1.9601746,-8.7660675,1.0189209,6.2561035E-4,-0.02456665,0.010223389,-0.11850548,-0.009882927,0.0024783611
1570715616,-1.9601746,-8.7660675,1.0189209,6.2561035E-4,-0.02456665,0.010223389,-0.11850548,-0.009882927,0.0024783611
1570715616,-1.9601746,-8.7660675,1.0189209,6.2561035E-4,-0.02456665,0.010223389,-0.11850548,-0.009882927,0.0024783611
1570715616,-1.9601746,-8.7660675,1.0189209,6.2561035E-4,-0.02456665,0.010223389,-0.11850548,-0.009882927,0.0024783611
1570715616,-1.9601746,-8.7660675,1.0189209,6.2561035E-4,-0.02456665,0.010223389,-0.11850548,-0.009882927,0.0024783611
1570715616,-1.9601746,-8.7660675,1.0189209,6.2561035E-4,-0.02456665,0.010223389,-0.11850548,-0.009882927,0.0024783611
1570715616,-1.9601746,-8.7660675,1.0189209,6.2561035E-4,-0.02456665,0.010223389,-0.11850548,-0.009882927,0.0024783611
1570715616,-1.9601746,-8.7660675,1.0189209,6.2561035E-4,-0.02456665,0.010223389,-0.11850548,-0.009882927,0.0024783611
1570715616,-1.9601746,-8.7660675,1.0189209,6.2561035E-4,-0.02456665,0.010223389,-0.11850548,-0.009882927,0.0024783611
1570715616,-1.9601746,-8.7660675,1.0189209,6.2561035E-4,-0.02456665,0.010223389,-0.11850548,-0.009882927,0.0024783611
1570715616,-1.9601746,-8.7660675,1.0189209,6.2561035E-4,-0.02456665,0.010223389,-0.11850548,-0.009882927,0.0024783611
1570715616,-1.9601746,-8.7660675,1.0189209,6.2561035E-4,-0.02456665,0.010223389,-0.11850548,-0.009882927,0.0024783611
1570715616,-1.9601746,-8.7660675,1.0189209,6.2561035E-4,-0.02456665,0.010223389,-0.11850548,-0.009882927,0.0024783611
1570715616,-1.9601746,-8.7660675,1.0189209,6.2561035E-4,-0.02456665,0.010223389,-0.11850548,-0.009882927,0.0024783611
1570715616,-1.9601746,-8.7660675,1.0189209,6.2561035E-4,-0.02456665,0.010223389,-0.11850548,-0.009882927,0.0024783611
1570715616,-1.9601746,-8.7660675,1.0189209,6.2561035E-4,-0.02456665,0.010223389,-0.11850548,-0.009882927,0.0024783611
1570715616,-1.9601746,-8.7660675,1.0189209,6.2561035E-4,-0.02456665,0.010223389,-0.11850548,-0.009882927,0.0024783611
1570715616,-1.9601746,-8.7660675,1.0189209,6.2561035E-4,-0.02456665,0.010223389,-0.11850548,-0.009882927,0.0024783611
1570715616,-1.9601746,-8.7660675,1.0189209,6.2561035E-4,-0.02456665,0.010223389,-0.11850548,-0.009882927,0.0024783611
1570715616,-1.9601746,-8.7660675,1.0189209,6.2561035E-4,-0.02456665,0.010223389,-0.11850548,-0.009882927,0.0024783611
1570715616,-1.9601746,-8.7660675,1.0189209,6.2561035E-4,-0.02456665,0.010223389,-0.11850548,-0.009882927,0.0024783611
1570715616,-1.9601746,-8.7660675,1.0189209,6.2561035E-4,-0.02456665,0.010223389,-0.11850548,-0.009882927,0.0024783611
1570715616,-1.9601746,-8.7660675,1.0189209,6.2561035E-4,-0.02456665,0.010223389,-0.11850548,-0.009882927,0.0024783611
1570715616,-1.9601746,-8.7660675,1.0189209,6.2561035E-4,-0.02456665,0.010223389,-0.11850548,-0.009882927,0.0024783611
1570715616,-1.9601746,-8.7660675,1.0189209,6.2561035E-4,-0.02456665,0.010223389,-0.11850548,-0.009882927,0.0024783611
1570715616,-1.9601746,-8.7660675,1.0189209,6.2561035E-4,-0.02456665,0.010223389,-0.11850548,-0.009882927,0.0024783611
1570715616,-1.9601746,-8.7660675,1.0189209,6.2561035E-4,-0.02456665,0.010223389,-0.11850548,-0.009882927,0.0024783611
1570715616,-1.9601746,-8.7660675,1.0189209,6.2561035E-4,-0.02456665,0.010223389,-0.11850548,-0.009882927,0.0024783611
1570715616,-1.9601746,-8.7660675,1.0189209,6.2561035E-4,-0.02456665,0.010223389,-0.11850548,-0.009882927,0.0024783611
1570715616,-1.9601746,-8.7660675,1.0189209,6.2561035E-4,-0.02456665,0.010223389,-0.11850548,-0.009882927,0.0024783611
1570715616,-1.9601746,-8.7660675,1.0189209,6.2561035E-4,-0.02456665,0.010223389,-0.11850548,-0.009882927,0.0024783611
1570715616,-1.9601746,-8.7660675,1.0189209,6.2561035E-4,-0.02456665,0.010223389,-0.11850548,-0.009882927,0.0024783611
1570715616,-1.9601746,-8.7660675,1.0189209,6.2561035E-4,-0.02456665,0.010223389,-0.11850548,-0.009882927,0.0024783611
1570715616,-1.9601746,-8.7660675,1.0189209,6.2561035E-4,-0.02456665,0.010223389,-0.11850548,-0.009882927,0.0024783611
1570715616,-1.9601746,-8.7660675,1.0189209,6.2561035E-4,-0.02456665,0.010223389,-0.11850548,-0.009882927,0.0024783611
1570715616,-1.9601746,-8.7660675,1.0189209,6.2561035E-4,-0.02456665,0.010223389,-0.11850548,-0.009882927,0.0024783611
1570715616,-1.9601746,-8.7660675,1.0189209,6.2561035E-4,-0.02456665,0.010223389,-0.11850548,-0.009882927,0.0024783611
1570715616,-1.9601746,-8.7660675,1.0189209,6.2561035E-4,-0.02456665,0.010223389,-0.11850548,-0.009882927,0.0024783611
1570715616,-1.9601746,-8.7660675,1.0189209,6.2561035E-4,-0.02456665,0.010223389,-0.11850548,-0.009882927,0.0024783611
1570715616,-1.9601746,-8.7660675,1.0189209,6.2561035E-4,-0.02456665,0.010223389,-0.11850548,-0.009882927,0.0024783611
1570715616,-1.9601746,-8.7660675,1.0189209,6.2561035E-4,-0.02456665,0.010223389,-0.11850548,-0.009882927,0.0024783611
1570715616,-1.9601746,-8.7660675,1.0189209,6.2561035E-4,-0.02456665,0.010223389,-0.11850548,-0.009882927,0.0024783611
1570715616,-1.9601746,-8.7660675,1.0189209,6.2561035E-4,-0.02456665,0.010223389,-0.11850548,-0.009882927,0.0024783611
1570715616,-1.9601746,-8.7660675,1.0189209,6.2561035E-4,-0.02456665,0.010223389,-0.11850548,-0.009882927,0.0024783611
1570715616,-1.9601746,-8.7660675,1.0189209,6.2561035E-4,-0.02456665,0.010223389,-0.11850548,-0.009882927,0.0024783611
1570715616,-1.9601746,-8.7660675,1.0189209,6.2561035E-4,-0.02456665,0.010223389,-0.11850548,-0.009882927,0.0024783611
1570715616,-1.9601746,-8.7660675,1.0189209,6.2561035E-4,-0.02456665,0.010223389,-0.11850548,-0.009882927,0.0024783611
1570715616,-1.9601746,-8.7660675,1.0189209,6.2561035E-4,-0.02456665,0.010223389,-0.11850548,-0.009882927,0.0024783611
1570715616,-1.9601746,-8.7660675,1.0189209,6.2561035E-4,-0.02456665,0.010223389,-0.11850548,-0.009882927,0.0024783611
1570715616,-1.9601746,-8.7660675,1.0189209,6.2561035E-4,-0.02456665,0.010223389,-0.11850548,-0.009882927,0.0024783611
1570715616,-1.9601746,-8.7660675,1.0189209,6.2561035E-4,-0.02456665,0.010223389,-0.11850548,-0.009882927,0.0024783611
1570715616,-1.9601746,-8.7660675,1.0189209,6.2561035E-4,-0.02456665,0.010223389,-0.11850548,-0.009882927,0.0024783611
1570715616,-1.9601746,-8.7660675,1.0189209,6.2561035E-4,-0.02456665,0.010223389,-0.11850548,-0.009882927,0.0024783611
1570715616,-1.9601746,-8.7660675,1.0189209,6.2561035E-4,-0.02456665,0.010223389,-0.11850548,-0.009882927,0.0024783611
1570715616,-1.9601746,-8.7660675,1.0189209,6.2561035E-4,-0.02456665,0.010223389,-0.11850548,-0.009882927,0.0024783611
1570715616,-1.9601746,-8.7660675,1.0189209,6.2561035E-4,-0.02456665,0.010223389,-0.11850548,-0.009882927,0.0024783611
1570715616,-1.9601746,-8.7660675,1.0189209,6.2561035E-4,-0.02456665,0.010223389,-0.11850548,-0.009882927,0.0024783611
1570715616,-1.9601746,-8.7660675,1.0189209,6.2561035E-4,-0.02456665,0.010223389,-0.11850548,-0.009882927,0.0024783611
1570715616,-1.9601746,-8.7660675,1.0189209,6.2561035E-4,-0.02456665,0.010223389,-0.11850548,-0.009882927,0.0024783611
1570715616,-1.9601746,-8.7660675,1.0189209,6.2561035E-4,-0.02456665,0.010223389,-0.11850548,-0.009882927,0.0024783611
1570715616,-1.9601746,-8.7660675,1.0189209,6.2561035E-4,-0.02456665,0.010223389,-0.11850548,-0.009882927,0.0024783611
1570715616,-1.9601746,-8.7660675,1.0189209,6.2561035E-4,-0.02456665,0.010223389,-0.11850548,-0.009882927,0.0024783611
1570715616,-1.9601746,-8.7660675,1.0189209,6.2561035E-4,-0.02456665,0.010223389,-0.11850548,-0.009882927,0.0024783611
1570715616,-1.9601746,-8.7660675,1.0189209,6.2561035E-4,-0.02456665,0.010223389,-0.11850548,-0.009882927,0.0024783611
1570715616,-1.9601746,-8.7660675,1.0189209,6.2561035E-4,-0.02456665,0.010223389,-0.11850548,-0.009882927,0.0024783611
1570715616,-1.9601746,-8.7660675,1.0189209,6.2561035E-4,-0.02456665,0.010223389,-0.11850548,-0.009882927,0.0024783611
1570715616,-1.9601746,-8.7660675,1.0189209,6.2561035E-4,-0.02456665,0.010223389,-0.11850548,-0.009882927,0.0024783611
1570715616,-1.9601746,-8.7660675,1.0189209,6.2561035E-4,-0.02456665,0.010223389,-0.11850548,-0.009882927,0.0024783611
1570715616,-1.9601746,-8.7660675,1.0189209,6.2561035E-4,-0.02456665,0.010223389,-0.11850548,-0.009882927,0.0024783611
1570715616,-1.9601746,-8.7660675,1.0189209,6.2561035E-4,-0.02456665,0.010223389,-0.11850548,-0.009882927,0.0024783611
1570715616,-1.9601746,-8.7660675,1.0189209,6.2561035E-4,-0.02456665,0.010223389,-0.11850548,-0.009882927,0.0024783611
1570715616,-1.9601746,-8.7660675,1.0189209,6.2561035E-4,-0.02456665,0.010223389,-0.11850548,-0.009882927,0.0024783611
1570715616,-1.9601746,-8.7660675,1.0189209,6.2561035E-4,-0.02456665,0.010223389,-0.11850548,-0.009882927,0.0024783611
1570715616,-1.9601746,-8.7660675,1.0189209,6.2561035E-4,-0.02456665,0.010223389,-0.11850548,-0.009882927,0.0024783611
1570715616,-1.9601746,-8.7660675,1.0189209,6.2561035E-4,-0.02456665,0.010223389,-0.11850548,-0.009882927,0.0024783611
1570715616,-1.9601746,-8.7660675,1.0189209,6.2561035E-4,-0.02456665,0.010223389,-0.11850548,-0.009882927,0.0024783611
1570715616,-1.9601746,-8.7660675,1.0189209,6.2561035E-4,-0.02456665,0.010223389,-0.11850548,-0.009882927,0.0024783611
1570715616,-1.9601746,-8.7660675,1.0189209,6.2561035E-4,-0.02456665,0.010223389,-0.11850548,-0.009882927,0.0024783611
1570715616,-1.9601746,-8.7660675,1.0189209,6.2561035E-4,-0.02456665,0.010223389,-0.11850548,-0.009882927,0.0024783611
1570715616,-1.9601746,-8.7660675,1.0189209,6.2561035E-4,-0.02456665,0.010223389,-0.11850548,-0.009882927,0.0024783611
1570715616,-1.9601746,-8.7660675,1.0189209,6.2561035E-4,-0.02456665,0.010223389,-0.11850548,-0.009882927,0.0024783611
1570715616,-1.9601746,-8.7660675,1.0189209,6.2561035E-4,-0.02456665,0.010223389,-0.11850548,-0.009882927,0.0024783611
1570715616,-1.9601746,-8.7660675,1.0189209,6.2561035E-4,-0.02456665,0.010223389,-0.11850548,-0.009882927,0.0024783611
1570715616,-1.9601746,-8.7660675,1.0189209,6.2561035E-4,-0.02456665,0.010223389,-0.11850548,-0.009882927,0.0024783611
1570715616,-1.9601746,-8.7660675,1.0189209,6.2561035E-4,-0.02456665,0.010223389,-0.11850548,-0.009882927,0.0024783611
1570715616,-1.9601746,-8.7660675,1.0189209,6.2561035E-4,-0.02456665,0.010223389,-0.11850548,-0.009882927,0.0024783611
1570715616,-1.9601746,-8.7660675,1.0189209,6.2561035E-4,-0.02456665,0.010223389,-0.11850548,-0.009882927,0.0024783611
1570715616,-1.9601746,-8.7660675,1.0189209,6.2561035E-4,-0.02456665,0.010223389,-0.11850548,-0.009882927,0.0024783611
1570715616,-1.9601746,-8.7660675,1.0189209,6.2561035E-4,-0.02456665,0.010223389,-0.11850548,-0.009882927,0.0024783611
1570715616,-1.9601746,-8.7660675,1.0189209,6.2561035E-4,-0.02456665,0.010223389,-0.11850548,-0.009882927,0.0024783611
1570715616,-1.9601746,-8.7660675,1.0189209,6.2561035E-4,-0.02456665,0.010223389,-0.11850548,-0.009882927,0.0024783611
1570715616,-1.9601746,-8.7660675,1.0189209,6.2561035E-4,-0.02456665,0.010223389,-0.11850548,-0.009882927,0.0024783611
1570715616,-1.9254608,-8.71817,1.011734,6.2561035E-4,-0.02456665,0.010223389,-0.11850548,-0.009882927,0.0024783611
1570715616,-1.8320923,-8.634384,1.085968,6.2561035E-4,-0.02456665,0.010223389,-0.11850548,-0.009882927,0.0024783611
1570715616,-1.9541931,-8.7708435,0.90400696,6.2561035E-4,-0.02456665,0.010223389,-0.11850548,-0.009882927,0.0024783611
1570715616,-1.8835602,-8.746902,0.95428467,6.2561035E-4,-0.02456665,0.010223389,-0.11850548,-0.009882927,0.0024783611
1570715616,-1.8835602,-8.746902,0.95428467,6.2561035E-4,-0.02456665,0.010223389,-0.11850548,-0.009882927,0.0024783611
1570715616,-1.8835602,-8.746902,0.95428467,6.2561035E-4,-0.02456665,0.010223389,-0.11850548,-0.009882927,0.0024783611
1570715616,-1.8835602,-8.746902,0.95428467,6.2561035E-4,-0.02456665,0.010223389,-0.11850548,-0.009882927,0.0024783611
1570715616,-1.8835602,-8.746902,0.95428467,6.2561035E-4,-0.02456665,0.010223389,-0.11850548,-0.009882927,0.0024783611
1570715616,-1.8835602,-8.746902,0.95428467,6.2561035E-4,-0.02456665,0.010223389,-0.11850548,-0.009882927,0.0024783611
1570715616,-1.8835602,-8.746902,0.95428467,6.2561035E-4,-0.02456665,0.010223389,-0.11850548,-0.009882927,0.0024783611
1570715616,-1.8835602,-8.746902,0.95428467,6.2561035E-4,-0.02456665,0.010223389,-0.11850548,-0.009882927,0.0024783611
1570715616,-1.8835602,-8.746902,0.95428467,6.2561035E-4,-0.02456665,0.010223389,-0.11850548,-0.009882927,0.0024783611
1570715616,-1.8835602,-8.746902,0.95428467,6.2561035E-4,-0.02456665,0.010223389,-0.11850548,-0.009882927,0.0024783611
1570715616,-1.8835602,-8.746902,0.95428467,6.2561035E-4,-0.02456665,0.010223389,-0.11850548,-0.009882927,0.0024783611
1570715616,-1.8835602,-8.746902,0.95428467,6.2561035E-4,-0.02456665,0.010223389,-0.11850548,-0.009882927,0.0024783611
1570715616,-1.8835602,-8.746902,0.95428467,6.2561035E-4,-0.02456665,0.010223389,-0.11850548,-0.009882927,0.0024783611
1570715616,-1.8835602,-8.746902,0.95428467,6.2561035E-4,-0.02456665,0.010223389,-0.11850548,-0.009882927,0.0024783611
1570715616,-1.8835602,-8.746902,0.95428467,6.2561035E-4,-0.02456665,0.010223389,-0.11850548,-0.009882927,0.0024783611
1570715616,-1.8835602,-8.746902,0.95428467,6.2561035E-4,-0.02456665,0.010223389,-0.11850548,-0.009882927,0.0024783611
1570715616,-1.8835602,-8.746902,0.95428467,6.2561035E-4,-0.02456665,0.010223389,-0.11850548,-0.009882927,0.0024783611
1570715616,-1.8835602,-8.746902,0.95428467,6.2561035E-4,-0.02456665,0.010223389,-0.11850548,-0.009882927,0.0024783611
1570715616,-1.8835602,-8.746902,0.95428467,6.2561035E-4,-0.02456665,0.010223389,-0.11850548,-0.009882927,0.0024783611
1570715616,-1.8835602,-8.746902,0.95428467,6.2561035E-4,-0.02456665,0.010223389,-0.11850548,-0.009882927,0.0024783611
1570715616,-1.8835602,-8.746902,0.95428467,6.2561035E-4,-0.02456665,0.010223389,-0.11850548,-0.009882927,0.0024783611
1570715616,-1.8835602,-8.746902,0.95428467,6.2561035E-4,-0.02456665,0.010223389,-0.11850548,-0.009882927,0.0024783611
1570715616,-1.8835602,-8.746902,0.95428467,6.2561035E-4,-0.02456665,0.010223389,-0.11850548,-0.009882927,0.0024783611
1570715616,-1.8835602,-8.746902,0.95428467,6.2561035E-4,-0.02456665,0.010223389,-0.11850548,-0.009882927,0.0024783611
1570715616,-1.8835602,-8.746902,0.95428467,6.2561035E-4,-0.02456665,0.010223389,-0.11850548,-0.009882927,0.0024783611
1570715616,-1.8835602,-8.746902,0.95428467,6.2561035E-4,-0.02456665,0.010223389,-0.11850548,-0.009882927,0.0024783611
1570715616,-1.8835602,-8.746902,0.95428467,6.2561035E-4,-0.02456665,0.010223389,-0.11850548,-0.009882927,0.0024783611
1570715616,-1.8835602,-8.746902,0.95428467,6.2561035E-4,-0.02456665,0.010223389,-0.11850548,-0.009882927,0.0024783611
1570715616,-1.8835602,-8.746902,0.95428467,6.2561035E-4,-0.02456665,0.010223389,-0.11850548,-0.009882927,0.0024783611
1570715616,-1.8835602,-8.746902,0.95428467,6.2561035E-4,-0.02456665,0.010223389,-0.11850548,-0.009882927,0.0024783611
1570715616,-1.8835602,-8.746902,0.95428467,6.2561035E-4,-0.02456665,0.010223389,-0.11850548,-0.009882927,0.0024783611
1570715616,-1.8835602,-8.746902,0.95428467,6.2561035E-4,-0.02456665,0.010223389,-0.11850548,-0.009882927,0.0024783611
1570715616,-1.8835602,-8.746902,0.95428467,6.2561035E-4,-0.02456665,0.010223389,-0.11850548,-0.009882927,0.0024783611
1570715616,-1.8835602,-8.746902,0.95428467,6.2561035E-4,-0.02456665,0.010223389,-0.11850548,-0.009882927,0.0024783611
1570715616,-1.8835602,-8.746902,0.95428467,6.2561035E-4,-0.02456665,0.010223389,-0.11850548,-0.009882927,0.0024783611
1570715616,-1.8835602,-8.746902,0.95428467,6.2561035E-4,-0.02456665,0.010223389,-0.11850548,-0.009882927,0.0024783611
1570715616,-1.8835602,-8.746902,0.95428467,6.2561035E-4,-0.02456665,0.010223389,-0.11850548,-0.009882927,0.0024783611
1570715616,-1.8835602,-8.746902,0.95428467,6.2561035E-4,-0.02456665,0.010223389,-0.11850548,-0.009882927,0.0024783611
1570715616,-1.8835602,-8.746902,0.95428467,6.2561035E-4,-0.02456665,0.010223389,-0.11850548,-0.009882927,0.0024783611
1570715616,-1.8835602,-8.746902,0.95428467,6.2561035E-4,-0.02456665,0.010223389,-0.11850548,-0.009882927,0.0024783611
1570715616,-1.8835602,-8.746902,0.95428467,6.2561035E-4,-0.02456665,0.010223389,-0.11850548,-0.009882927,0.0024783611
1570715616,-1.8835602,-8.746902,0.95428467,6.2561035E-4,-0.02456665,0.010223389,-0.11850548,-0.009882927,0.0024783611
1570715616,-1.8835602,-8.746902,0.95428467,6.2561035E-4,-0.02456665,0.010223389,-0.11850548,-0.009882927,0.0024783611
1570715616,-1.8835602,-8.746902,0.95428467,6.2561035E-4,-0.02456665,0.010223389,-0.11850548,-0.009882927,0.0024783611
1570715616,-1.8835602,-8.746902,0.95428467,6.2561035E-4,-0.02456665,0.010223389,-0.11850548,-0.009882927,0.0024783611
1570715616,-1.8835602,-8.746902,0.95428467,6.2561035E-4,-0.02456665,0.010223389,-0.11850548,-0.009882927,0.0024783611
1570715616,-1.8835602,-8.746902,0.95428467,6.2561035E-4,-0.02456665,0.010223389,-0.11850548,-0.009882927,0.0024783611
1570715616,-1.8835602,-8.746902,0.95428467,6.2561035E-4,-0.02456665,0.010223389,-0.11850548,-0.009882927,0.0024783611
1570715616,-1.8835602,-8.746902,0.95428467,6.2561035E-4,-0.02456665,0.010223389,-0.11850548,-0.009882927,0.0024783611
1570715616,-1.8835602,-8.746902,0.95428467,6.2561035E-4,-0.02456665,0.010223389,-0.11850548,-0.009882927,0.0024783611
1570715616,-1.8835602,-8.746902,0.95428467,6.2561035E-4,-0.02456665,0.010223389,-0.11850548,-0.009882927,0.0024783611
1570715616,-1.8835602,-8.746902,0.95428467,6.2561035E-4,-0.02456665,0.010223389,-0.11850548,-0.009882927,0.0024783611
1570715616,-1.8835602,-8.746902,0.95428467,6.2561035E-4,-0.02456665,0.010223389,-0.11850548,-0.009882927,0.0024783611
1570715616,-1.8835602,-8.746902,0.95428467,6.2561035E-4,-0.02456665,0.010223389,-0.11850548,-0.009882927,0.0024783611
1570715616,-1.8835602,-8.746902,0.95428467,6.2561035E-4,-0.02456665,0.010223389,-0.11850548,-0.009882927,0.0024783611
1570715616,-1.8835602,-8.746902,0.95428467,6.2561035E-4,-0.02456665,0.010223389,-0.11850548,-0.009882927,0.0024783611
1570715616,-1.8835602,-8.746902,0.95428467,6.2561035E-4,-0.02456665,0.010223389,-0.11850548,-0.009882927,0.0024783611
1570715616,-1.8835602,-8.746902,0.95428467,6.2561035E-4,-0.02456665,0.010223389,-0.11850548,-0.009882927,0.0024783611
1570715616,-1.8835602,-8.746902,0.95428467,6.2561035E-4,-0.02456665,0.010223389,-0.11850548,-0.009882927,0.0024783611
1570715616,-1.8835602,-8.746902,0.95428467,6.2561035E-4,-0.02456665,0.010223389,-0.11850548,-0.009882927,0.0024783611
1570715616,-1.8835602,-8.746902,0.95428467,6.2561035E-4,-0.02456665,0.010223389,-0.11850548,-0.009882927,0.0024783611
1570715616,-1.8835602,-8.746902,0.95428467,6.2561035E-4,-0.02456665,0.010223389,-0.11850548,-0.009882927,0.0024783611
1570715616,-1.8835602,-8.746902,0.95428467,6.2561035E-4,-0.02456665,0.010223389,-0.11850548,-0.009882927,0.0024783611
1570715616,-1.8835602,-8.746902,0.95428467,6.2561035E-4,-0.02456665,0.010223389,-0.11850548,-0.009882927,0.0024783611
1570715616,-1.8835602,-8.746902,0.95428467,6.2561035E-4,-0.02456665,0.010223389,-0.11850548,-0.009882927,0.0024783611
1570715616,-1.8835602,-8.746902,0.95428467,6.2561035E-4,-0.02456665,0.010223389,-0.11850548,-0.009882927,0.0024783611
1570715616,-1.8835602,-8.746902,0.95428467,6.2561035E-4,-0.02456665,0.010223389,-0.11850548,-0.009882927,0.0024783611
1570715616,-1.8835602,-8.746902,0.95428467,6.2561035E-4,-0.02456665,0.010223389,-0.11850548,-0.009882927,0.0024783611
1570715616,-1.8835602,-8.746902,0.95428467,6.2561035E-4,-0.02456665,0.010223389,-0.11850548,-0.009882927,0.0024783611
1570715616,-1.8835602,-8.746902,0.95428467,6.2561035E-4,-0.02456665,0.010223389,-0.11850548,-0.009882927,0.0024783611
1570715616,-1.8835602,-8.746902,0.95428467,6.2561035E-4,-0.02456665,0.010223389,-0.11850548,-0.009882927,0.0024783611
1570715616,-1.8835602,-8.746902,0.95428467,6.2561035E-4,-0.02456665,0.010223389,-0.11850548,-0.009882927,0.0024783611
1570715616,-1.8835602,-8.746902,0.95428467,6.2561035E-4,-0.02456665,0.010223389,-0.11850548,-0.009882927,0.0024783611
1570715616,-1.8835602,-8.746902,0.95428467,6.2561035E-4,-0.02456665,0.010223389,-0.11850548,-0.009882927,0.0024783611
1570715616,-1.8835602,-8.746902,0.95428467,6.2561035E-4,-0.02456665,0.010223389,-0.11850548,-0.009882927,0.0024783611
1570715616,-1.8835602,-8.746902,0.95428467,6.2561035E-4,-0.02456665,0.010223389,-0.11850548,-0.009882927,0.0024783611
1570715616,-1.8835602,-8.746902,0.95428467,6.2561035E-4,-0.02456665,0.010223389,-0.11850548,-0.009882927,0.0024783611
1570715616,-1.8835602,-8.746902,0.95428467,6.2561035E-4,-0.02456665,0.010223389,-0.11850548,-0.009882927,0.0024783611
1570715616,-1.8835602,-8.746902,0.95428467,6.2561035E-4,-0.02456665,0.010223389,-0.11850548,-0.009882927,0.0024783611
1570715616,-1.8835602,-8.746902,0.95428467,6.2561035E-4,-0.02456665,0.010223389,-0.11850548,-0.009882927,0.0024783611
1570715616,-1.8835602,-8.746902,0.95428467,6.2561035E-4,-0.02456665,0.010223389,-0.11850548,-0.009882927,0.0024783611
1570715616,-1.8835602,-8.746902,0.95428467,6.2561035E-4,-0.02456665,0.010223389,-0.11850548,-0.009882927,0.0024783611
1570715616,-1.8835602,-8.746902,0.95428467,6.2561035E-4,-0.02456665,0.010223389,-0.11850548,-0.009882927,0.0024783611
1570715616,-1.8835602,-8.746902,0.95428467,6.2561035E-4,-0.02456665,0.010223389,-0.11850548,-0.009882927,0.0024783611
1570715616,-1.8835602,-8.746902,0.95428467,6.2561035E-4,-0.02456665,0.010223389,-0.11850548,-0.009882927,0.0024783611
1570715616,-1.8835602,-8.746902,0.95428467,6.2561035E-4,-0.02456665,0.010223389,-0.11850548,-0.009882927,0.0024783611
1570715616,-1.8835602,-8.746902,0.95428467,6.2561035E-4,-0.02456665,0.010223389,-0.11850548,-0.009882927,0.0024783611
1570715616,-1.8835602,-8.746902,0.95428467,6.2561035E-4,-0.02456665,0.010223389,-0.11850548,-0.009882927,0.0024783611
1570715616,-1.8835602,-8.746902,0.95428467,6.2561035E-4,-0.02456665,0.010223389,-0.11850548,-0.009882927,0.0024783611
1570715616,-1.8835602,-8.746902,0.95428467,6.2561035E-4,-0.02456665,0.010223389,-0.11850548,-0.009882927,0.0024783611
1570715616,-1.8835602,-8.746902,0.95428467,6.2561035E-4,-0.02456665,0.010223389,-0.11850548,-0.009882927,0.0024783611
1570715616,-1.8835602,-8.746902,0.95428467,6.2561035E-4,-0.02456665,0.010223389,-0.11850548,-0.009882927,0.0024783611
1570715616,-1.8835602,-8.746902,0.95428467,6.2561035E-4,-0.02456665,0.010223389,-0.11850548,-0.009882927,0.0024783611
1570715616,-1.8835602,-8.746902,0.95428467,6.2561035E-4,-0.02456665,0.010223389,-0.11850548,-0.009882927,0.0024783611
1570715616,-1.8835602,-8.746902,0.95428467,6.2561035E-4,-0.02456665,0.010223389,-0.11850548,-0.009882927,0.0024783611
1570715616,-1.8835602,-8.746902,0.95428467,6.2561035E-4,-0.02456665,0.010223389,-0.11850548,-0.009882927,0.0024783611
1570715616,-1.8835602,-8.746902,0.95428467,6.2561035E-4,-0.02456665,0.010223389,-0.11850548,-0.009882927,0.0024783611
1570715616,-1.8835602,-8.746902,0.95428467,6.2561035E-4,-0.02456665,0.010223389,-0.11850548,-0.009882927,0.0024783611
1570715616,-1.8835602,-8.746902,0.95428467,6.2561035E-4,-0.02456665,0.010223389,-0.11850548,-0.009882927,0.0024783611
1570715616,-1.8835602,-8.746902,0.95428467,6.2561035E-4,-0.02456665,0.010223389,-0.11850548,-0.009882927,0.0024783611
1570715616,-1.8835602,-8.746902,0.95428467,6.2561035E-4,-0.02456665,0.010223389,-0.11850548,-0.009882927,0.0024783611
1570715616,-1.8835602,-8.746902,0.95428467,6.2561035E-4,-0.02456665,0.010223389,-0.11850548,-0.009882927,0.0024783611
1570715616,-1.8835602,-8.746902,0.95428467,6.2561035E-4,-0.02456665,0.010223389,-0.11850548,-0.009882927,0.0024783611
1570715616,-1.8835602,-8.746902,0.95428467,6.2561035E-4,-0.02456665,0.010223389,-0.11850548,-0.009882927,0.0024783611
1570715616,-1.8835602,-8.746902,0.95428467,6.2561035E-4,-0.02456665,0.010223389,-0.11850548,-0.009882927,0.0024783611
1570715616,-1.8835602,-8.746902,0.95428467,6.2561035E-4,-0.02456665,0.010223389,-0.11850548,-0.009882927,0.0024783611
1570715616,-1.8835602,-8.746902,0.95428467,6.2561035E-4,-0.02456665,0.010223389,-0.11850548,-0.009882927,0.0024783611
1570715616,-1.8835602,-8.746902,0.95428467,6.2561035E-4,-0.02456665,0.010223389,-0.11850548,-0.009882927,0.0024783611
1570715616,-1.8835602,-8.746902,0.95428467,6.2561035E-4,-0.02456665,0.010223389,-0.11850548,-0.009882927,0.0024783611
1570715616,-1.8835602,-8.746902,0.95428467,6.2561035E-4,-0.02456665,0.010223389,-0.11850548,-0.009882927,0.0024783611
1570715616,-1.8835602,-8.746902,0.95428467,6.2561035E-4,-0.02456665,0.010223389,-0.11850548,-0.009882927,0.0024783611
1570715616,-1.8835602,-8.746902,0.95428467,6.2561035E-4,-0.02456665,0.010223389,-0.11850548,-0.009882927,0.0024783611
1570715616,-1.8835602,-8.746902,0.95428467,6.2561035E-4,-0.02456665,0.010223389,-0.11850548,-0.009882927,0.0024783611
1570715616,-1.8835602,-8.746902,0.95428467,6.2561035E-4,-0.02456665,0.010223389,-0.11850548,-0.009882927,0.0024783611
1570715616,-1.8835602,-8.746902,0.95428467,6.2561035E-4,-0.02456665,0.010223389,-0.11850548,-0.009882927,0.0024783611
1570715616,-1.8835602,-8.746902,0.95428467,6.2561035E-4,-0.02456665,0.010223389,-0.11850548,-0.009882927,0.0024783611
1570715616,-1.8835602,-8.746902,0.95428467,6.2561035E-4,-0.02456665,0.010223389,-0.11850548,-0.009882927,0.0024783611
1570715616,-1.8835602,-8.746902,0.95428467,6.2561035E-4,-0.02456665,0.010223389,-0.11850548,-0.009882927,0.0024783611
1570715616,-1.8835602,-8.746902,0.95428467,6.2561035E-4,-0.02456665,0.010223389,-0.11850548,-0.009882927,0.0024783611
1570715616,-1.8835602,-8.746902,0.95428467,6.2561035E-4,-0.02456665,0.010223389,-0.11850548,-0.009882927,0.0024783611
1570715616,-1.8835602,-8.746902,0.95428467,6.2561035E-4,-0.02456665,0.010223389,-0.11850548,-0.009882927,0.0024783611
1570715616,-1.8835602,-8.746902,0.95428467,6.2561035E-4,-0.02456665,0.010223389,-0.11850548,-0.009882927,0.0024783611
1570715616,-1.8835602,-8.746902,0.95428467,6.2561035E-4,-0.02456665,0.010223389,-0.11850548,-0.009882927,0.0024783611
1570715616,-1.8835602,-8.746902,0.95428467,6.2561035E-4,-0.02456665,0.010223389,-0.11850548,-0.009882927,0.0024783611
1570715616,-1.8835602,-8.746902,0.95428467,6.2561035E-4,-0.02456665,0.010223389,-0.11850548,-0.009882927,0.0024783611
1570715616,-1.8835602,-8.746902,0.95428467,6.2561035E-4,-0.02456665,0.010223389,-0.11850548,-0.009882927,0.0024783611
1570715616,-1.8835602,-8.746902,0.95428467,6.2561035E-4,-0.02456665,0.010223389,-0.11850548,-0.009882927,0.0024783611
1570715616,-1.8835602,-8.746902,0.95428467,6.2561035E-4,-0.02456665,0.010223389,-0.11850548,-0.009882927,0.0024783611
1570715616,-1.8835602,-8.746902,0.95428467,6.2561035E-4,-0.02456665,0.010223389,-0.11850548,-0.009882927,0.0024783611
1570715616,-1.8835602,-8.746902,0.95428467,6.2561035E-4,-0.02456665,0.010223389,-0.11850548,-0.009882927,0.0024783611
1570715616,-1.8835602,-8.746902,0.95428467,6.2561035E-4,-0.02456665,0.010223389,-0.11850548,-0.009882927,0.0024783611
1570715616,-1.8835602,-8.746902,0.95428467,6.2561035E-4,-0.02456665,0.010223389,-0.11850548,-0.009882927,0.0024783611
1570715616,-1.8835602,-8.746902,0.95428467,6.2561035E-4,-0.02456665,0.010223389,-0.11850548,-0.009882927,0.0024783611
1570715616,-1.8835602,-8.746902,0.95428467,6.2561035E-4,-0.02456665,0.010223389,-0.11850548,-0.009882927,0.0024783611
1570715616,-1.8835602,-8.746902,0.95428467,6.2561035E-4,-0.02456665,0.010223389,-0.11850548,-0.009882927,0.0024783611
1570715616,-1.8835602,-8.746902,0.95428467,6.2561035E-4,-0.02456665,0.010223389,-0.11850548,-0.009882927,0.0024783611
1570715616,-1.8835602,-8.746902,0.95428467,6.2561035E-4,-0.02456665,0.010223389,-0.11850548,-0.009882927,0.0024783611
1570715616,-1.8835602,-8.746902,0.95428467,6.2561035E-4,-0.02456665,0.010223389,-0.11850548,-0.009882927,0.0024783611
1570715616,-1.8835602,-8.746902,0.95428467,6.2561035E-4,-0.02456665,0.010223389,-0.11850548,-0.009882927,0.0024783611
1570715616,-1.8835602,-8.746902,0.95428467,6.2561035E-4,-0.02456665,0.010223389,-0.11850548,-0.009882927,0.0024783611
1570715616,-1.8835602,-8.746902,0.95428467,6.2561035E-4,-0.02456665,0.010223389,-0.11850548,-0.009882927,0.0024783611
1570715616,-1.8835602,-8.746902,0.95428467,6.2561035E-4,-0.02456665,0.010223389,-0.11850548,-0.009882927,0.0024783611
1570715616,-1.8141327,-8.763672,0.89442444,6.2561035E-4,-0.02456665,0.010223389,-0.11850548,-0.009882927,0.0024783611
1570715616,-1.8141327,-8.763672,0.89442444,6.2561035E-4,-0.02456665,0.010223389,-0.11850548,-0.009882927,0.0024783611
1570715616,-1.8141327,-8.763672,0.89442444,6.2561035E-4,-0.02456665,0.010223389,-0.11850548,-0.009882927,0.0024783611
1570715616,-1.8141327,-8.763672,0.89442444,6.2561035E-4,-0.02456665,0.010223389,-0.11850548,-0.009882927,0.0024783611
1570715616,-1.8141327,-8.763672,0.89442444,6.2561035E-4,-0.02456665,0.010223389,-0.11850548,-0.009882927,0.0024783611
1570715616,-1.8177185,-8.745712,1.1793365,0.018722534,0.032958984,-4.272461E-4,0.106449604,-0.010175705,-0.027361274
1570715616,-1.8177185,-8.745712,1.1793365,0.018722534,0.032958984,-4.272461E-4,0.106449604,-0.010175705,-0.027361274
1570715616,-1.7339172,-8.769653,1.1422272,-0.0068359375,-0.016036987,0.0017089844,0.0986861,-0.09433174,-0.087189674
1570715616,-1.8560333,-8.706207,1.0452576,-0.008972168,-0.0032653809,-0.0046844482,0.09468579,0.017356873,-0.16574705
1570715616,-1.9314423,-8.6870575,1.1865234,-0.012161255,-0.013916016,-0.0068206787,-0.01531589,0.025740623,0.0153644085
1570715616,-1.8249054,-8.750504,1.1386414,-0.014297485,-0.01071167,-0.0025634766,0.0587852,-0.080114365,-0.054635644
1570715616,-1.8739777,-8.730148,1.2535553,-0.0015106201,-0.019241333,-0.0068206787,-0.013152361,0.015377998,0.05557239
1570715616,-1.8237,-8.71579,1.2200317,0.0059509277,-0.035217285,-0.003616333,0.068158984,3.5572052E-4,0.013937712
1570715616,-1.9374237,-8.683456,1.2188416,0.008071899,0.0105896,-0.010009766,-0.021791339,0.049951553,-0.017148018
1570715616,-1.9158783,-8.772049,1.1960907,0.008071899,-0.041610718,0.0048980713,-0.06934881,-0.04863453,-0.015016079
1570715616,-1.8021545,-8.73494,1.2655334,0.02192688,-0.016036987,0.0017089844,0.06608176,0.0080451965,0.098122716
1570715616,-1.8021545,-8.728958,1.1170807,0.030441284,-0.030960083,0.0048980713,0.09179473,-0.0030956268,-0.11846125
1570715616,-1.8344727,-8.738525,1.2547455,0.02192688,0.0031280518,-4.272461E-4,0.06952214,-0.07998371,-0.019650578
1570715617,-1.847641,-8.707397,1.1949005,0.017669678,-0.028823853,0.0070343018,-0.04456973,0.016553879,-0.017833114
1570715617,-1.7674408,-8.67868,1.2439728,0.016601562,-0.02456665,0.0017089844,0.105911255,0.03656292,0.045403957
1570715617,-1.7758179,-8.672684,1.1721497,0.018722534,0.013793945,0.008102417,0.04479432,0.03287506,-0.04802668
1570715617,-1.7099762,-8.703812,1.1877136,0.0048828125,0.101135254,-0.003616333,0.18703973,-0.020064354,-0.10324824
1570715617,-2.0583344,-8.616425,1.664154,0.013397217,0.070251465,-0.011077881,-0.11835039,0.13070583,0.4194845
1570715617,-2.1026306,-8.927673,1.6533813,0.046432495,-0.021362305,0.0059661865,-0.22850227,-0.16702461,0.4068625
1570715617,-1.6321716,-8.543396,0.76634216,0.062408447,0.014846802,0.0059661865,0.21004081,0.10090065,-0.520723
1570715617,-1.9745331,-8.740921,1.8353424,0.017669678,0.13415527,-0.008956909,0.040442824,0.02902031,0.34365356
1570715617,-2.2295227,-8.786407,1.3146057,0.048553467,-0.040542603,0.016616821,-0.43507528,-0.13146591,0.29383743
1570715617,-1.6728668,-8.761276,0.94351196,0.024047852,-0.023498535,0.017684937,0.14529872,-0.07446003,-0.48497725
1570715617,-1.8692017,-8.748108,1.3576965,0.03364563,0.030838013,-0.0025634766,0.1321373,-0.03894329,0.032284617
1570715617,-1.9170837,-8.756485,1.3110199,0.009140015,-0.025634766,0.009155273,-0.051393986,-0.030039787,-0.06606758
1570715617,-1.8943329,-8.712189,1.2344055,0.0038146973,-0.027755737,0.011291504,-0.0032657385,-0.023861885,-0.0549922
1570715617,-1.847641,-8.701416,1.3181915,0.011276245,-0.0021972656,0.0048980713,0.050049424,-0.026313782,-0.017729998
1570715617,-1.9338379,-8.713394,1.4510803,0.011276245,-0.008590698,6.4086914E-4,-0.0044891834,-0.014865875,0.12779617
1570715617,-1.9589844,-8.659515,1.2894745,0.020858765,-0.038406372,0.013427734,-0.13678932,0.058218002,0.039855003
1570715617,-1.8153229,-8.744507,1.374466,0.008071899,0.0031280518,0.008102417,0.070043564,-0.034784317,-0.08226001
1570715617,-1.9434204,-8.642761,1.4103699,0.020858765,-0.014968872,0.0070343018,-0.021600604,0.0028953552,0.1250037
1570715617,-1.858429,-8.652344,1.4391022,0.013397217,-0.01071167,0.0070343018,0.044290066,0.025161743,0.005171418
1570715617,-2.0655212,-8.748108,1.3481293,0.01020813,0.0010070801,0.0059661865,-0.14205778,-0.08360577,0.0178864
1570715617,-1.8931427,-8.7265625,1.3696747,0.01234436,-0.0032653809,0.009155273,0.023426056,-0.022379875,-0.06774473
1570715617,-1.858429,-8.627197,1.3876343,0.01020813,-0.0032653809,0.0048980713,0.07496202,0.039503098,0.028667212
1570715617,-1.9889069,-8.690643,1.4091797,0.013397217,-0.0128479,0.009155273,-0.087512255,-0.005504608,0.044922233
1570715617,-1.8787689,-8.713394,1.4103699,0.01234436,-0.026687622,0.008102417,-0.011612177,-0.052383423,-0.020324588
1570715617,-1.8644104,-8.69783,1.3912201,0.011276245,0.0010070801,-0.0014953613,0.014290333,0.016165733,0.04095292
1570715617,-2.0954437,-8.743317,1.3576965,-4.4250488E-4,-0.006454468,0.009155273,-0.16032875,-0.0685339,-0.004324913
1570715617,-1.90271,-8.690643,1.3373566,0.0048828125,-0.025634766,0.008102417,0.0118614435,-0.019244194,-0.036049604
1570715617,-1.945816,-8.665512,1.477417,-4.4250488E-4,0.01272583,6.4086914E-4,0.030406833,0.07082081,0.05328369
1570715617,-2.0164337,-8.673889,1.4163666,0.007003784,-0.01071167,0.0059661865,-0.13754094,-0.020711899,0.06538451
1570715617,-1.9087067,-8.683456,1.367279,0.0038146973,0.01272583,0.0017089844,0.036904693,0.030961037,-0.05300486
1570715617,-1.9924927,-8.677475,1.3684845,-0.0015106201,0.0010070801,6.4086914E-4,-0.051295996,-0.0021829605,-0.010830522
1570715617,-1.9601746,-8.742126,1.4558716,0.0016784668,-0.0043182373,0.003829956,-0.01108551,-0.043325424,0.010740161
1570715617,-1.9039154,-8.707397,1.3648834,-4.4250488E-4,-0.02456665,0.011291504,0.0673728,0.0269804,0.0329082
1570715617,-1.8488464,-8.701416,1.358902,-0.0025787354,-0.007522583,-4.272461E-4,0.08713138,-0.027132988,-0.0467695
1570715618,-2.0176392,-8.660721,1.4642487,-0.0025787354,-0.0128479,-0.0014953613,-0.06058383,-0.009890556,0.088807344
1570715618,-1.9517975,-8.670288,1.3888245,-0.0057678223,-0.02243042,0.003829956,-0.051069617,0.031946182,-0.007512331
1570715618,-2.021225,-8.6475525,1.4810028,0.0038146973,-0.006454468,0.0027618408,-0.05733061,0.043004036,0.123446465
1570715618,-1.8751831,-8.654724,1.3924255,0.002746582,-0.01071167,0.003829956,0.0017215014,0.009645462,0.02513814
1570715618,-1.9434204,-8.744507,1.3948059,-0.0015106201,0.011657715,-0.0068206787,0.014942884,-0.05937767,-0.016189933
1570715618,-1.926651,-8.689453,1.3565063,-0.004714966,0.009521484,-0.003616333,0.015193105,0.033233643,-0.03106916
1570715618,-1.9338379,-8.665512,1.3636932,-0.0036468506,0.018051147,-0.003616333,-0.025025368,0.0046339035,-0.019091606
1570715618,-1.9745331,-8.714584,1.3768616,-0.01322937,0.019119263,-0.0014953613,-0.019916654,-0.018633842,-0.057446957
1570715618,-1.8847504,-8.664307,1.3816528,-0.0057678223,0.0020751953,6.4086914E-4,0.015627861,0.008302689,-0.025695443
1570715618,-1.9374237,-8.65593,1.5312805,-4.4250488E-4,0.023376465,-0.003616333,0.039457917,0.06469822,0.12688792
1570715618,-1.9637604,-8.69783,1.3995972,-0.0025787354,0.0010070801,-0.0014953613,-0.011330247,0.03749466,0.049408317
1570715618,-1.9637604,-8.69783,1.3995972,-0.0025787354,0.0010070801,-0.0014953613,-0.011330247,0.03749466,0.049408317
1570715618,-1.9637604,-8.69783,1.3995972,-0.0025787354,0.0010070801,-0.0014953613,-0.011330247,0.03749466,0.049408317
1570715618,-1.9637604,-8.69783,1.3995972,-0.0025787354,0.0010070801,-0.0014953613,-0.011330247,0.03749466,0.049408317
1570715618,-1.9637604,-8.69783,1.3995972,-0.0025787354,0.0010070801,-0.0014953613,-0.011330247,0.03749466,0.049408317
1570715618,-1.9637604,-8.69783,1.3995972,-0.0025787354,0.0010070801,-0.0014953613,-0.011330247,0.03749466,0.049408317
1570715618,-1.9637604,-8.69783,1.3995972,-0.0025787354,0.0010070801,-0.0014953613,-0.011330247,0.03749466,0.049408317
1570715618,-1.9637604,-8.69783,1.3995972,-0.0025787354,0.0010070801,-0.0014953613,-0.011330247,0.03749466,0.049408317
1570715618,-1.9637604,-8.69783,1.3995972,-0.0025787354,0.0010070801,-0.0014953613,-0.011330247,0.03749466,0.049408317
1570715618,-1.9637604,-8.69783,1.3995972,-0.0025787354,0.0010070801,-0.0014953613,-0.011330247,0.03749466,0.049408317
1570715618,-1.9637604,-8.69783,1.3995972,-0.0025787354,0.0010070801,-0.0014953613,-0.011330247,0.03749466,0.049408317
1570715618,-1.9015198,-8.622406,1.437912,-0.004714966,-0.014968872,0.0048980713,0.03612697,0.018719673,0.020385861
1570715618,-1.8751831,-8.65593,1.264328,0.01020813,-0.014968872,0.0017089844,0.048225403,0.017744064,-0.09503603
1570715618,-1.9051056,-8.737335,1.3421478,0.014465332,-0.008590698,-0.003616333,0.034018874,-0.032924652,-0.0101315975
1570715618,-1.9960938,-8.721771,1.2164459,0.009140015,-0.009643555,-4.272461E-4,-0.07185042,-0.028410912,-0.14202082
1570715618,-1.9529877,-8.688248,1.2822876,0.01020813,0.0020751953,6.4086914E-4,-0.069089055,-0.00217247,-0.08962011
1570715618,-1.8787689,-8.688248,1.3337555,0.018722534,-0.0128479,0.0070343018,0.045841217,-0.014119148,-0.046336293
1570715618,-1.8560333,-8.7265625,1.2272186,0.016601562,-0.019241333,0.0017089844,0.039651394,-0.100829124,-0.102799416
1570715618,-1.921875,-8.642761,1.3253784,0.02192688,-0.017105103,0.0017089844,-0.012937427,0.04745865,-0.011942625
1570715618,-1.9015198,-8.660721,1.2691193,0.016601562,-0.025634766,0.0070343018,-0.00852859,0.03974533,-0.07324803
1570715618,-1.9685516,-8.73494,1.2990417,0.02192688,-0.026687622,0.0059661865,-0.0714345,-0.059518814,-0.08517563
1570715618,-1.7901917,-8.721771,1.2200317,0.013397217,-0.042678833,0.012359619,0.09023774,-0.045207977,-0.126266
1570715618,-1.8620148,-8.669098,1.358902,0.009140015,-0.019241333,-0.0025634766,0.041332364,0.013970375,-0.0019085407
1570715619,-2.0319977,-8.645157,1.5420532,0.01020813,-0.027755737,0.0027618408,-0.12032938,0.030360222,0.1460067
1570715619,-1.9170837,-8.691849,1.4738159,0.020858765,-0.037353516,0.0070343018,0.0116432905,0.009003639,0.090295434
1570715619,-1.8332825,-8.67868,1.5456543,0.018722534,-0.017105103,0.0017089844,0.06315696,0.01673317,0.12157726
1570715619,-1.9613647,-8.664307,1.3960114,0.018722534,-0.019241333,6.4086914E-4,-0.04621899,0.013632774,-0.017829895
1570715619,-1.945816,-8.836685,1.4319305,0.007003784,-0.014968872,6.4086914E-4,-0.035517216,-0.12914085,-0.010187626
1570715619,-2.0260162,-8.775635,1.5193176,-0.0068359375,0.02230835,-4.272461E-4,-0.11771166,-0.095965385,0.1011008
1570715619,-2.258255,-8.621216,1.6378174,-0.028137207,0.09687805,-0.010009766,-0.3264016,0.07372856,0.21116054
1570715619,-2.258255,-8.630783,1.719223,-0.03453064,0.12564087,-0.0046844482,-0.30680192,0.046354294,0.2990731
1570715619,-1.9709473,-8.672684,1.664154,-0.041992188,0.1639862,-0.02279663,-0.0027102232,0.035089493,0.27039742
1570715619,-2.155304,-8.49791,1.7264099,-0.018554688,0.19700623,-0.024932861,-0.18013287,0.17258453,0.32306135
1570715619,-1.950592,-8.653534,1.6306458,-0.004714966,0.16612244,-0.013214111,0.033155918,0.041132927,0.2546873
1570715619,-1.8332825,-8.725357,1.4307251,-4.4250488E-4,0.14801025,-0.019607544,0.13129938,-0.026399612,0.0210644
1570715619,-1.8225098,-8.801971,1.1314545,0.0038146973,0.13842773,-0.016403198,0.14157939,-0.11012459,-0.23440361
1570715619,-1.9134827,-8.71698,1.109909,-0.016418457,0.124572754,-0.0206604,0.04010439,-0.07146168,-0.28858447
1570715619,-1.8835602,-8.798386,1.1134949,-0.031341553,0.11605835,-0.017471313,0.059893966,-0.10341835,-0.25469851
1570715619,-1.8344727,-8.764862,1.0320892,-0.05796814,0.1085968,-0.018539429,0.13114941,-0.083369255,-0.32490897
1570715619,-1.911087,-8.725357,1.1877136,-0.07608032,0.114990234,-0.028121948,0.06124866,-0.035268784,-0.15374589
1570715619,-1.9362335,-8.756485,1.2308044,-0.056900024,0.08729553,-0.030258179,0.016701102,-0.07266903,-0.07763326
1570715619,-2.0080566,-8.691849,1.2607422,-0.070755005,0.07450867,-0.03237915,-0.062425733,0.018514633,-0.023626208
1570715619,-1.966156,-8.596069,1.3241882,-0.08140564,0.015914917,-0.013214111,-0.03590846,0.14167213,0.053236604
1570715619,-1.6860352,-8.709793,1.2846832,-0.05796814,-0.03201294,-0.012145996,0.26134503,0.0027914047,0.10694969
1570715619,-1.7279358,-8.505096,1.3576965,-0.03453064,-0.042678833,-0.018539429,0.18138671,0.19888115,0.11017501
1570715619,-1.985321,-8.52066,1.0799713,-0.0057678223,-0.08528137,-0.0068206787,-0.0689286,0.20140648,-0.036394358
1570715619,-1.8679962,-8.73494,1.2715149,0.030441284,-0.10658264,-0.007888794,0.03378272,-0.043190956,0.018708944
1570715619,-2.024826,-8.79718,0.9782257,0.06452942,-0.112976074,-0.0068206787,-0.103209496,-0.10200596,-0.27015388
1570715619,-2.258255,-8.710999,0.86569214,0.06347656,-0.049057007,0.0027618408,-0.3353721,-0.010998726,-0.3922615
1570715619,-2.1624908,-8.870209,0.9399109,0.049621582,-0.049057007,0.014480591,-0.26878893,-0.17631245,-0.34746873
1570715619,-1.4154968,-8.793594,0.9399109,0.028320312,-0.066101074,0.018753052,0.44907355,-0.09271145,-0.324731
1570715619,-1.1257935,-8.758881,1.1087036,-0.0015106201,-0.04586792,0.0059661865,0.7912035,-0.07956123,-0.19069123
1570715619,-1.435852,-8.606842,1.4211426,0.027252197,-0.068237305,-0.0046844482,0.53496647,0.06337166,0.090147376
1570715619,-1.3951416,-8.671494,1.3792572,0.049621582,-0.093811035,0.017684937,0.5066488,-0.015048981,0.05385101
1570715619,-1.3592377,-8.7265625,1.3122101,0.06452942,-0.11404419,0.021942139,0.5451077,-0.002875328,0.0031024218
1570715619,-1.6489258,-8.85585,1.1733551,0.04322815,-0.1385498,0.027267456,0.298496,-0.21943188,-0.20450366
1570715620,-1.6561127,-8.706207,1.3624878,0.037902832,-0.13215637,0.025146484,0.22447586,-0.072110176,-0.017240405
1570715620,-1.7171631,-9.03302,0.6274719,0.015533447,-0.12895203,0.012359619,0.27964568,-0.23626423,-0.5847361
1570715620,-2.6078033,-11.093231,3.235962,-0.16769409,1.0279236,-0.11227417,0.55106974,-2.756897,1.5329791
1570715620,-4.415436,-6.886612,0.40960693,0.038970947,-0.67544556,0.121017456,-2.772196,1.6546831,-0.5187923
1570715620,-0.71040344,-8.760071,1.2655334,0.051757812,-0.2674408,0.08265686,1.1421434,-0.23639107,0.053256154
1570715620,-2.1648865,-8.341095,1.2439728,0.018722534,0.08622742,0.012359619,-0.11837232,0.37097454,-0.08463848
1570715620,-2.7071686,-8.696625,1.374466,-0.008972168,-0.105529785,-0.010009766,-0.6649494,-0.11634064,0.2853707
1570715620,-2.1122131,-8.106461,1.7766876,-0.0388031,-0.019241333,0.0017089844,-0.32570946,0.18133831,0.60610163
1570715620,-2.1050262,-8.439255,1.6102905,-0.007904053,0.23109436,-0.008956909,-0.25709653,0.1700449,0.11519575
1570715620,-2.4258423,-9.401718,1.8185883,0.037902832,0.0105896,-0.04623413,-0.40436947,-0.97462654,0.4173472
1570715620,-2.5383759,-8.429672,1.0524445,0.0016784668,-0.0362854,0.032592773,-0.768703,0.26203156,-0.2680906
1570715620,-1.7231445,-8.748108,1.1362457,0.022994995,0.159729,-0.019607544,0.47890937,0.17321873,-0.14269662
1570715620,-1.9984894,-8.495514,1.1398315,0.015533447,0.06385803,-0.028121948,0.07055664,0.07691002,-0.1360122
1570715620,-1.4142914,-8.246521,0.9602661,0.026184082,0.17144775,-0.03237915,0.500831,0.5158911,-0.36490262
1570715620,-1.6309662,-8.99231,1.2691193,0.0315094,0.20979309,-0.0675354,0.5583012,0.034523964,-0.075730205
1570715620,-3.1488953,-8.606842,1.6054993,0.014465332,-0.2727661,-0.16447449,-0.8909198,-0.30154228,0.28756893
1570715620,-2.9094696,-8.706207,0.5448761,0.01234436,-0.27915955,-0.05369568,-1.0808454,-0.10919094,-0.60041654
1570715620,-2.9094696,-8.706207,0.5448761,0.01234436,-0.27915955,-0.05369568,-1.0808454,-0.10919094,-0.60041654
1570715620,-2.9094696,-8.706207,0.5448761,0.01234436,-0.27915955,-0.05369568,-1.0808454,-0.10919094,-0.60041654
