time,ax,ay,az,gx,gy,gz,la_x,la_y,la_z,fox,foy,foz
1570715591,-2.6557617,2.5384521,9.090179,0.09744263,0.70266724,-0.3445282,-0.055080414,-0.11753845,-0.5653658
1570715591,-2.5288696,2.6264343,9.510971,0.3147583,1.0978851,-0.10165405,-0.041525364,-0.17897415,-0.30948544
1570715591,-1.9752197,2.613266,9.76236,0.82502747,1.4909668,-0.38500977,0.92865276,-0.33033943,0.23504734
1570715591,-1.9752197,2.613266,9.76236,0.82502747,1.4909668,-0.38500977,0.92865276,-0.33033943,0.23504734
1570715591,-1.9752197,2.613266,9.76236,0.82502747,1.4909668,-0.38500977,0.92865276,-0.33033943,0.23504734
1570715591,-1.9752197,2.613266,9.76236,0.82502747,1.4909668,-0.38500977,0.92865276,-0.33033943,0.23504734
1570715591,-1.9752197,2.613266,9.76236,0.82502747,1.4909668,-0.38500977,0.92865276,-0.33033943,0.23504734
1570715591,-0.88645935,-1.5155334,3.8367157,0.7419281,2.225998,-3.285736,5.033594,-4.0398784,-3.9282207
1570715591,-3.0771484,-1.5406647,4.021057,0.9102478,2.3453064,-4.015442,4.6631103,-3.745257,-3.2975326
1570715591,-5.2157745,-0.8643036,1.3874359,0.86763,3.006836,-3.700119,1.8481932,-3.5214505,-3.9258018
1570715591,-5.2157745,-0.8643036,1.3874359,0.86763,3.006836,-3.700119,1.8481932,-3.5214505,-3.9258018
1570715591,-5.2157745,-0.8643036,1.3874359,0.86763,3.006836,-3.700119,1.8481932,-3.5214505,-3.9258018
1570715591,-5.2157745,-0.8643036,1.3874359,0.86763,3.006836,-3.700119,1.8481932,-3.5214505,-3.9258018
1570715591,-10.050262,-9.379883,3.2094269,1.5600586,4.0369415,-5.017853,-0.50867367,-5.8211474,1.1887858
1570715591,-12.6796875,-10.6158905,2.1045074,1.4737701,2.9354706,-4.941147,-3.5900087,-5.913499,0.42482877
1570715591,-13.227966,-11.6017,2.597107,2.0085297,1.8946991,-4.529953,-4.45961,-5.7296944,2.7783155
1570715591,-14.556152,-10.617081,0.5345001,1.8615265,1.5985565,-3.6809387,-6.8555193,-3.93115,-0.42258608
1570715591,-14.379578,-9.483429,-1.656784,1.3608551,0.7676544,-2.9576263,-7.5046606,-2.1180038,-2.3227246
1570715592,-14.314331,-8.792709,-0.2849121,0.389328,-1.5791321,-2.5144806,-7.8412924,-1.0324354,-2.5557742
1570715592,-13.318344,-8.294708,1.687912,0.17201233,-2.6656952,-1.8859711,-7.5199075,-0.027318954,-0.39753962
1570715592,-13.193848,-6.9832916,2.8233643,0.03779602,-2.4185486,-1.3022156,-7.826109,1.6717224,0.56140256
1570715592,-12.245148,-8.048111,0.44711304,-0.32440186,-3.125885,-0.49794006,-7.6312675,0.6357212,-2.872372
1570715592,-10.646423,-8.841187,3.3716278,-0.013336182,-2.1586304,0.9124756,-6.4399576,-0.28382397,0.18281746
1570715592,-4.7890015,-8.800491,3.7259827,0.0058288574,-0.16125488,0.7228546,-0.3064084,-0.0027780533,0.4316151
1570715592,-6.454773,-9.806656,3.0346527,0.22528076,0.27442932,-0.22949219,-1.2348418,-1.2781744,-0.518203
1570715592,-6.605606,-9.587585,4.440048,0.4351349,0.4640503,-0.31150818,-1.726644,-1.2693644,0.6182146
1570715592,-6.2626343,-8.829819,2.755127,0.5991821,0.9199829,-0.7152405,-0.8246126,-0.05583477,-0.54634833
1570715592,-6.027405,-7.8374176,2.54982,0.51716614,1.4376984,-0.44999695,-1.2924109,0.8450384,-0.81801534
1570715592,-5.55455,-8.033142,2.779663,0.6694946,1.7519531,0.09754944,-0.39468956,0.2560358,-0.076429605
1570715592,-6.968918,-7.693161,2.3110046,0.73020935,2.1418457,0.92951965,-1.2859921,0.6718826,-0.86421967
1570715592,-6.692993,-6.313507,1.1605835,0.79626465,2.289917,2.3910675,-0.97656584,1.4968815,-1.9316573
1570715592,-7.5914154,-6.005249,1.9321136,0.6172943,1.910675,2.9236908,-1.6185708,1.3631058,-0.94975734
1570715592,-5.617401,-5.564728,5.174469,0.5054474,1.4472961,2.5487213,2.1079702,2.143732,2.1460788
1570715592,-3.3393097,-7.645279,1.9003906,-0.51828,1.4196014,1.3620148,5.035022,-1.403132,-0.4327104
1570715592,-7.407654,-6.3386536,0.63327026,-0.94651794,1.6113434,1.4823914,2.369771,-0.6597252,-0.8512496
1570715592,-7.7272797,-6.3386536,0.63327026,-0.94651794,1.6113434,1.4823914,1.5315533,-0.7182636,-0.8951397
1570715592,-8.590393,-3.2740784,-1.122879,-0.4927063,0.3948059,0.05493164,-0.09557915,1.8409472,-1.4820364
1570715592,-8.485657,-3.1884766,-1.177948,-0.5118866,0.35327148,0.020843506,-0.09557915,1.8409472,-1.4820364
1570715592,-4.308365,-0.15441895,3.5631714,-0.23171997,1.349289,-3.2015686,3.8518734,6.244509,3.3947554
1570715592,-4.308365,-0.15441895,3.5631714,-0.23171997,1.349289,-3.2015686,3.8518734,6.244509,3.3947554
1570715592,-1.7088623,-5.6024323,2.1140747,0.3616333,1.3641968,-6.4272003,4.5997496,2.0999103,0.88865614
1570715592,-5.965149,-19.612701,3.5715485,2.585907,2.2142792,-4.506531,2.0068436,-7.3638678,3.2845218
1570715592,-5.965149,-19.612701,3.5715485,2.585907,2.2142792,-4.506531,2.0068436,-7.3638678,3.2845218
1570715592,-1.4742279,-5.746689,-7.1101837,2.4570007,1.8424988,0.7697296,1.8399701,2.0900402,-5.6008816
1570715592,1.4119873,-4.11145,0.11671448,0.2359314,-2.186325,-4.1081085,4.8218517,5.4390116,-1.2562279
1570715592,1.4119873,-4.11145,0.11671448,0.2359314,-2.186325,-4.1081085,4.8218517,5.4390116,-1.2562279
1570715592,0.97624207,-3.086731,2.181717,0.47135925,-1.4289246,-4.9858856,1.4804504,7.3225536,0.2081157
1570715592,0.97624207,-3.086731,2.181717,0.47135925,-1.4289246,-4.9858856,1.4804504,7.3225536,0.2081157
1570715592,5.719742,-19.554642,5.661682,-1.0605011,10.891922,-1.7741241,4.9726357,-9.6947975,8.063159
1570715592,5.719742,-19.554642,5.661682,-1.0605011,10.891922,-1.7741241,4.9726357,-9.6947975,8.063159
1570715593,6.3470306,-7.842804,-1.8764496,-1.3832703,0.35327148,2.1737518,3.7925224,0.47840786,-8.234632
1570715593,6.3470306,-7.842804,-1.8764496,-1.3832703,0.35327148,2.1737518,3.7925224,0.47840786,-8.234632
1570715593,4.0773315,-11.203674,1.8267822,2.4633942,-5.054016,0.08050537,4.047903,-0.51177216,0.22837806
1570715593,4.0773315,-11.203674,1.8267822,2.4633942,-5.054016,0.08050537,4.047903,-0.51177216,0.22837806
1570715593,0.6649933,-9.889252,-0.3501587,-0.32759094,-1.2222595,0.52046204,-0.9211067,-0.6042137,-3.4445443
1570715593,0.6649933,-9.889252,-0.3501587,-0.32759094,-1.2222595,0.52046204,-0.9211067,-0.6042137,-3.4445443
1570715593,0.8242035,-11.080963,3.0304565,-1.5664978,0.808136,-0.44467163,-0.29993653,-1.1524086,0.97087526
1570715593,0.8242035,-11.080963,3.0304565,-1.5664978,0.808136,-0.44467163,-0.29993653,-1.1524086,0.97087526
1570715593,0.8433533,-10.761337,2.2206268,-0.15501404,0.80281067,-0.06010437,-0.26531255,-0.7477293,0.85804594
1570715593,0.77511597,-10.824783,2.2188263,-0.10920715,0.712265,-0.039871216,-0.26531255,-0.7477293,0.85804594
1570715593,0.93852234,-10.267532,2.1457977,0.0068969727,-0.35087585,-0.021759033,-0.27857697,-0.13839436,0.38408816
1570715593,0.93014526,-10.267532,2.1457977,0.0068969727,-0.35087585,-0.021759033,-0.27857697,-0.13839436,0.38408816
1570715593,1.414978,-10.67395,2.173935,0.2785492,-0.22943115,0.06239319,0.12870264,-0.708518,0.66079617
1570715593,1.4855957,-10.6548,2.1452026,0.29664612,-0.23049927,0.065597534,0.12870264,-0.708518,0.66079617
1570715593,1.5077515,-10.462662,1.3383636,0.35949707,-0.18043518,0.06985474,0.30081928,-0.51296616,-0.42138278
1570715593,1.5077515,-10.462662,1.3383636,0.35949707,-0.18043518,0.06985474,0.30081928,-0.51296616,-0.42138278
1570715593,1.4574738,-10.526108,1.4454956,0.23699951,-0.06752014,0.029373169,0.20992935,-0.60511684,-0.51416206
1570715593,1.4562683,-10.490189,1.4089813,0.23274231,-0.05899048,0.028305054,0.20992935,-0.60511684,-0.51416206
1570715593,1.6071014,-10.494385,1.272522,0.034591675,0.2414093,-0.0345459,0.37628424,-0.56957054,-0.73848414
1570715593,1.6071014,-10.494385,1.272522,0.034591675,0.2414093,-0.0345459,0.37628424,-0.56957054,-0.73848414
1570715593,1.3694763,-10.591354,1.4401093,-0.18058777,-0.027038574,-0.07714844,0.123249054,-0.60257435,-0.562976
1570715593,1.3694763,-10.591354,1.4401093,-0.18058777,-0.027038574,-0.07714844,0.123249054,-0.60257435,-0.562976
1570715593,1.2162476,-10.617081,2.000351,-0.1635437,-0.14846802,-0.015365601,-0.06756461,-0.58650875,0.13794792
1570715593,1.2162476,-10.617081,2.000351,-0.1635437,-0.14846802,-0.015365601,-0.06756461,-0.58650875,0.13794792
1570715593,1.4844055,-10.394424,2.2014618,-0.088974,-0.17723083,0.0155181885,0.18893766,-0.3159237,0.4317118
1570715593,1.4844055,-10.394424,2.2014618,-0.088974,-0.17723083,0.0155181885,0.18893766,-0.3159237,0.4317118
1570715593,1.5741882,-10.336365,2.427719,0.06123352,-0.060058594,-0.039871216,0.2669897,-0.3494873,0.67675316
1570715593,1.5741882,-10.336365,2.427719,0.06123352,-0.060058594,-0.039871216,0.2669897,-0.3494873,0.67675316
1570715593,1.1324615,-10.569809,1.913559,0.09425354,0.22969055,-0.070755005,-0.21918833,-0.47655678,0.21942687
1570715593,1.1324615,-10.569809,1.913559,0.09425354,0.22969055,-0.070755005,-0.21918833,-0.47655678,0.21942687
1570715593,1.2024841,-10.566208,1.3527222,0.11981201,0.21690369,-0.026016235,-0.15621483,-0.5353985,-0.5376868
1570715593,1.2024841,-10.566208,1.3527222,0.11981201,0.21690369,-0.026016235,-0.15621483,-0.5353985,-0.5376868
1570715593,1.2743073,-10.61409,1.2707214,0.107040405,0.11891174,-0.0079193115,-0.072889805,-0.59888077,-0.6143192
1570715593,1.5424652,-10.625473,1.2270355,0.062286377,-0.18362427,0.0357666,0.14335978,-0.604352,-0.7192725
1570715594,1.8004456,-10.478821,1.6310425,0.009033203,-0.640625,0.048553467,0.4418254,-0.4061203,-0.3889711
1570715594,1.8136139,-10.476425,1.625061,0.0058288574,-0.638504,0.04748535,0.45462143,-0.43405247,-0.29452717
1570715594,1.4490967,-10.427948,2.4151459,-0.13903809,0.014511108,-0.037734985,0.109432936,-0.38800144,0.4575144
1570715594,1.4790192,-10.354324,2.3738556,-0.13796997,0.050735474,-0.037734985,0.058363557,-0.36319733,0.5462475
1570715594,1.2599487,-10.4423065,1.932724,-0.029312134,0.32983398,-0.084609985,-0.12494385,-0.31183243,0.16412747
1570715594,1.2599487,-10.4423065,1.932724,-0.029312134,0.32983398,-0.084609985,-0.15949452,-0.36053276,0.14999175
1570715594,1.4293365,-10.852921,1.5699921,0.14645386,-0.11758423,0.0155181885,-0.024698615,-0.7874031,-0.25368583
1570715594,1.4293365,-10.852921,1.5699921,0.14645386,-0.11758423,0.0155181885,-0.024698615,-0.7874031,-0.25368583
1570715594,1.6274567,-10.490799,1.3982086,0.18373108,-0.30825806,0.07304382,0.17928493,-0.47577667,-0.49453855
1570715594,1.6274567,-10.490799,1.3982086,0.18373108,-0.30825806,0.07304382,0.20690477,-0.44237614,-0.52276635
1570715594,1.5664062,-10.438721,1.2820892,0.0068969727,-0.17936707,0.017654419,0.15990937,-0.4200554,-0.68979275
1570715594,1.5568237,-10.47583,1.3090363,-0.0048217773,-0.16871643,0.014465332,0.11457658,-0.37398052,-0.69461524
1570715594,1.5071564,-10.538086,1.3934326,-0.1166687,-0.06752014,-0.005783081,0.055654883,-0.48606396,-0.5433221
1570715594,1.5304871,-10.527908,1.6789398,-0.16886902,-0.10054016,0.010192871,0.058242083,-0.45526886,-0.23480237
1570715594,1.5682068,-10.448303,1.9674377,-0.15821838,-0.12609863,0.020843506,0.1001184,-0.36114597,0.07366586
1570715594,1.663971,-10.429749,2.2667084,-0.0847168,-0.13569641,0.020843506,0.16474497,-0.34081554,0.4955802
1570715594,1.5759888,-10.247177,2.4211426,-0.025054932,-0.1580658,0.007003784,0.15443385,-0.18571949,0.5440961
1570715594,1.4203644,-10.264542,2.4366913,0.015426636,-0.0920105,-0.008972168,0.013654351,-0.12203598,0.7296256
1570715594,0.98820496,-10.681732,1.9398956,0.043121338,0.17855835,-0.017501831,-0.401541,-0.5130615,0.23719168
1570715594,0.98820496,-10.681732,1.9398956,0.043121338,0.17855835,-0.017501831,-0.401541,-0.5130615,0.23719168
1570715594,1.0642242,-10.504562,1.430542,0.021820068,0.22224426,0.014465332,-0.41530442,-0.4284191,-0.33286905
1570715594,1.2509766,-10.488403,1.3126221,0.034591675,0.097595215,0.037887573,-0.2729752,-0.3844509,-0.47554576
1570715594,1.5292969,-10.487793,1.2773132,0.053771973,-0.19108582,0.053878784,0.051225424,-0.3924694,-0.5561037
1570715594,1.711853,-10.515335,1.4155731,0.044189453,-0.36791992,0.04534912,0.23465312,-0.41240215,-0.49859107
1570715594,1.9141693,-10.386642,2.1595764,0.0015716553,-0.18894958,6.1035156E-4,0.43214917,-0.2339611,0.31870723
1570715594,1.9141693,-10.386642,2.1595764,0.0015716553,-0.18894958,6.1035156E-4,0.43214917,-0.2339611,0.31870723
1570715594,1.790268,-10.43692,2.059021,0.0026397705,-0.027038574,-0.031341553,0.34677112,-0.33821583,0.20306444
1570715594,1.2796936,-10.590149,1.8447266,-0.0026855469,0.13700867,-0.061172485,-0.122106194,-0.41859627,0.024327636
1570715594,1.2120667,-10.602722,1.6861115,-0.0026855469,0.18069458,-0.06542969,-0.23807788,-0.4513445,-0.08474231
1570715594,1.0271149,-10.526703,1.4185638,-0.0026855469,0.18281555,-0.014297485,-0.42684138,-0.42481136,-0.37766194
1570715594,1.0767975,-10.564423,1.3144226,0.01222229,0.039016724,0.014465332,-0.40013015,-0.41540527,-0.46733427
1570715594,1.1402435,-10.555435,1.3443451,0.017547607,-0.015319824,0.021911621,-0.37322092,-0.43916035,-0.50651574
1570715594,1.4048004,-10.623077,1.6202698,-0.010147095,-0.16551208,0.05281067,-0.037883162,-0.46909523,-0.2510997
1570715594,1.4281464,-10.636246,1.6442108,-0.012268066,-0.16339111,0.05067444,-0.048059464,-0.48357296,-0.21972191
1570715595,1.7609406,-10.345352,1.8195953,-0.05595398,-0.031295776,0.027236938,0.31218696,-0.21835709,0.048782468
1570715595,1.7717133,-10.325592,1.8273773,-0.059143066,-0.023834229,0.025115967,0.31218696,-0.21835709,0.048782468
1570715595,1.5885468,-10.406403,2.072174,-0.062347412,0.10719299,-0.031341553,0.18500149,-0.19809532,0.27437246
1570715595,1.5885468,-10.406403,2.072174,-0.062347412,0.10719299,-0.031341553,0.18500149,-0.19809532,0.27437246
1570715595,1.3617096,-10.509949,1.766922,0.0068969727,0.08908081,-0.015365601,-0.09652293,-0.37452793,0.10911858
1570715595,1.3527222,-10.521912,1.8201904,0.01222229,0.08055115,-0.012176514,-0.09652293,-0.37452793,0.10911858
1570715595,1.4365234,-10.540466,1.6184845,0.04524231,-0.08242798,0.016586304,-0.008101702,-0.36664677,-0.15727222
1570715595,1.4850006,-10.488403,1.5586243,0.046310425,-0.10800171,0.018722534,0.021749377,-0.29321194,-0.19141352
1570715595,1.5137329,-10.557236,1.5005646,0.021820068,-0.068573,0.010192871,0.0491302,-0.32997513,-0.22500467
1570715595,1.5125427,-10.572189,1.577774,-0.0048217773,-0.023834229,0.0037994385,0.077266335,-0.3931942,-0.24813044
1570715595,1.4598694,-10.472839,1.5580292,-0.027191162,0.0113220215,-0.0015258789,0.05629027,-0.24077034,-0.24152684
1570715595,1.4125824,-10.459076,1.5634155,-0.035705566,0.021972656,-0.0025787354,-0.036720395,-0.23492622,-0.15719843
1570715595,1.4335327,-10.550644,1.6107025,-0.03677368,-0.0036010742,-0.012176514,-0.05897689,-0.32397652,-0.16409898
1570715595,1.3940277,-10.525513,1.6765442,-0.030380249,-0.054733276,-4.5776367E-4,-0.032346606,-0.32298946,-0.03414297
1570715595,1.4784241,-10.445297,1.7310028,-0.0058898926,-0.07284546,0.007003784,0.003749609,-0.1867075,0.051269054
1570715595,1.5711975,-10.438126,1.7244263,5.0354004E-4,-0.11332703,0.0037994385,0.12307632,-0.19168282,-0.028891802
1570715595,1.6047211,-10.268127,1.6735535,0.018615723,-0.085617065,-0.013244629,0.093991995,0.012098312,0.0119229555
1570715595,1.6047211,-10.268127,1.6735535,0.018615723,-0.085617065,-0.013244629,0.093991995,0.012098312,0.0119229555
1570715595,1.5304871,-10.723633,1.5789795,0.040985107,-0.07070923,-0.031341553,0.034472942,-0.39617348,-0.10651398
1570715595,1.4694366,-10.767929,1.608902,0.028198242,-0.06964111,-0.019622803,-0.01916194,-0.48065948,-0.168491
1570715595,1.3700867,-10.502167,1.4688416,-0.008010864,-0.05580139,0.002746582,-0.11244094,-0.20310879,-0.19587803
1570715595,1.351532,-10.429138,1.482605,-0.02079773,-0.1580658,0.005935669,-0.12927866,-0.07751465,-0.21022809
1570715595,1.3497314,-10.436325,1.5316925,-0.021865845,-0.16018677,0.005935669,-0.14462996,-0.10571575,-0.1741345
1570715595,1.3886414,-10.507553,1.75914,-0.03465271,-0.13142395,0.005935669,-0.09574282,-0.15922832,0.03889036
1570715595,1.3976135,-10.411179,1.8596954,-0.012268066,-0.07496643,6.1035156E-4,-0.114111185,-0.12702274,0.18750858
1570715595,1.36409,-10.504562,1.821991,0.018615723,-0.06752014,0.0037994385,-0.11549199,-0.11051655,0.19285846
1570715595,1.486206,-10.584763,1.6747437,0.06442261,-0.062194824,0.010192871,0.004613638,-0.24639511,0.042037725
1570715595,1.6023254,-10.51413,1.4772186,0.046310425,-0.031295776,0.009140015,0.06909609,-0.134099,-0.17652333
1570715595,1.5945435,-10.461472,1.407196,0.025009155,-0.034484863,0.005935669,0.12919366,-0.12918377,-0.23662448
1570715595,1.6352386,-10.479416,1.4311371,0.011154175,-0.060058594,0.0048675537,0.14181304,-0.110440254,-0.2230407
1570715595,1.5556335,-10.512939,1.5789795,-0.028259277,-0.07496643,-0.011108398,0.026933193,-0.13171768,-0.08547354
1570715595,1.5556335,-10.512939,1.5789795,-0.028259277,-0.07496643,-0.011108398,0.026933193,-0.13171768,-0.08547354
1570715596,1.5245056,-10.509354,1.6819305,-0.0026855469,-0.12609863,6.1035156E-4,-0.026743293,-0.1146307,0.11766958
1570715596,1.5245056,-10.509354,1.6819305,-0.0026855469,-0.12609863,6.1035156E-4,-0.026743293,-0.1146307,0.11766958
1570715596,1.5622101,-10.47464,1.727417,0.013290405,-0.12930298,-0.0036468506,0.037487864,-0.06291866,0.1431129
1570715596,1.5622101,-10.47464,1.727417,0.013290405,-0.12930298,-0.0036468506,0.037487864,-0.06291866,0.1431129
1570715596,1.4502869,-10.492584,1.5424652,0.0058288574,-0.040878296,-0.0079193115,-0.10107827,-0.053416252,-0.0147868395
1570715596,1.4502869,-10.492584,1.5424652,0.0058288574,-0.040878296,-0.0079193115,-0.10107827,-0.053416252,-0.0147868395
1570715596,1.4999695,-10.547653,1.4359283,0.007965088,-0.19108582,0.021911621,-0.107453465,-0.14626217,-0.17794836
1570715596,1.4999695,-10.547653,1.4359283,0.007965088,-0.19108582,0.021911621,-0.107453465,-0.14626217,-0.17794836
1570715596,1.6555939,-10.4423065,1.5340881,0.021820068,-0.26779175,0.027236938,0.06350517,-0.023226738,-0.061641335
1570715596,1.6555939,-10.4423065,1.5340881,0.021820068,-0.26779175,0.027236938,0.06350517,-0.023226738,-0.061641335
1570715596,1.5927429,-10.41597,1.6681671,-0.008010864,-0.17085266,0.012329102,0.034342647,-0.017962456,0.069159985
1570715596,1.5544281,-10.519531,1.6591797,-0.014404297,-0.04727173,-0.008972168,0.008449197,-0.064499855,0.049770355
1570715596,1.5107422,-10.540466,1.6448212,-0.012268066,-0.038757324,-0.0079193115,-0.045494914,-0.034656525,0.048503995
1570715596,1.5352783,-10.421967,1.5909424,-0.010147095,-0.08029175,0.002746582,-0.048086762,3.786087E-4,0.016148925
1570715596,1.4921875,-10.443512,1.6549988,0.007965088,-0.14102173,0.009140015,-0.034289837,-0.029857635,0.054965973
1570715596,1.5364838,-10.463852,1.5717926,0.02394104,-0.16551208,0.010192871,-0.057999253,0.016116142,0.08083129
1570715596,1.467041,-10.43692,1.6950989,0.02607727,-0.14953613,0.002746582,-0.08528185,-0.050569534,0.14503479
1570715596,1.4808197,-10.519531,1.6017151,0.028198242,-0.11437988,-0.004714966,-0.10523188,-0.07706356,0.044587255
1570715596,1.4185638,-10.523712,1.514328,0.028198242,-0.095214844,-0.0036468506,-0.11949372,-0.09313774,-0.021926522
1570715596,1.4724274,-10.562027,1.4724274,0.031402588,-0.09840393,6.1035156E-4,-0.14192677,-0.08720398,-0.098572254
1570715596,1.4281464,-10.53508,1.4514923,0.021820068,-0.10267639,6.1035156E-4,-0.15072453,-0.08308315,-0.15071225
1570715596,1.4215546,-10.520126,1.459259,-5.493164E-4,-0.09095764,0.0037994385,-0.12650728,-0.04530716,-0.060606003
1570715596,1.5173187,-10.490189,1.5358734,-0.02293396,-0.052597046,6.1035156E-4,-0.054952502,-0.061570168,-0.040337563
1570715596,1.5664062,-10.411789,1.5801697,-0.017608643,-0.05899048,-0.0036468506,-0.023782969,0.025756836,0.010886908
1570715596,1.5424652,-10.464462,1.7992401,-0.0048217773,0.0113220215,-0.022827148,-0.05079174,-0.017023087,0.20666802
1570715596,1.5424652,-10.464462,1.7992401,-0.0048217773,0.0113220215,-0.022827148,-0.05079174,-0.017023087,0.20666802
1570715596,1.4778137,-10.506363,1.6178894,0.030334473,0.033691406,-0.017501831,-0.07059932,-0.055031776,0.053834915
1570715596,1.4915924,-10.47583,1.6526031,0.032470703,0.025161743,-0.017501831,-0.07059932,-0.055031776,0.053834915
1570715596,1.5047607,-10.49379,1.4784241,0.03565979,0.0017242432,-0.0068511963,-0.087130904,-0.016971588,-0.08641398
1570715596,1.4454956,-10.431534,1.5113373,0.017547607,0.012374878,-0.0015258789,-0.10509884,0.016608238,-0.14234972
1570715596,1.5927429,-10.547653,1.4532776,0.020751953,-0.040878296,0.0016784668,0.023599029,-0.058699608,-0.120598316
1570715596,1.5927429,-10.547653,1.4532776,0.020751953,-0.040878296,0.0016784668,0.023599029,-0.058699608,-0.120598316
1570715596,1.60112,-10.483612,1.5274963,0.025009155,-0.07496643,0.002746582,0.013548136,-0.0638361,-0.114062905
1570715596,1.5125427,-10.575195,1.5993195,0.0143585205,-0.008926392,-0.0015258789,-0.051300287,-0.08674812,-0.002252698
1570715597,1.5741882,-10.431534,1.4526825,0.01222229,0.04434204,-0.0015258789,-0.0025911331,-0.009860992,-0.18166041
1570715597,1.5741882,-10.467453,1.4018097,0.011154175,0.041137695,-0.0015258789,-0.0025911331,-0.009860992,-0.18166041
1570715597,1.5574341,-10.599136,1.5251007,0.0015716553,-0.0057373047,-0.0079193115,-0.00835669,-0.08799267,-0.083866954
1570715597,1.5574341,-10.599136,1.5251007,0.0015716553,-0.0057373047,-0.0079193115,-0.00835669,-0.08799267,-0.083866954
1570715597,1.6148834,-10.423752,1.5969391,-0.006942749,-0.008926392,0.012329102,0.04459381,0.043872833,0.020228982
1570715597,1.6148834,-10.423752,1.5969391,-0.006942749,-0.008926392,0.012329102,0.04459381,0.043872833,0.020228982
1570715597,1.664566,-10.554245,1.7585449,0.0143585205,-0.017440796,-0.0079193115,0.09556162,-0.03658104,0.1417265
1570715597,1.7016754,-10.584763,1.7184448,0.0143585205,-0.014251709,-0.0068511963,0.07942724,-0.060189247,0.16216743
1570715597,1.5999298,-10.505157,1.5628204,0.0015716553,0.054992676,-0.0079193115,-0.008407354,-0.02972889,-0.03741181
1570715597,1.5873566,-10.450684,1.5939331,0.0015716553,0.052856445,-0.0079193115,-0.008407354,-0.02972889,-0.03741181
1570715597,1.5867615,-10.4895935,1.5741882,-0.006942749,0.014511108,0.0037994385,-0.06385529,0.023321152,-0.06258917
1570715597,1.5867615,-10.4895935,1.5741882,-0.006942749,0.014511108,0.0037994385,-0.06385529,0.023321152,-0.06258917
1570715597,1.6537933,-10.491989,1.7316132,-0.019729614,-0.043014526,0.009140015,0.07921016,-0.017222404,0.1261766
1570715597,1.6735535,-10.494385,1.7256165,-0.017608643,-0.040878296,0.010192871,0.07921016,-0.017222404,0.1261766
1570715597,1.6968842,-10.400406,1.7519531,0.0037078857,-0.038757324,0.012329102,0.13563251,0.04285431,0.18202889
1570715597,1.6927032,-10.402206,1.7956543,0.0068969727,-0.031295776,0.008071899,0.12088907,0.055701256,0.11144495
1570715597,1.6184845,-10.432739,1.7160492,0.0068969727,0.03048706,-0.0068511963,0.024877548,0.04123497,0.11367631
1570715597,1.5711975,-10.508148,1.5412598,0.0068969727,0.035812378,-0.0068511963,-0.019524217,-0.0050172806,-0.035134196
1570715597,1.5670013,-10.508148,1.5412598,0.0068969727,0.035812378,-0.0068511963,-0.019524217,-0.017850876,-0.057240367
1570715597,1.5011597,-10.447098,1.5472565,-0.015472412,-0.03236389,0.009140015,-0.06071019,0.034614563,-0.10051727
1570715597,1.5113373,-10.409393,1.5197144,-0.015472412,-0.033432007,0.007003784,-0.096544385,0.029460907,-0.083461404
1570715597,1.5628204,-10.444107,1.553833,-0.010147095,-0.040878296,0.0048675537,-0.026887298,0.02955246,-0.037900686
1570715597,1.6442108,-10.51474,1.6232758,-0.0090789795,-0.04727173,0.0037994385,0.02144742,0.008355141,-0.0016715527
1570715597,1.608902,-10.492584,1.7094574,-0.018661499,0.008117676,-0.0079193115,0.012692094,-0.035348892,0.12718141
1570715597,1.5083466,-10.509354,1.6711578,-0.03465271,0.074157715,-0.005783081,-0.025446653,-0.02035904,0.07433462
1570715597,1.5598297,-10.511139,1.5717926,-0.031448364,0.043273926,0.0037994385,-0.018703222,-0.008527756,0.01299274
1570715597,1.5622101,-10.49379,1.577179,-0.019729614,-0.038757324,0.009140015,0.001675725,0.0034828186,-0.013253927
1570715597,1.577179,-10.460861,1.6148834,-0.016540527,-0.034484863,0.005935669,0.0030739307,0.050513268,0.047656655
1570715597,1.5580292,-10.469849,1.5837708,-0.003753662,0.034744263,-0.005783081,0.008606434,-5.636215E-4,0.005660057
1570715597,1.5580292,-10.469849,1.5837708,-0.003753662,0.034744263,-0.005783081,0.008606434,-5.636215E-4,0.005660057
1570715597,1.5274963,-10.491989,1.5251007,0.010101318,0.0027923584,-0.0079193115,-0.012850761,-0.011256218,-0.059703827
1570715597,1.5274963,-10.491989,1.5251007,0.010101318,0.0027923584,-0.0079193115,-0.012850761,-0.011256218,-0.059703827
1570715597,1.4736328,-10.53569,1.5544281,0.0068969727,0.06990051,-0.008972168,-0.09101498,-0.04029751,-0.059284687
1570715597,1.4736328,-10.53569,1.5544281,0.0068969727,0.06990051,-0.008972168,-0.09101498,-0.04029751,-0.059284687
1570715598,1.438324,-10.500366,1.3688812,-0.014404297,0.045410156,0.010192871,-0.0933584,-0.022731781,-0.1984874
1570715598,1.438324,-10.500366,1.3688812,-0.014404297,0.045410156,0.010192871,-0.0933584,-0.022731781,-0.1984874
1570715598,1.5191193,-10.478226,1.3934326,-0.0048217773,-0.027038574,0.0155181885,-0.030491352,-0.0012989044,-0.14451206
1570715598,1.5514374,-10.559631,1.5484467,-0.014404297,-0.014251709,-4.5776367E-4,0.020676613,-0.06567955,-0.017016053
1570715598,1.5514374,-10.559631,1.5484467,-0.014404297,-0.014251709,-4.5776367E-4,0.020676613,-0.06567955,-0.017016053
1570715598,1.5711975,-10.541077,1.5921478,-0.030380249,0.08482361,-0.0015258789,0.015709162,-0.054929733,0.002657175
1570715598,1.5747833,-10.523117,1.450882,-0.023986816,0.07310486,0.0016784668,0.027661324,-0.020736694,-0.017918587
1570715598,1.5723877,-10.424347,1.4610596,-0.010147095,-0.054733276,0.014465332,0.062837124,0.05027485,-0.12564337
1570715598,1.6130981,-10.445297,1.617279,0.007965088,-0.064315796,-4.5776367E-4,0.057473898,0.03792286,0.12350464
1570715598,1.6130981,-10.445297,1.617279,0.007965088,-0.064315796,-4.5776367E-4,0.057473898,0.03792286,0.12350464
1570715598,1.5652161,-10.596741,1.6130981,0.009033203,0.039016724,-0.015365601,0.036032557,-0.08715916,0.09614241
1570715598,1.5155334,-10.463257,1.4598694,0.004776001,0.05178833,6.1035156E-4,-0.09240556,-0.014953613,-0.13040578
1570715598,1.4688416,-10.491394,1.4221497,0.0068969727,0.047531128,-4.5776367E-4,-0.09240556,-0.014953613,-0.13040578
1570715598,1.5586243,-10.472244,1.4365234,-0.0016174316,-0.07496643,0.009140015,-0.014601588,-0.0137376785,-0.1327579
1570715598,1.5586243,-10.472244,1.4365234,-0.0016174316,-0.07496643,0.009140015,-0.014601588,-0.0137376785,-0.1327579
1570715598,1.6047211,-10.488403,1.6849213,-0.013336182,-0.036621094,6.1035156E-4,0.07001853,-0.011857986,0.126549
1570715598,1.6047211,-10.488403,1.6849213,-0.013336182,-0.036621094,6.1035156E-4,0.07001853,-0.011857986,0.126549
1570715598,1.5939331,-10.475235,1.6986847,-0.008010864,0.0070495605,-0.0068511963,0.023566365,0.02660942,0.17172015
1570715598,1.5227051,-10.503967,1.5801697,0.017547607,0.012374878,-0.0025787354,-0.037547827,-0.009785652,0.034327984
1570715598,1.5682068,-10.539871,1.5388794,0.021820068,6.5612793E-4,-0.0015258789,-0.034917593,-0.0054101944,0.038686156
1570715598,1.5574341,-10.5841675,1.4221497,0.0143585205,0.013442993,6.1035156E-4,-0.019724727,-0.050245285,-0.11647236
1570715598,1.5574341,-10.5841675,1.4221497,0.0143585205,0.013442993,6.1035156E-4,-0.019724727,-0.050245285,-0.11647236
1570715598,1.5358734,-10.503967,1.4095917,-0.0090789795,-0.0036010742,0.0037994385,-0.009510994,-0.042203903,-0.13831115
1570715598,1.546051,-10.465652,1.5484467,-0.021865845,-0.02810669,0.008071899,-0.022286177,0.05288315,0.018234134
1570715598,1.546051,-10.465652,1.5484467,-0.021865845,-0.02810669,0.008071899,-0.022286177,0.05288315,0.018234134
1570715598,1.5981293,-10.491989,1.6591797,-0.02079773,-0.008926392,0.0048675537,0.02622366,-0.0075731277,0.12041485
1570715598,1.6268616,-10.469849,1.7064667,-0.013336182,0.0038604736,0.0016784668,0.057780147,0.007774353,0.1324054
1570715598,1.6142883,-10.469238,1.6938934,-0.0016174316,0.009185791,-0.004714966,0.04704249,0.019831657,0.15587044
1570715598,1.5568237,-10.528503,1.6214752,0.0037078857,0.03794861,-0.0025787354,-0.024952412,0.003232956,0.07390404
1570715598,1.4951782,-10.530899,1.490387,0.0037078857,0.06350708,-4.5776367E-4,-0.041915774,-0.032209396,0.022478938
1570715598,1.5610199,-10.518921,1.403595,0.0015716553,0.025161743,6.1035156E-4,-0.03870046,-0.04482937,-0.14690483
1570715598,1.5430603,-10.560822,1.454483,-0.02079773,-0.0121154785,0.0016784668,-0.011100054,-0.061777115,-0.12975109
1570715599,1.5843658,-10.462662,1.4868011,-0.026123047,-0.006790161,0.009140015,0.013847947,0.032526016,-0.028265357
1570715599,1.5801697,-10.436325,1.5269012,-0.030380249,-0.0046691895,0.008071899,0.013847947,0.032526016,-0.028265357
1570715599,1.5640106,-10.45668,1.5993195,-0.02293396,0.0070495605,0.0037994385,0.024693131,0.016446114,0.052232623
1570715599,1.5574341,-10.506363,1.6005249,-0.026123047,0.017700195,-0.0015258789,0.024002075,-0.00959301,0.08451486
1570715599,1.5442657,-10.447098,1.4844055,-0.01121521,0.046463013,0.0037994385,-0.024856567,0.0027284622,0.016651392
1570715599,1.5442657,-10.447098,1.4844055,-0.01121521,0.046463013,0.0037994385,-0.024856567,0.0027284622,0.016651392
1570715599,1.5490417,-10.480026,1.4137726,-0.006942749,-0.013183594,0.009140015,-0.035530925,0.038650513,-0.06856716
1570715599,1.5490417,-10.480026,1.4137726,-0.006942749,-0.013183594,0.009140015,-0.035530925,0.038650513,-0.06856716
1570715599,1.5394745,-10.445908,1.4610596,-0.013336182,0.0017242432,0.0016784668,0.022166848,0.02545929,0.0126366615
1570715599,1.6178894,-10.434525,1.4796143,-0.017608643,0.008117676,6.1035156E-4,0.028623939,-9.059906E-5,-0.014616728
1570715599,1.5741882,-10.517136,1.5251007,-0.013336182,0.014511108,-0.0036468506,0.017921567,0.00802803,0.014852047
1570715599,1.5664062,-10.524918,1.4778137,-0.0026855469,0.010253906,6.1035156E-4,0.01737523,-0.019239426,-0.007586956
1570715599,1.5490417,-10.496185,1.4706421,-0.0058898926,-0.0014648438,0.002746582,0.01612699,0.0069465637,-0.024621248
1570715599,1.5688019,-10.519531,1.4574738,-0.010147095,-0.01638794,6.1035156E-4,0.0077397823,-0.015862465,-0.015292883
1570715599,1.5185242,-10.498581,1.4245453,-0.010147095,-0.011062622,-4.5776367E-4,0.0102033615,-0.02072239,-0.013406873
1570715599,1.5274963,-10.460266,1.4472961,-0.018661499,-0.007858276,6.1035156E-4,-0.021742582,0.02985096,0.023168683
1570715599,1.5167236,-10.461472,1.4431,-0.018661499,-0.013183594,6.1035156E-4,-0.014191031,0.056160927,-0.034439445
1570715599,1.4766235,-10.491394,1.5215149,-5.493164E-4,-0.02810669,0.0037994385,-0.0713253,0.011519432,0.050267696
1570715599,1.419754,-10.533295,1.5035553,0.0058288574,0.016647339,-4.5776367E-4,-0.086804986,-0.0050554276,0.030435562
1570715599,1.4251556,-10.527908,1.4478912,-0.0016174316,0.05606079,-4.5776367E-4,-0.070571065,-0.03953743,0.010024071
1570715599,1.5418701,-10.532089,1.36409,0.0015716553,0.029418945,0.0037994385,0.0044682026,-0.017281532,-0.115733385
1570715599,1.5203247,-10.571594,1.2892761,0.0026397705,-0.006790161,0.007003784,0.0014877319,-0.016988754,-0.11574936
1570715599,1.5197144,-10.482407,1.4143677,-0.0058898926,-0.040878296,0.009140015,0.017600894,0.050211906,-0.048341274
1570715599,1.5161285,-10.470444,1.459259,-0.018661499,0.016647339,0.0048675537,0.015196562,0.0323658,0.008871913
1570715599,1.5688019,-10.541077,1.5550385,-0.023986816,0.031555176,0.0016784668,0.018114448,-0.010710716,0.038608313
1570715599,1.5316925,-10.525513,1.490387,-0.012268066,0.021972656,0.0037994385,0.012196183,-0.021077156,0.09008682
1570715599,1.5191193,-10.539276,1.4915924,-5.493164E-4,0.008117676,0.0048675537,0.038146973,-0.03520775,0.104542255
1570715599,1.5466614,-10.483017,1.4311371,0.011154175,-0.0046691895,0.010192871,0.04316914,0.03584957,0.024657845
1570715599,1.5783844,-10.478821,1.4676514,0.0015716553,0.0113220215,0.002746582,0.011152387,0.010461807,-0.04097271
1570715599,1.5370789,-10.486008,1.3934326,-0.0026855469,0.036880493,-4.5776367E-4,0.009407759,0.01856327,-0.01796174
1570715599,1.50177,-10.469849,1.3916321,-5.493164E-4,0.029418945,-0.0025787354,0.022928119,-0.009506226,-0.028088212
1570715599,1.5041504,-10.433334,1.4011993,0.004776001,0.010253906,-0.0036468506,-0.012684226,0.045788765,-0.0087322
1570715599,1.5370789,-10.481216,1.4251556,0.004776001,0.0017242432,-0.0025787354,0.018630147,0.015462875,-0.02006197
1570715599,1.5436554,-10.553635,1.4688416,0.027145386,-0.025970459,0.0048675537,0.054183006,0.021354675,0.04054141
1570715600,1.5292969,-10.510544,1.4814148,0.020751953,0.04006958,-0.005783081,-0.0284518,0.015656471,0.04611051
1570715600,1.5292969,-10.510544,1.4814148,0.020751953,0.04006958,-0.005783081,-0.0284518,0.015656471,0.04611051
1570715600,1.4999695,-10.526108,1.2892761,0.025009155,0.017700195,-0.008972168,0.015272737,-0.021858215,-0.09570837
1570715600,1.5125427,-10.566208,1.3371582,0.0143585205,-0.014251709,-0.0036468506,-0.02665627,-0.04821396,-0.13232136
1570715600,1.4951782,-10.483612,1.4281464,0.013290405,-0.036621094,0.0048675537,-0.009187818,0.009923935,-0.050699353
1570715600,1.5071564,-10.49498,1.4281464,0.013290405,-0.036621094,0.0048675537,-0.009187818,0.009923935,-0.050699353
1570715600,1.5131378,-10.508148,1.5029602,-0.0058898926,-0.029159546,-0.004714966,-0.0052223206,0.003862381,0.043255806
1570715600,1.5454559,-10.465057,1.5735931,-0.0016174316,-0.021713257,-0.0068511963,0.024809003,0.0062437057,0.092921376
1570715600,1.5059509,-10.503967,1.5975342,0.019683838,-0.008926392,-0.0079193115,0.014271855,-0.026254654,0.12593853
1570715600,1.5412598,-10.511139,1.6053162,0.02607727,-0.015319824,-0.004714966,-0.045763493,-0.031759262,0.09837699
1570715600,1.4855957,-10.5368805,1.5119324,0.020751953,0.027297974,-0.005783081,-0.082846045,-0.036128044,-0.015101552
1570715600,1.4838104,-10.487793,1.4568787,0.020751953,0.031555176,-4.5776367E-4,-0.08025217,-0.027219772,-0.03583753
1570715600,1.4514923,-10.523712,1.3700867,0.020751953,0.026229858,-0.0015258789,-0.050350428,-0.0031051636,-0.08482516
1570715600,1.5574341,-10.517731,1.4850006,-0.0016174316,-0.06112671,-0.004714966,0.013348699,-0.03512764,-0.042325854
1570715600,1.5574341,-10.517731,1.4850006,-0.0016174316,-0.06112671,-0.004714966,0.013348699,-0.03512764,-0.042325854
1570715600,1.3940277,-10.454285,1.5418701,-0.008010864,-0.011062622,-0.004714966,-0.09021795,0.048270226,0.06062019
1570715600,1.4556732,-10.539871,1.5185242,-0.017608643,0.07522583,-0.010040283,-0.049608827,-0.007204056,0.100717306
1570715600,1.5735931,-10.510544,1.5053558,0.0143585205,0.0070495605,-0.010040283,0.03163457,-0.033280373,-0.004152417
1570715600,1.5735931,-10.510544,1.5053558,0.0143585205,0.0070495605,-0.010040283,0.03163457,-0.033280373,-0.004152417
1570715600,1.5322876,-10.547653,1.5544281,-0.0026855469,0.009185791,-0.0036468506,-0.018478751,-0.040950775,0.05922377
1570715600,1.5173187,-10.490189,1.5131378,0.0015716553,0.017700195,0.0016784668,-0.014622211,-0.028632164,0.046237588
1570715600,1.6202698,-10.463257,1.5089417,-0.010147095,-0.04408264,-0.004714966,0.040111423,0.049326897,-0.034317017
1570715600,1.6202698,-10.463257,1.5089417,-0.010147095,-0.04408264,-0.004714966,0.040111423,0.049326897,-0.034317017
1570715600,1.5741882,-10.477631,1.6334381,0.010101318,-0.008926392,-0.015365601,0.01632607,0.0020008087,0.11657095
1570715600,1.5741882,-10.477631,1.6334381,0.010101318,-0.008926392,-0.015365601,0.01632607,0.0020008087,0.11657095
1570715600,1.4975739,-10.504562,1.4886017,0.015426636,0.036880493,-0.005783081,-0.037697434,-0.04306984,-0.0011703968
1570715600,1.4975739,-10.504562,1.4886017,0.015426636,0.036880493,-0.005783081,-0.037697434,-0.04306984,-0.0011703968
1570715600,1.5699921,-10.562027,1.450882,0.016494751,0.0038604736,-0.0015258789,-0.02968216,-0.03623295,-0.09968209
1570715600,1.5909424,-10.467453,1.3617096,0.007965088,-0.03982544,0.0048675537,-0.0016210079,0.026564598,-0.17045891
1570715600,1.6023254,-10.55304,1.4293365,-0.0090789795,-0.057922363,0.0016784668,0.03632772,-0.0077114105,-0.08402431
1570715600,1.5975342,-10.409988,1.6579895,-5.493164E-4,-0.050476074,6.1035156E-4,0.0432837,0.08563614,0.10099292
1570715600,1.5975342,-10.409988,1.6579895,-5.493164E-4,-0.050476074,6.1035156E-4,0.0432837,0.08563614,0.10099292
1570715600,1.5921478,-10.494385,1.6717529,0.016494751,0.021972656,-0.012176514,0.017704844,-0.056954384,0.19621027
1570715600,1.5921478,-10.494385,1.6717529,0.016494751,0.021972656,-0.012176514,0.017704844,-0.056954384,0.19621027
1570715601,1.5328827,-10.577576,1.4778137,0.031402588,0.08375549,-0.005783081,-0.050691366,-0.06857014,-0.06676459
1570715601,1.5346832,-10.490799,1.304245,0.015426636,0.0070495605,0.005935669,-0.01880169,-0.045526505,-0.26827252
1570715601,1.5245056,-10.494385,1.2767029,0.013290405,-0.0121154785,0.008071899,-0.030168891,-0.020573616,-0.22909653
1570715601,1.5496521,-10.486008,1.2970581,5.0354004E-4,-0.068573,0.013397217,0.0051755905,0.036276817,-0.25931227
1570715601,1.6041107,-10.460861,1.5203247,-0.029312134,-0.06112671,0.007003784,0.05846739,-0.007854462,-0.00839901
1570715601,1.6597748,-10.45607,1.6208801,-0.03465271,-0.033432007,-4.5776367E-4,0.07522929,0.03748989,0.102048755
1570715601,1.5807648,-10.445908,1.7304077,-0.026123047,-0.0014648438,-0.012176514,0.056288004,0.023602486,0.18793452
1570715601,1.5263062,-10.527298,1.7190399,5.0354004E-4,0.045410156,-0.013244629,-0.02654171,-0.017623901,0.21364808
1570715601,1.506546,-10.491989,1.5496521,0.017547607,0.03794861,-0.0025787354,-0.032603502,-0.041194916,0.077992916
1570715601,1.5119324,-10.533295,1.5227051,0.02607727,0.017700195,0.0016784668,-0.07734299,-0.012265205,0.0062861443
1570715601,1.6376343,-10.499771,1.4101868,0.030334473,-0.05899048,0.011260986,0.06393802,-0.014620781,-0.14105296
1570715601,1.6316528,-10.522522,1.4233551,0.0068969727,-0.073913574,0.0048675537,0.044068098,-0.027251244,-0.13665295
1570715601,1.5969391,-10.4183655,1.4879913,-0.014404297,-0.034484863,0.0016784668,0.049176097,0.03984928,-0.084273815
1570715601,1.5849609,-10.526703,1.5233154,-0.023986816,0.0059814453,-0.008972168,-0.0010004044,0.024541855,-0.0032485723
1570715601,1.5466614,-10.502167,1.538269,-0.028259277,0.021972656,-0.0079193115,-0.043023348,0.010030746,0.0313375
1570715601,1.4957733,-10.565613,1.5759888,-0.014404297,0.04006958,-0.0025787354,-0.082529664,-0.027890205,0.12628591
1570715601,1.5119324,-10.561417,1.5400696,-0.01121521,0.03262329,0.0037994385,-0.11645615,-0.05824089,0.022976518
1570715601,1.5370789,-10.491989,1.4814148,0.007965088,-0.031295776,0.0155181885,-0.03342557,-0.0014505386,-0.018024206
1570715601,1.5496521,-10.426147,1.4754333,-0.0016174316,-0.029159546,0.012329102,-0.004377842,0.034436226,-0.07706356
1570715601,1.5741882,-10.484802,1.5287018,-0.021865845,0.026229858,0.005935669,0.009126425,0.011777878,0.010863543
1570715601,1.5233154,-10.515335,1.4879913,-0.027191162,0.029418945,0.0016784668,-0.0109421015,0.02604866,0.0073120594
1570715601,1.5478516,-10.516525,1.4915924,-0.028259277,0.028366089,0.0016784668,-0.0109421015,0.02604866,0.0073120594
1570715601,1.5430603,-10.554245,1.572998,-0.014404297,-0.0036010742,0.007003784,0.0050189495,-0.022258759,0.051433682
1570715601,1.5664062,-10.413574,1.5263062,-0.013336182,-0.0014648438,0.008071899,0.04500389,0.047657967,0.04035771
1570715601,1.529892,-10.47583,1.52211,-0.012268066,-0.0036010742,0.007003784,0.04500389,0.047657967,0.04035771
1570715601,1.5717926,-10.477631,1.5173187,-0.0016174316,0.035812378,6.1035156E-4,0.0029000044,0.030938148,0.018680453
1570715601,1.5717926,-10.477631,1.5173187,-0.0016174316,0.035812378,6.1035156E-4,0.0029000044,0.030938148,0.018680453
1570715601,1.5053558,-10.471634,1.4550781,5.0354004E-4,0.043273926,-0.008972168,-0.017665744,0.033174515,0.015413523
1570715601,1.4323273,-10.542267,1.4269409,-0.003753662,0.05178833,6.1035156E-4,-0.030448794,-0.048977852,-0.051653504
1570715601,1.5322876,-10.432129,1.4000092,0.017547607,0.009185791,0.011260986,-0.00843823,0.028399467,-0.104260445
1570715601,1.5322876,-10.432129,1.4000092,0.017547607,0.009185791,0.011260986,-0.00843823,0.028399467,-0.104260445
1570715601,1.5436554,-10.480621,1.3742676,0.009033203,-0.007858276,6.1035156E-4,0.012087226,0.029834747,-0.12194157
1570715601,1.538269,-10.543472,1.4814148,-0.006942749,0.04220581,-0.0068511963,0.0055009127,-0.04632473,0.005251646
1570715602,1.5191193,-10.57579,1.4293365,-0.0090789795,0.08482361,-0.0079193115,-0.007813334,-0.026140213,-0.012288094
1570715602,1.5819702,-10.488998,1.3060303,-0.014404297,-0.027038574,0.017654419,0.038026094,0.030319214,-0.118267775
1570715602,1.5819702,-10.488998,1.3060303,-0.014404297,-0.027038574,0.017654419,0.038026094,0.030319214,-0.118267775
1570715602,1.617279,-10.45369,1.3976135,-0.0090789795,-0.097335815,0.012329102,0.049028397,0.036157608,-0.033601522
1570715602,1.561615,-10.459076,1.5574341,-0.014404297,0.04220581,-0.008972168,0.0418216,0.03592491,0.15615535
1570715602,1.561615,-10.459076,1.5574341,-0.014404297,0.04220581,-0.008972168,0.0418216,0.03592491,0.15615535
1570715602,1.4580688,-10.510544,1.4652557,0.0026397705,0.04966736,-0.004714966,-0.073735714,0.0038671494,0.045336246
1570715602,1.4580688,-10.510544,1.4652557,0.0026397705,0.04966736,-0.004714966,-0.073735714,0.0038671494,0.045336246
1570715602,1.5023651,-10.482407,1.4048004,0.03565979,-0.038757324,0.008071899,-0.0148489475,0.009127617,-0.04313171
1570715602,1.5023651,-10.482407,1.4048004,0.03565979,-0.038757324,0.008071899,-0.0148489475,0.009127617,-0.04313171
1570715602,1.5795746,-10.518326,1.3557129,0.028198242,-0.023834229,-0.008972168,0.06328213,-0.005218506,-0.074405074
1570715602,1.5795746,-10.518326,1.3557129,0.028198242,-0.023834229,-0.008972168,0.06328213,-0.005218506,-0.074405074
1570715602,1.5897522,-10.481216,1.3814545,-0.0048217773,0.012374878,-0.012176514,0.035243154,-0.044350624,-0.09398723
1570715602,1.5550385,-10.451889,1.406601,-0.008010864,-0.013183594,-0.010040283,0.012197614,0.077340126,-0.05669248
1570715602,1.5873566,-10.370483,1.5101471,0.0015716553,-0.05899048,-0.019622803,0.00689137,0.122299194,0.03745258
1570715602,1.459259,-10.596741,1.6585846,0.042053223,0.0027923584,-0.029220581,-0.13734841,-0.111083984,0.19258225
1570715602,1.459259,-10.596741,1.6585846,0.042053223,0.0027923584,-0.029220581,-0.13734841,-0.111083984,0.19258225
1570715602,1.34375,-10.585358,1.4185638,0.050582886,0.08482361,-0.0036468506,-0.19471335,-0.11347866,-0.021888733
1570715602,1.4658508,-10.547058,1.2150574,0.06655884,-0.046203613,0.012329102,-0.06595147,-0.020946503,-0.3319801
1570715602,1.4682465,-10.499771,1.1611938,0.06867981,-0.05580139,0.0155181885,-0.06595147,-0.020946503,-0.3319801
1570715602,1.5514374,-10.527298,1.3257904,-0.0048217773,-0.11437988,0.0016784668,0.006210327,-0.021726608,-0.18744338
1570715602,1.5514374,-10.527298,1.3257904,-0.0048217773,-0.11437988,0.0016784668,0.006210327,-0.021726608,-0.18744338
1570715602,1.5628204,-10.517731,1.459259,-0.029312134,-0.06112671,6.1035156E-4,0.036758065,-0.02854824,-0.034659743
1570715602,1.5454559,-10.524918,1.6615753,-0.03251648,-0.036621094,-0.005783081,0.029715061,-0.007824898,0.1629324
1570715602,1.5454559,-10.524918,1.6615753,-0.03251648,-0.036621094,-0.005783081,0.029715061,-0.007824898,0.1629324
1570715602,1.553833,-10.466858,1.6849213,-0.006942749,-0.021713257,-0.0025787354,-0.041612983,0.01554966,0.2512852
1570715602,1.553833,-10.463852,1.6771393,0.009033203,-0.007858276,-0.0079193115,0.011439562,0.04690361,0.187307
1570715602,1.5478516,-10.447098,1.5891571,0.013290405,0.012374878,-0.005783081,-0.06178963,0.050649643,0.0509032
1570715602,1.5478516,-10.447098,1.5891571,0.013290405,0.012374878,-0.005783081,-0.06178963,0.050649643,0.0509032
1570715602,1.5580292,-10.499771,1.4347229,0.031402588,-0.034484863,-4.5776367E-4,-0.034957886,0.0063791275,-0.08577716
1570715602,1.5574341,-10.469238,1.4484863,0.029266357,-0.03768921,-0.0025787354,-0.0050444603,-0.01231575,-0.102704406
1570715602,1.5741882,-10.521317,1.5023651,0.022872925,-0.05152893,-0.005783081,-0.0057942867,-0.037112236,-0.040399432
1570715602,1.577774,-10.520126,1.4359283,-0.0048217773,0.033691406,-0.005783081,0.018641353,-0.009205818,-0.032836914
1570715603,1.5909424,-10.557831,1.4772186,-0.01121521,0.031555176,-0.005783081,0.023822904,-7.534027E-4,-0.083939195
1570715603,1.5723877,-10.452484,1.4945831,-5.493164E-4,-0.043014526,-0.0015258789,-0.016316652,0.037591934,0.009399772
1570715603,1.5723877,-10.452484,1.4945831,-5.493164E-4,-0.043014526,-0.0015258789,-0.016316652,0.037591934,0.009399772
1570715603,1.5664062,-10.527908,1.6268616,-5.493164E-4,0.01876831,-0.0025787354,0.016301155,-4.0721893E-4,0.11951399
1570715603,1.5664062,-10.527908,1.6268616,-5.493164E-4,0.01876831,-0.0025787354,0.016301155,-4.0721893E-4,0.11951399
1570715603,1.6023254,-10.508743,1.4855957,0.004776001,0.009185791,0.002746582,0.003383875,-0.0358572,-0.005453944
1570715603,1.6023254,-10.508743,1.4855957,0.004776001,0.009185791,0.002746582,0.003383875,-0.0358572,-0.005453944
1570715603,1.5939331,-10.496185,1.4664459,-0.015472412,0.008117676,0.005935669,7.3063374E-4,-0.015165329,-0.032791853
1570715603,1.5939331,-10.496185,1.4664459,-0.015472412,0.008117676,0.005935669,7.3063374E-4,-0.015165329,-0.032791853
1570715603,1.6214752,-10.457275,1.5059509,-0.018661499,-0.02810669,0.0037994385,0.06980407,0.043377876,0.05418384
1570715603,1.6214752,-10.457275,1.5059509,-0.018661499,-0.02810669,0.0037994385,0.06980407,0.043377876,0.05418384
1570715603,1.5628204,-10.441711,1.704071,0.0037078857,0.004928589,-0.005783081,0.022512317,0.092087746,0.1736834
1570715603,1.5628204,-10.441711,1.704071,0.0037078857,0.004928589,-0.005783081,0.022512317,0.092087746,0.1736834
1570715603,1.5131378,-10.619476,1.6124878,0.02394104,0.13807678,-0.017501831,-0.09143555,-0.0867548,0.04808426
1570715603,1.446701,-10.619476,1.6124878,0.025009155,0.13807678,-0.017501831,-0.09143555,-0.0867548,0.04808426
1570715603,1.6376343,-10.548248,1.2785034,0.036727905,0.101867676,0.01979065,0.035046935,-0.09666538,-0.29156637
1570715603,1.6376343,-10.548248,1.2785034,0.036727905,0.101867676,0.01979065,0.035046935,-0.09666538,-0.29156637
1570715603,1.8273773,-10.39502,1.280304,0.042053223,-0.17936707,0.03895569,0.2532909,0.11924744,-0.2941574
1570715603,1.8273773,-10.39502,1.280304,0.042053223,-0.17936707,0.03895569,0.2532909,0.11924744,-0.2941574
1570715603,1.7130585,-10.463852,1.5861511,-0.064468384,-0.009994507,-0.014297485,0.15345776,-0.013618469,0.06223166
1570715603,1.7268219,-10.463852,1.5861511,-0.064468384,-0.009994507,-0.014297485,0.15345776,-0.013618469,0.06223166
1570715603,1.632843,-10.499176,1.6107025,-0.078323364,0.06138611,-0.024963379,0.10150206,0.027910233,0.091878295
1570715603,1.5765839,-10.447098,1.6107025,-0.068740845,0.097595215,-0.024963379,-0.007812381,0.021598816,0.097754955
1570715603,1.3892365,-10.519531,1.6436157,-0.017608643,0.03262329,-0.0079193115,-0.18423271,-0.06401062,0.06456375
1570715603,1.388031,-10.53569,1.5328827,0.0068969727,0.01876831,0.013397217,-0.19397736,-0.015478134,0.093458414
1570715603,1.6035156,-10.502167,1.4658508,0.03779602,-0.062194824,0.032562256,0.087442994,0.022662163,-0.05947566
1570715603,1.6496124,-10.532089,1.4550781,0.040985107,-0.06538391,0.030441284,0.087442994,0.022662163,-0.05947566
1570715603,1.6945038,-10.41658,1.5927429,0.018615723,-0.022781372,0.018722534,0.11862445,0.06534386,0.030147433
1570715603,1.6526031,-10.435135,1.462265,0.022872925,0.05606079,-0.0068511963,0.11205101,0.07389259,-0.07483232
1570715603,1.6526031,-10.435135,1.462265,0.022872925,0.05606079,-0.0068511963,0.11205101,0.07389259,-0.07483232
1570715603,1.5532379,-10.530899,1.5149384,-0.010147095,0.04220581,-0.015365601,-0.024977684,-0.07851696,-0.018658638
1570715603,1.5532379,-10.530899,1.5149384,-0.010147095,0.04220581,-0.015365601,-0.024977684,-0.07851696,-0.018658638
1570715603,1.4975739,-10.499771,1.3820496,-0.0090789795,-0.021713257,0.0037994385,-0.019591928,-0.0035982132,-0.14986241
1570715603,1.4975739,-10.499771,1.3820496,-0.0090789795,-0.021713257,0.0037994385,-0.019591928,-0.0035982132,-0.14986241
1570715604,1.506546,-10.55603,1.5478516,-0.0016174316,-0.08456421,0.009140015,-0.045407772,-0.038253784,-0.05254042
1570715604,1.5646057,-10.475235,1.5430603,0.0026397705,-0.05366516,0.014465332,0.0014262199,0.03155136,0.085843325
1570715604,1.5646057,-10.475235,1.5430603,0.0026397705,-0.05366516,0.014465332,0.0014262199,0.03155136,0.085843325
1570715604,1.6178894,-10.485413,1.5466614,0.022872925,-0.007858276,-0.0079193115,0.048790574,0.041318893,0.042080164
1570715604,1.6178894,-10.485413,1.5466614,0.022872925,-0.007858276,-0.0079193115,0.048790574,0.041318893,0.042080164
1570715604,1.4999695,-10.555435,1.5059509,0.010101318,0.07203674,-0.011108398,-0.092123985,-0.07260895,-0.033715248
1570715604,1.4999695,-10.555435,1.5059509,0.010101318,0.07203674,-0.011108398,-0.092123985,-0.07260895,-0.033715248
1570715604,1.4993744,-10.49498,1.4419098,0.0058288574,-0.006790161,0.013397217,-0.057070017,-0.038232803,-0.13691175
1570715604,1.4993744,-10.49498,1.4419098,0.0058288574,-0.006790161,0.013397217,-0.057070017,-0.038232803,-0.13691175
1570715604,1.5783844,-10.433334,1.5454559,0.0143585205,-0.10479736,0.018722534,-0.03614652,0.068564415,0.03066814
1570715604,1.5783844,-10.433334,1.5454559,0.0143585205,-0.10479736,0.018722534,-0.03614652,0.068564415,0.03066814
1570715604,1.430542,-10.455475,1.6974945,-0.0016174316,0.076293945,-0.004714966,-0.11870229,0.040478706,0.10988641
1570715604,1.3796539,-10.469238,1.7142487,-0.0016174316,0.08694458,-0.004714966,-0.1205802,0.033883095,0.13040018
1570715604,1.3341675,-10.528503,1.664566,-5.493164E-4,0.15512085,-4.5776367E-4,-0.19055462,-0.0146045685,0.12491059
1570715604,1.2976532,-10.604523,1.5418701,0.011154175,0.14553833,0.013397217,-0.18924773,-0.118000984,-0.039162755
1570715604,1.3928223,-10.527298,1.4401093,0.013290405,0.05178833,0.028305054,-0.14414859,-0.0013885498,-0.1525774
1570715604,1.5185242,-10.465652,1.5107422,0.015426636,-0.04408264,0.042160034,-0.022101164,0.055051804,-0.08182979
1570715604,1.5059509,-10.512344,1.6537933,-0.019729614,0.012374878,0.018722534,0.079656124,-0.017856598,0.08015847
1570715604,1.5227051,-10.461472,1.6938934,-0.02293396,0.024093628,0.017654419,0.03940046,0.0033502579,0.10302663
1570715604,1.5502472,-10.448303,1.7148438,-0.02293396,0.08482361,0.007003784,0.08649886,0.04755974,0.1417228
1570715604,1.4838104,-10.464462,1.7052765,-0.018661499,0.10612488,0.002746582,0.01768732,0.034680367,0.13065863
1570715604,1.3587036,-10.5290985,1.7226257,-0.008010864,0.08268738,-0.0068511963,-0.039000273,-0.025075912,0.14630485
1570715604,1.3617096,-10.492584,1.6041107,0.0037078857,0.08268738,0.005935669,-0.09974563,-0.015505791,0.047138453
1570715604,1.359909,-10.53569,1.546051,-0.0026855469,0.054992676,0.011260986,-0.07533121,-0.04061508,-0.028782725
1570715604,1.406601,-10.582367,1.5711975,-0.0048217773,0.04220581,0.013397217,-0.050370336,-0.060879707,-0.047513723
1570715604,1.395813,-10.512939,1.6196747,-0.029312134,0.04006958,0.012329102,-0.0043118,0.042681694,2.8955936E-4
1570715604,1.3730774,-10.47464,1.6071014,-0.028259277,0.046463013,0.014465332,-0.013443112,0.01432991,0.0015450716
1570715604,1.391037,-10.496185,1.6849213,-0.03677368,0.052856445,0.013397217,-0.012882829,-0.013810158,0.04676628
1570715604,1.5239105,-10.478821,1.6496124,-0.02293396,6.5612793E-4,0.011260986,0.106378555,0.03476715,0.043162942
1570715604,1.5239105,-10.478821,1.6496124,-0.02293396,6.5612793E-4,0.011260986,0.106378555,0.03476715,0.043162942
1570715604,1.5861511,-10.471634,1.6938934,-0.0048217773,-0.05366516,0.0048675537,0.16989505,0.050283432,0.11573923
1570715604,1.5436554,-10.488998,1.6747437,-0.0016174316,-0.036621094,-0.005783081,0.13526917,0.079815865,0.1214298
1570715604,1.4323273,-10.51474,1.6136932,-0.014404297,0.034744263,-0.010040283,0.032933474,0.021330833,0.103085876
1570715605,1.4359283,-10.584763,1.5287018,-0.02079773,0.08055115,-0.0068511963,0.0016213655,-0.06556606,-0.032598376
1570715605,1.3904266,-10.562622,1.4281464,-0.025054932,-0.015319824,6.1035156E-4,0.024494529,-0.033006668,-0.091240406
1570715605,1.4000092,-10.53508,1.474823,-0.031448364,-0.06538391,0.009140015,0.021175861,-0.016046524,-0.11517346
1570715605,1.4628601,-10.469849,1.5640106,-0.038909912,-0.07817078,-0.0025787354,0.055938005,0.06648636,3.6478043E-5
1570715605,1.4502869,-10.468048,1.5675964,-0.045303345,-0.04727173,-0.010040283,0.019399643,0.036063194,0.08385885
1570715605,1.5083466,-10.4578705,1.6047211,-0.042099,-0.043014526,-0.012176514,0.019399643,0.036063194,0.08385885
1570715605,1.4167633,-10.553635,1.6232758,-0.03677368,0.004928589,-0.017501831,0.0010335445,-0.019657135,0.095693946
1570715605,1.3706818,-10.555435,1.5903473,-0.030380249,0.028366089,-0.017501831,-0.052568555,-0.021289825,0.078035116
1570715605,1.3096313,-10.493195,1.4963837,-0.023986816,0.060317993,-0.010040283,-0.121717334,0.008205414,0.013910294
1570715605,1.6256561,-10.421356,1.419754,0.044189453,-0.036621094,-0.014297485,0.15423822,0.097706795,-0.037476182
1570715605,1.3934326,-10.542862,1.3808594,0.031402588,-0.05152893,-0.07928467,-0.014346957,-0.023889542,-0.16622484
1570715605,1.3934326,-10.542862,1.3808594,0.031402588,-0.05152893,-0.07928467,-0.014346957,-0.023889542,-0.16622484
1570715605,1.3844452,-10.564423,1.411377,-0.02293396,0.27656555,-0.013244629,-0.12087631,-0.08255291,-0.04060459
1570715605,1.4077911,-10.57579,1.4059906,-0.018661499,0.27124023,-0.010040283,-0.12087631,-0.08255291,-0.04060459
1570715605,1.7357941,-10.516525,1.1049194,-0.012268066,-0.24754333,-0.008972168,0.27609956,0.07110119,-0.40620375
1570715605,1.7357941,-10.516525,1.1049194,-0.012268066,-0.24754333,-0.008972168,0.27609956,0.07110119,-0.40620375
1570715605,1.5101471,-10.457275,1.5741882,-0.07086182,-0.052597046,-0.0079193115,-0.016637087,0.069304466,0.19538069
1570715605,1.5269012,-10.440521,1.5304871,-0.07192993,-0.04194641,-0.0079193115,-0.016637087,0.069304466,0.19538069
1570715605,1.5424652,-10.560822,1.4610596,-0.026123047,-0.12504578,6.1035156E-4,0.01432085,0.013267517,0.067171335
1570715605,1.5059509,-10.557831,1.5209198,-0.021865845,-0.12823486,0.0037994385,0.036329865,-0.04610157,0.13994753
1570715605,1.4772186,-10.479416,1.4490967,0.011154175,-0.09307861,6.1035156E-4,-0.035796165,0.07451534,0.03166783
1570715605,1.4772186,-10.479416,1.4490967,0.011154175,-0.09307861,6.1035156E-4,-0.035796165,0.07451534,0.03166783
1570715605,1.427536,-10.55484,1.3144226,0.028198242,0.05606079,-0.017501831,-0.07598746,-0.037329674,-0.0056533813
1570715605,1.4419098,-10.523712,1.2982483,0.025009155,0.064575195,-0.019622803,-0.07598746,-0.037329674,-0.0056533813
1570715605,1.4796143,-10.433334,1.2545624,-0.012268066,0.0688324,-0.017501831,-0.08162415,0.06389046,-0.1316539
1570715605,1.4718323,-10.447098,1.3227997,-0.012268066,0.064575195,-0.012176514,-0.042978406,0.07638836,-0.12299204
1570715605,1.5759888,-10.586563,1.3724823,0.038864136,-0.052597046,-0.0036468506,0.015019417,-0.05778122,-0.042269588
1570715605,1.5688019,-10.577576,1.3647003,0.03565979,-0.04940796,-0.0015258789,0.015019417,-0.05778122,-0.042269588
1570715605,1.561615,-10.522522,1.3263855,0.029266357,-0.018508911,-0.010040283,0.04509628,-0.04309368,-0.022504687
1570715605,1.5735931,-10.546463,1.2755127,-0.016540527,0.052856445,-0.0036468506,0.053936243,0.027355194,-0.16095614
1570715605,1.5801697,-10.520126,1.2976532,-0.017608643,0.04434204,-0.0036468506,0.053936243,0.027355194,-0.16095614
1570715605,1.6274567,-10.503357,1.272522,0.0015716553,-0.050476074,0.007003784,0.06961644,-0.010818481,-0.10296905
1570715605,1.6059113,-10.438721,1.3024445,-0.010147095,-0.05366516,-0.010040283,0.049630284,0.052973747,-0.05823028
1570715606,1.6059113,-10.438721,1.3024445,-0.010147095,-0.05366516,-0.010040283,0.049630284,0.052973747,-0.05823028
1570715606,1.5562286,-10.507553,1.4048004,-0.038909912,-0.0057373047,-0.013244629,0.014976859,-0.022208214,0.008949757
1570715606,1.5125427,-10.510544,1.3868408,-0.033584595,-0.0036010742,-0.013244629,0.004198909,-0.004515648,0.066606045
1570715606,1.4598694,-10.51593,1.3946228,0.0015716553,-0.006790161,-0.0079193115,-0.100271106,0.008711815,0.07881045
1570715606,1.4598694,-10.51593,1.3946228,0.0015716553,-0.006790161,-0.0079193115,-0.100271106,0.008711815,0.07881045
1570715606,1.6154938,-10.545853,1.4095917,0.028198242,-0.0014648438,0.0016784668,0.039753437,0.0065202713,0.057771683
1570715606,1.5915527,-10.546463,1.4437103,0.027145386,-0.0014648438,0.0037994385,0.039753437,0.0065202713,0.057771683
1570715606,1.6041107,-10.49498,1.4095917,0.017547607,0.05178833,-0.008972168,0.0058038235,0.05558777,0.039912105
1570715606,1.6041107,-10.49498,1.4095917,0.017547607,0.05178833,-0.008972168,0.0058038235,0.05558777,0.039912105
1570715606,1.5688019,-10.566208,1.3233948,0.0037078857,0.09333801,-0.012176514,-0.017777443,-0.06818771,-0.06671536
1570715606,1.5688019,-10.566208,1.3233948,0.0037078857,0.09333801,-0.012176514,-0.017777443,-0.06818771,-0.06671536
1570715606,1.490982,-10.542862,1.2683258,0.0058288574,0.035812378,0.018722534,-0.06426287,0.0032129288,-0.079235196
1570715606,1.490982,-10.542862,1.2683258,0.0058288574,0.035812378,0.018722534,-0.06426287,0.0032129288,-0.079235196
1570715606,1.7190399,-10.47464,1.3389587,0.022872925,-0.095214844,0.024047852,0.09868741,0.036379814,-0.081332445
1570715606,1.7190399,-10.47464,1.3389587,0.022872925,-0.095214844,0.024047852,0.1228987,0.032852173,-0.056187153
1570715606,1.5999298,-10.470444,1.42276,-0.045303345,-0.054733276,-0.005783081,0.09585059,0.058794975,0.0032248497
1570715606,1.616684,-10.468643,1.4233551,-0.049560547,-0.050476074,-0.005783081,0.040066004,0.0244627,0.027174473
1570715606,1.4963837,-10.517731,1.4431,-0.008010864,0.010253906,-0.005783081,-0.027010918,-0.008597374,0.09909952
1570715606,1.4963837,-10.517731,1.4431,-0.008010864,0.010253906,-0.005783081,-0.027010918,-0.008597374,0.09909952
1570715606,1.5999298,-10.538681,1.4730377,0.034591675,-0.019577026,0.016586304,-0.023348212,-0.02180767,0.11795139
1570715606,1.5999298,-10.538681,1.4730377,0.034591675,-0.019577026,0.016586304,-0.023348212,-0.02180767,0.11795139
1570715606,1.6322479,-10.49379,1.3874359,0.03565979,-0.024902344,0.018722534,0.06102419,0.012557983,0.021887422
1570715606,1.6322479,-10.49379,1.3874359,0.03565979,-0.024902344,0.018722534,0.06102419,0.012557983,0.021887422
1570715606,1.5717926,-10.369293,1.4167633,0.02607727,-0.034484863,-0.0025787354,0.023504496,0.10429764,-0.022542953
1570715606,1.5717926,-10.369293,1.4167633,0.02607727,-0.034484863,-0.0025787354,0.023504496,0.10429764,-0.022542953
1570715606,1.5167236,-10.554245,1.4437103,0.028198242,0.04220581,-0.0025787354,-0.12622535,-0.096502304,0.018773556
1570715606,1.4401093,-10.588959,1.4951782,0.029266357,0.04434204,-0.0025787354,-0.12622535,-0.096502304,0.018773556
1570715606,1.4059906,-10.5763855,1.3700867,0.040985107,0.01876831,0.012329102,-0.11595702,-0.08901787,-0.053618908
1570715606,1.4059906,-10.5763855,1.3700867,0.040985107,0.01876831,0.012329102,-0.11595702,-0.08901787,-0.053618908
1570715606,1.506546,-10.502762,1.3838501,0.03779602,0.03048706,0.01979065,-0.04907775,-0.032238007,-0.12408233
1570715606,1.506546,-10.502762,1.3838501,0.03779602,0.03048706,0.01979065,-0.04907775,-0.032238007,-0.12408233
1570715606,1.572998,-10.532684,1.312027,-0.028259277,-0.002532959,0.008071899,0.042574167,-0.033185005,-0.16118753
1570715606,1.5490417,-10.557831,1.3527222,-0.030380249,-0.007858276,0.009140015,0.042574167,-0.033185005,-0.16118753
1570715607,1.435318,-10.560226,1.4640503,-0.039978027,-0.04194641,-4.5776367E-4,-0.026834488,-0.04237461,0.0063023567
1570715607,1.435318,-10.560226,1.4640503,-0.039978027,-0.04194641,-4.5776367E-4,-0.026834488,-0.04237461,0.0063023567
1570715607,1.4712372,-10.586563,1.5418701,-0.038909912,6.5612793E-4,0.012329102,-0.016568065,-0.03285408,0.14957356
1570715607,1.4712372,-10.586563,1.5418701,-0.038909912,6.5612793E-4,0.012329102,-0.016568065,-0.03285408,0.14957356
1570715607,1.5975342,-10.439911,1.5310974,-0.0016174316,-0.0121154785,0.014465332,0.079772234,0.098641396,0.119514346
1570715607,1.6472168,-10.486008,1.616684,0.009033203,-0.015319824,-0.0068511963,0.1264677,0.025409698,0.15474296
1570715607,1.533493,-10.467453,1.6214752,0.0015716553,0.05178833,-0.015365601,0.05027187,0.052783012,0.17303288
1570715607,1.4574738,-10.480026,1.5969391,-5.493164E-4,0.113586426,-0.016433716,-0.023028493,0.007851601,0.18937826
1570715607,1.3461456,-10.576981,1.5658112,0.004776001,0.16897583,-0.013244629,-0.1176244,-0.06255531,0.09842336
1570715607,1.4131775,-10.604523,1.3455353,0.039916992,0.08694458,0.012329102,-0.07901847,-0.11876774,-0.105831504
1570715607,1.4293365,-10.633255,1.332367,0.042053223,0.062454224,0.0155181885,-0.078060865,-0.09392738,-0.10781789
1570715607,1.5119324,-10.441116,1.3730774,0.010101318,-0.052597046,0.01979065,0.041417837,0.03929329,-0.10409999
1570715607,1.5119324,-10.441116,1.3730774,0.010101318,-0.052597046,0.01979065,0.041417837,0.03929329,-0.10409999
1570715607,1.52211,-10.484802,1.4024048,-0.04423523,0.008117676,-0.0025787354,0.06305683,0.036800385,-0.05844581
1570715607,1.52211,-10.484802,1.4024048,-0.04423523,0.008117676,-0.0025787354,0.06305683,0.036800385,-0.05844581
1570715607,1.4215546,-10.541077,1.5346832,-0.0697937,0.021972656,-0.014297485,-0.085291624,-0.027077675,0.10305011
1570715607,1.3748779,-10.570999,1.5909424,-0.066604614,0.043273926,-0.012176514,-0.109835744,-0.045550346,0.1561898
1570715607,1.3874359,-10.506363,1.572998,-0.023986816,0.03794861,0.008071899,-0.09889078,-0.039886475,0.14834917
1570715607,1.4640503,-10.5290985,1.4676514,0.0015716553,-0.0121154785,0.0155181885,0.0040097237,0.035277367,0.08903599
1570715607,1.4562683,-10.512344,1.5119324,0.0058288574,-0.009994507,0.014465332,0.015104294,-0.019812584,0.13355124
1570715607,1.4682465,-10.551849,1.5400696,0.0058288574,0.016647339,0.011260986,0.009599566,0.025603294,0.089244485
1570715607,1.5185242,-10.43692,1.359314,-0.0016174316,0.058181763,0.012329102,0.064792395,0.023144722,-0.06736839
1570715607,1.5185242,-10.43692,1.359314,-0.0016174316,0.058181763,0.012329102,0.064792395,0.023144722,-0.06736839
1570715607,1.5203247,-10.47702,1.3700867,5.0354004E-4,0.012374878,0.0037994385,0.10609317,0.06529045,-0.044552565
1570715607,1.5436554,-10.516525,1.4053955,5.0354004E-4,0.016647339,-0.0079193115,0.052352905,0.036673546,-0.074468136
1570715607,1.427536,-10.546463,1.4191589,-0.03251648,0.048599243,-0.017501831,0.04849398,0.009455681,-0.038375854
1570715607,1.4718323,-10.482407,1.388031,-0.03251648,0.07522583,-0.010040283,0.0031018257,0.003165245,-0.0023388863
1570715607,1.5077515,-10.502167,1.3467407,-0.025054932,0.050735474,-0.005783081,0.011396766,0.0664711,-0.0263412
1570715607,1.6986847,-10.43692,1.4203644,0.016494751,-0.14421082,-0.005783081,0.19301736,0.07433987,-0.020994306
1570715607,1.6376343,-10.491394,1.4766235,0.015426636,-0.13676453,-0.011108398,0.16162908,0.053055763,0.04195416
1570715607,1.5598297,-10.576981,1.5149384,-0.015472412,-0.01638794,-0.022827148,0.08770311,-0.03215599,0.14913428
1570715607,1.5921478,-10.493195,1.3551178,-0.035705566,0.18069458,-0.026016235,0.0582124,-0.031778336,0.052548766
1570715607,1.6298523,-10.420761,1.2342072,-0.0048217773,0.06138611,-0.037734985,0.12316704,0.06564617,-0.11044979
1570715607,1.2892761,-10.715851,1.371872,-0.023986816,-3.9672852E-4,-0.013244629,-0.22032201,-0.18463516,-0.040032268
1570715608,1.367691,-10.517136,1.3904266,0.009033203,0.08161926,0.025115967,-0.21463883,-0.025641441,0.026839733
1570715608,1.3569183,-10.512939,1.3682861,0.013290405,0.076293945,0.026184082,-0.15278947,-0.0063066483,0.011196613
1570715608,1.6753387,-10.512939,1.1983032,0.03353882,-0.25074768,0.007003784,0.21590865,0.021401405,-0.23373699
1570715608,1.6753387,-10.512939,1.1983032,0.03353882,-0.25074768,0.007003784,0.21590865,0.021401405,-0.23373699
1570715608,1.5580292,-10.435135,1.4682465,-0.07086182,-0.019577026,-0.037734985,-0.023868918,0.0768137,0.07441056
1570715608,1.5580292,-10.435135,1.4682465,-0.07086182,-0.019577026,-0.037734985,-0.023868918,0.0768137,0.07441056
1570715608,1.5442657,-10.51474,1.3868408,-0.06021118,0.043273926,-0.05052185,4.4429302E-4,0.036213875,0.07385826
1570715608,1.398819,-10.618881,1.4239502,-0.017608643,0.03794861,-0.0345459,-0.14267981,-0.12323856,0.09120917
1570715608,1.3431396,-10.6548,1.367691,-0.008010864,0.07736206,-0.016433716,-0.22666633,-0.16919231,0.07630837
1570715608,1.383255,-10.578186,1.2796936,-5.493164E-4,0.10826111,0.0037994385,-0.20103061,-0.07508564,0.018496037
1570715608,1.5885468,-10.469238,1.1534119,0.011154175,-0.095214844,0.005935669,0.008912206,0.11752319,-0.21489727
1570715608,1.5885468,-10.469238,1.1534119,0.011154175,-0.095214844,0.005935669,0.008912206,0.11752319,-0.21489727
1570715608,1.5957336,-10.476425,1.3078308,-0.008010864,-0.10160828,-4.5776367E-4,0.04550886,0.04871273,-0.0590446
1570715608,1.4957733,-10.428543,1.3150177,-0.023986816,0.0038604736,-0.021759033,-2.065897E-4,0.10016441,-0.017325282
1570715608,1.4957733,-10.428543,1.3150177,-0.023986816,0.0038604736,-0.021759033,-2.065897E-4,0.10016441,-0.017325282
1570715608,1.5167236,-10.581177,1.3694763,-0.0026855469,0.039016724,-0.026016235,-0.01065588,-0.066147804,0.0706352
1570715608,1.5029602,-10.598526,1.3509216,0.007965088,0.054992676,-0.022827148,-0.037284017,-0.07440567,0.06757355
1570715608,1.4059906,-10.510544,1.2767029,0.010101318,0.10079956,-0.011108398,-0.1608131,0.011052132,-0.090647936
1570715608,1.4059906,-10.510544,1.2767029,0.010101318,0.10079956,-0.011108398,-0.1608131,0.011052132,-0.090647936
1570715608,1.4077911,-10.562027,1.1923065,0.016494751,0.09866333,-0.008972168,-0.1297934,-0.04497242,-0.0595603
1570715608,1.4760284,-10.518326,1.1264648,0.028198242,0.046463013,0.009140015,-0.09705603,-0.015258789,-0.18934667
1570715608,1.5735931,-10.481812,1.1551971,0.02394104,-0.06752014,0.013397217,0.012609124,0.015880585,-0.14654481
1570715608,1.5053558,-10.559631,1.2982483,-0.0090789795,-0.03982544,-0.005783081,-0.0075956583,-0.026716232,-0.09442592
1570715608,1.5053558,-10.559631,1.2982483,-0.0090789795,-0.03982544,-0.005783081,-0.0075956583,-0.026716232,-0.09442592
1570715608,1.4377136,-10.606308,1.3024445,-0.0463562,0.036880493,-0.0068511963,-0.06893551,-0.032906532,-0.002635479
1570715608,1.4772186,-10.544662,1.2958679,-0.0463562,0.050735474,0.0016784668,-0.046945095,-0.017079353,0.0090869665
1570715608,1.5418701,-10.563812,1.2952576,-0.016540527,-0.02810669,0.018722534,-0.018505216,-0.019041061,0.018776655
1570715608,1.5598297,-10.53508,1.395813,0.02607727,-0.15913391,0.029373169,0.033281446,0.0047473907,0.0550704
1570715608,1.5155334,-10.510544,1.391037,0.010101318,-0.09414673,0.01979065,-3.862381E-5,-0.013897896,0.068507195
1570715608,1.5304871,-10.527908,1.407196,-0.0048217773,-0.056869507,0.0155181885,-0.01865375,0.0011119843,0.1332438
1570715608,1.616684,-10.533295,1.3647003,-0.0058898926,0.01876831,0.017654419,0.026281714,-0.046265602,0.08973789
1570715608,1.533493,-10.512344,1.2868805,0.021820068,-0.017440796,0.014465332,0.045285106,-0.021057129,0.0059375763
1570715608,1.4742279,-10.481216,1.2425842,0.030334473,-0.07710266,0.011260986,-0.05591333,0.03623295,-0.026400805
1570715608,1.4101868,-10.521912,1.3449402,0.01222229,-0.062194824,0.010192871,-0.116559386,0.03285408,0.022695065
1570715609,1.4323273,-10.559021,1.2653351,0.048446655,-3.9672852E-4,0.022979736,-0.036289334,-0.070596695,0.016225219
1570715609,1.514328,-10.480026,1.1683655,0.044189453,-0.060058594,0.024047852,0.044926167,0.05115509,-0.14692354
1570715609,1.4772186,-10.414185,1.2342072,0.019683838,-0.10160828,0.018722534,0.0351907,0.06068325,-0.12689638
1570715609,1.4802094,-10.447693,1.2617493,0.013290405,-0.09628296,0.014465332,0.019340634,0.07306194,-0.07959771
1570715609,1.5388794,-10.47702,1.304245,-0.010147095,-0.062194824,0.0037994385,0.024296641,0.022137642,-0.049084783
1570715609,1.5053558,-10.484207,1.3503265,-0.019729614,-0.06645203,-0.0025787354,0.005129814,0.03187561,-0.014470458
1570715609,1.5059509,-10.508743,1.3664856,-0.02293396,-0.095214844,6.1035156E-4,-0.00912559,-8.096695E-4,0.06549215
1570715609,1.5041504,-10.600922,1.4095917,-0.025054932,-0.10160828,0.0048675537,0.02854395,-0.041502953,0.102108836
1570715609,1.6178894,-10.458466,1.4886017,0.01222229,-0.12609863,0.01979065,0.04974377,0.009850502,0.16116536
1570715609,1.5550385,-10.427948,1.490982,0.020751953,-0.11758423,0.018722534,0.07689774,0.051748276,0.17790127
1570715609,1.6466064,-10.482407,1.514328,0.025009155,-0.06324768,0.010192871,0.06476593,0.036409378,0.16845071
1570715609,1.6268616,-10.519531,1.4927826,0.030334473,-0.009994507,0.005935669,0.14155614,0.03897667,0.17186058
1570715609,1.6017151,-10.447098,1.4167633,0.048446655,0.017700195,-0.0079193115,0.13970685,0.04310608,0.06299806
1570715609,1.5251007,-10.5728,1.3898315,0.044189453,0.0922699,-0.014297485,-0.0298661,-0.020438194,0.019467473
1570715609,1.5251007,-10.5728,1.3898315,0.044189453,0.0922699,-0.014297485,-0.0298661,-0.020438194,0.019467473
1570715609,1.529892,-10.618881,1.2946625,0.051635742,0.099731445,-0.0079193115,-0.015743732,-0.09926319,-0.08863497
1570715609,1.5723877,-10.609909,1.2030792,0.051635742,0.034744263,0.002746582,0.023291707,-0.09150505,-0.1661098
1570715609,1.5281067,-10.560822,1.1683655,0.034591675,0.010253906,0.005935669,-0.0063397884,-0.0795145,-0.21678543
1570715609,1.6142883,-10.480026,1.2838898,-0.008010864,-0.03982544,0.002746582,0.02174306,0.044524193,-0.123042226
1570715609,1.6142883,-10.480026,1.2838898,-0.008010864,-0.03982544,0.002746582,0.02174306,0.044524193,-0.123042226
1570715609,1.4437103,-10.565018,1.3904266,-0.042099,-0.07923889,-0.0068511963,-0.0970397,-0.04851246,0.007457733
1570715609,1.4437103,-10.565018,1.3904266,-0.042099,-0.07923889,-0.0068511963,-0.0970397,-0.04851246,0.007457733
1570715609,1.4658508,-10.51413,1.4263458,-0.041030884,-0.034484863,0.002746582,-0.07784474,-0.02351284,0.05937445
1570715609,1.5574341,-10.490189,1.4317322,-0.0090789795,-0.07070923,0.009140015,0.01878357,-0.002603531,0.08590615
1570715609,1.5574341,-10.490189,1.4317322,-0.0090789795,-0.07070923,0.009140015,0.01878357,-0.002603531,0.08590615
1570715609,1.5903473,-10.53569,1.4784241,0.0015716553,-0.05152893,0.002746582,0.06980991,0.015167236,0.15409064
1570715609,1.593338,-10.439911,1.5274963,0.0143585205,0.013442993,-0.012176514,0.06299901,0.10126114,0.1632806
1570715609,1.4772186,-10.508148,1.4850006,-5.493164E-4,0.10292053,-0.021759033,-0.051412344,0.03937435,0.17641354
1570715609,1.4682465,-10.570999,1.5358734,0.0058288574,0.15405273,-0.021759033,-0.0691309,-0.049571037,0.13633585
1570715609,1.4850006,-10.591354,1.4317322,0.025009155,0.18069458,-0.010040283,-0.026963234,-0.074038506,0.054923534
1570715609,1.5047607,-10.557236,1.4514923,0.043121338,0.12956238,0.011260986,-0.020915031,-0.017668724,-0.05040002
1570715609,1.5047607,-10.557236,1.4514923,0.043121338,0.12956238,0.011260986,-0.020915031,-0.017668724,-0.05040002
1570715610,1.5867615,-10.480621,1.2270355,0.022872925,0.101867676,0.0155181885,0.1156044,0.015414238,-0.2097354
1570715610,1.5867615,-10.480621,1.2270355,0.022872925,0.101867676,0.0155181885,0.1156044,0.015414238,-0.2097354
1570715610,1.5526428,-10.403412,1.2605438,-0.012268066,0.074157715,0.007003784,0.049326062,0.069683075,-0.17098188
1570715610,1.4927826,-10.568008,1.3647003,-0.042099,0.039016724,-0.010040283,-0.011070251,-0.057418823,-0.057187796
1570715610,1.4927826,-10.568008,1.3647003,-0.042099,0.039016724,-0.010040283,-0.011070251,-0.057418823,-0.057187796
1570715610,1.5316925,-10.469238,1.4257507,-0.03465271,0.026229858,-4.5776367E-4,-0.014296055,0.06270981,0.051202416
1570715610,1.52211,-10.454285,1.4514923,-0.035705566,0.024093628,6.1035156E-4,-0.014296055,0.06270981,0.051202416
1570715610,1.538269,-10.539276,1.5005646,-0.035705566,0.009185791,-0.0015258789,0.03677714,-0.035704613,0.12817156
1570715610,1.538269,-10.539276,1.5005646,-0.035705566,0.009185791,-0.0015258789,0.03677714,-0.035704613,0.12817156
1570715610,1.4712372,-10.5368805,1.5418701,-0.037841797,0.1157074,-0.0025787354,-0.0475142,0.0066900253,0.12743008
1570715610,1.4814148,-10.528503,1.5418701,-0.03465271,0.11677551,-0.0025787354,-0.0475142,0.0066900253,0.12743008
1570715610,1.5478516,-10.549454,1.4203644,0.025009155,0.074157715,0.011260986,0.009768724,0.007466316,0.061051488
1570715610,1.546051,-10.550644,1.4191589,0.027145386,0.07522583,0.012329102,0.009768724,0.007466316,0.061051488
1570715610,1.5400696,-10.457275,1.406601,0.019683838,0.025161743,0.0016784668,0.07487345,0.073046684,-0.017371416
1570715610,1.52211,-10.506363,1.4137726,-0.028259277,0.13595581,-0.012176514,0.073250055,0.03012085,0.0047290325
1570715610,1.52211,-10.506363,1.4137726,-0.028259277,0.13595581,-0.012176514,0.073250055,0.03012085,0.0047290325
1570715610,1.6142883,-10.51474,1.3874359,-0.027191162,0.08694458,-0.016433716,0.13966036,0.0052690506,-0.009843111
1570715610,1.430542,-10.530899,1.5197144,-0.0058898926,0.052856445,-0.024963379,-0.09450126,-0.007458687,0.12922311
1570715610,1.430542,-10.530899,1.5197144,-0.0058898926,0.052856445,-0.024963379,-0.06986451,-0.017650604,0.13371778
1570715610,1.3892365,-10.599136,1.5191193,-0.018661499,0.17323303,-0.023895264,-0.14243829,-0.09623432,0.10746801
1570715610,1.4089813,-10.590744,1.2276306,0.020751953,0.21157837,0.009140015,-0.06581414,-0.085656166,-0.097554564
1570715610,1.4389191,-10.5841675,1.2048798,0.022872925,0.20092773,0.010192871,-0.06581414,-0.085656166,-0.097554564
1570715610,1.5406647,-10.433334,1.2288208,0.01222229,-0.050476074,0.025115967,0.1387155,0.057875633,-0.17693603
1570715610,1.5406647,-10.433334,1.2288208,0.01222229,-0.050476074,0.025115967,0.1387155,0.057875633,-0.17693603
1570715610,1.5574341,-10.447098,1.2767029,-0.021865845,-0.050476074,0.005935669,0.1015203,0.10127735,-0.12262952
1570715610,1.5562286,-10.491394,1.3341675,-0.049560547,-0.0057373047,-0.010040283,0.072743416,0.05626297,-0.037268996
1570715610,1.3970184,-10.674545,1.4245453,-0.042099,0.06350708,-0.014297485,-0.045960426,-0.097745895,0.044746518
1570715610,1.2970581,-10.567413,1.3126221,-0.021865845,0.076293945,0.011260986,-0.13320708,-0.030970573,0.02659905
1570715610,1.2970581,-10.567413,1.3126221,-0.021865845,0.076293945,0.011260986,-0.13320708,-0.030970573,0.02659905
1570715610,1.3293762,-10.558426,1.34375,5.0354004E-4,0.05606079,0.029373169,-0.11116922,-0.030810356,-0.067923665
1570715610,1.4449005,-10.57579,1.2276306,0.02607727,0.027297974,0.03363037,-0.026952744,-0.07215977,-0.026906729
1570715610,1.529892,-10.47403,1.1761475,0.02607727,-0.02810669,0.034698486,0.10665774,0.03051281,-0.21628809
1570715610,1.5670013,-10.39563,1.3311768,-0.042099,-0.10586548,6.1035156E-4,0.13445997,0.11979866,-0.041972756
1570715610,1.5239105,-10.436325,1.3371582,-0.043167114,-0.10586548,-0.004714966,0.12452018,0.12559128,-0.0321033
1570715611,1.5364838,-10.448898,1.3251953,-0.026123047,-0.08882141,-0.013244629,0.11878288,0.07931709,0.0548867
1570715611,1.3455353,-10.619476,1.4921875,-0.038909912,-0.008926392,-0.028152466,-0.10374749,-0.06401539,0.14521515
1570715611,1.3455353,-10.619476,1.4921875,-0.038909912,-0.008926392,-0.028152466,-0.10374749,-0.06401539,0.14521515
1570715611,1.3712769,-10.59314,1.3575134,5.0354004E-4,-0.007858276,0.005935669,-0.10809624,-0.09436035,0.047789335
1570715611,1.4407043,-10.512344,1.3269806,0.019683838,-0.07923889,0.016586304,-0.029662967,-0.04436779,-0.021654725
1570715611,1.4634552,-10.515335,1.3138123,0.031402588,-0.09628296,0.018722534,-0.011858225,0.038763046,0.02883315
1570715611,1.4969788,-10.485413,1.2934723,-0.003753662,-0.009994507,0.005935669,0.029318094,0.018969536,-0.03355074
1570715611,1.4969788,-10.485413,1.2934723,-0.003753662,-0.009994507,0.005935669,0.029318094,0.018969536,-0.03355074
1570715611,1.4209595,-10.487198,1.2976532,-0.0026855469,-0.036621094,-0.0015258789,0.008641839,-1.4209747E-4,-0.06517553
1570715611,1.4233551,-10.516525,1.2533722,-0.0026855469,-0.085617065,0.0037994385,-0.06269288,-0.026011467,-0.042514563
1570715611,1.4233551,-10.516525,1.2533722,-0.0026855469,-0.085617065,0.0037994385,-0.06269288,-0.026011467,-0.042514563
1570715611,1.5328827,-10.448303,1.2713165,0.021820068,-0.13676453,-4.5776367E-4,0.035163164,0.039732933,0.008556128
1570715611,1.4311371,-10.540466,1.2820892,0.0037078857,-0.08988953,-0.028152466,0.0049438477,0.026741028,0.02791214
1570715611,1.2773132,-10.637436,1.3461456,-0.03677368,0.046463013,-0.02708435,-0.20687461,-0.08999729,0.1001811
1570715611,1.2773132,-10.637436,1.3461456,-0.03677368,0.046463013,-0.02708435,-0.20687461,-0.08999729,0.1001811
1570715611,1.2988586,-10.519531,1.2611389,-0.008010864,0.078430176,-0.0015258789,-0.1652124,0.009757042,0.0157789
1570715611,1.4604645,-10.435135,1.2180481,0.029266357,-0.08456421,0.007003784,-0.006244302,0.029743195,-0.11657798
1570715611,1.5322876,-10.5290985,1.3365631,0.021820068,-0.115448,-0.0036468506,0.012633324,-0.019392014,0.007749319
1570715611,1.5053558,-10.545258,1.319809,0.018615723,-0.10160828,-0.004714966,0.012633324,-0.019392014,0.007749319
1570715611,1.4712372,-10.585358,1.3527222,-0.039978027,0.07203674,-0.013244629,0.0077666044,-0.046941757,0.032804012
1570715611,1.4646454,-10.587753,1.2844849,-0.037841797,0.07096863,-0.010040283,0.0077666044,-0.046941757,0.032804012
1570715611,1.470047,-10.513535,1.2916718,-0.0048217773,-0.04727173,0.007003784,-9.596348E-5,0.025859833,-0.024590611
1570715611,1.470047,-10.513535,1.2916718,-0.0048217773,-0.04727173,0.007003784,-9.596348E-5,0.025859833,-0.024590611
1570715611,1.5364838,-10.512344,1.3790588,0.0058288574,-0.073913574,0.012329102,0.041854978,0.036291122,0.04377663
1570715611,1.5023651,-10.429138,1.3138123,-0.006942749,-0.008926392,-0.0079193115,-0.003055334,0.07104683,0.06666577
1570715611,1.5023651,-10.429138,1.3138123,-0.006942749,-0.008926392,-0.0079193115,-0.003055334,0.07104683,0.06666577
1570715611,1.4945831,-10.503357,1.3395538,0.004776001,0.0038604736,-0.023895264,0.015946984,0.006983757,0.07691598
1570715611,1.3395538,-10.509354,1.3311768,-0.0058898926,0.08268738,-0.019622803,-0.15838301,-0.013743401,0.066114545
1570715611,1.3395538,-10.509354,1.3311768,-0.006942749,0.08268738,-0.019622803,-0.15838301,-0.013743401,0.066114545
1570715611,1.4077911,-10.599136,1.332367,-0.0026855469,0.085876465,-0.008972168,-0.1383655,-0.056469917,0.0030097961
1570715611,1.4718323,-10.522522,1.2773132,0.038864136,-0.0121154785,0.0155181885,-0.011373997,-0.018009186,-0.012574077
1570715611,1.5580292,-10.468643,1.2623444,0.05696106,-0.018508911,0.005935669,0.036973834,0.060479164,-0.049904943
1570715611,1.5580292,-10.468643,1.2623444,0.05696106,-0.018508911,0.005935669,0.036973834,0.060479164,-0.049904943
1570715612,1.5119324,-10.5290985,1.2988586,5.0354004E-4,0.08055115,-0.026016235,0.027403712,-0.03929615,-0.09726906
1570715612,1.4706421,-10.518921,1.3006439,-0.03465271,0.10398865,-0.019622803,-0.053104043,0.005765915,-0.070427656
1570715612,1.4323273,-10.57579,1.2108612,-0.033584595,0.09547424,-0.018569946,-0.053104043,0.005765915,-0.070427656
1570715612,1.4478912,-10.539276,1.2318115,-0.026123047,0.021972656,-0.005783081,-0.040462613,-0.05885315,-0.09114587
1570715612,1.5496521,-10.503357,1.3497314,5.0354004E-4,-0.095214844,0.013397217,0.024703622,0.023228645,-0.011036038
1570715612,1.5921478,-10.5368805,1.3820496,0.011154175,-0.040878296,0.002746582,0.062317252,0.013162613,0.120146394
1570715612,1.5921478,-10.5368805,1.3820496,0.011154175,-0.040878296,0.002746582,0.062317252,0.013162613,0.120146394
1570715612,1.4868011,-10.499176,1.3539276,5.0354004E-4,0.1157074,-0.011108398,-0.011142731,0.030857086,0.018478394
1570715612,1.4868011,-10.499176,1.3539276,5.0354004E-4,0.1157074,-0.011108398,-0.011142731,0.030857086,0.018478394
1570715612,1.490387,-10.57399,1.2689209,0.03565979,0.03794861,-0.0068511963,-0.0018210411,-0.020040512,-0.09494889
1570715612,1.490387,-10.57399,1.2689209,0.03565979,0.03794861,-0.0068511963,-0.0018210411,-0.020040512,-0.09494889
1570715612,1.4754333,-10.579971,1.2419891,-0.0048217773,0.078430176,0.005935669,-0.06372762,-0.012413025,-0.06860411
1570715612,1.4754333,-10.579971,1.2419891,-0.0048217773,0.078430176,0.005935669,-0.06372762,-0.012413025,-0.06860411
1570715612,1.4957733,-10.508148,1.2354126,-0.012268066,0.058181763,0.011260986,0.0060585737,0.004562378,-0.095900655
1570715612,1.5239105,-10.45668,1.2348022,0.0026397705,-0.008926392,0.007003784,0.03607607,0.09403038,-0.1142627
1570715612,1.5418701,-10.511139,1.2790985,-0.03465271,-0.050476074,0.0037994385,0.07564473,-0.01722145,-0.037682652
1570715612,1.529892,-10.53508,1.4000092,-0.05595398,-0.056869507,0.0016784668,0.10151315,0.010556221,0.06487024
1570715612,1.5592194,-10.539276,1.4245453,-0.049560547,-0.05366516,0.0016784668,0.079708576,-0.031375885,0.056215882
1570715612,1.5532379,-10.490189,1.4766235,-0.035705566,-0.04408264,0.008071899,0.051184773,-0.01884365,0.13975906
1570715612,1.6436157,-10.488998,1.486206,0.018615723,-0.018508911,0.005935669,0.14228022,0.057577133,0.20034122
1570715612,1.6436157,-10.488998,1.486206,0.018615723,-0.018508911,0.005935669,0.14228022,0.057577133,0.20034122
1570715612,1.4814148,-10.526703,1.5161285,0.020751953,0.14767456,-0.017501831,-0.003055334,-0.010424614,0.14882207
1570715612,1.4814148,-10.526703,1.5161285,0.020751953,0.14767456,-0.017501831,-0.023799062,-0.02605629,0.15749228
1570715612,1.3994141,-10.557236,1.3605042,0.02607727,0.2414093,-0.021759033,-0.09549141,-0.06409836,0.035112977
1570715612,1.4215546,-10.611694,1.2108612,0.0143585205,0.21264648,-0.008972168,-0.060153842,-0.047808647,-0.198421
1570715612,1.4221497,-10.530899,1.1929169,0.013290405,0.1583252,0.002746582,-0.059996247,-0.0352993,-0.20438361
1570715612,1.4646454,-10.504562,1.1761475,0.0143585205,0.0070495605,0.0155181885,0.017047524,0.009214401,-0.2181722
1570715612,1.569397,-10.493195,1.1731567,-0.025054932,-0.048339844,0.013397217,0.09412694,0.022180557,-0.1402049
1570715612,1.5975342,-10.523117,1.2360077,-0.03251648,-0.05580139,0.013397217,0.078599334,0.0264225,-0.17913008
1570715612,1.6118927,-10.57399,1.3227997,-0.051696777,-0.07923889,0.005935669,0.13076639,-0.02539444,-0.03603196
1570715612,1.5400696,-10.451294,1.4287415,-0.057022095,-0.06964111,-0.0015258789,0.08352876,0.057721138,0.04616463
1570715612,1.4945831,-10.495575,1.4730377,-0.027191162,-0.021713257,-0.0068511963,0.013964295,0.016910553,0.14882529
1570715612,1.4772186,-10.55304,1.4317322,-0.021865845,0.020904541,-0.013244629,-0.03431678,-0.051605225,0.16090786
1570715613,1.367691,-10.567413,1.4233551,-0.0016174316,0.07949829,-0.004714966,-0.10021448,-0.020145416,0.11770439
1570715613,1.367691,-10.567413,1.4233551,-0.0016174316,0.07949829,-0.004714966,-0.10021448,-0.020145416,0.11770439
1570715613,1.5209198,-10.479416,1.2946625,0.027145386,0.021972656,0.016586304,-3.4618378E-4,-0.00607872,-0.01235795
1570715613,1.5813751,-10.432739,1.2719269,0.039916992,-0.03768921,0.009140015,0.062457323,0.07791996,-0.08644891
1570715613,1.6083069,-10.43573,1.2581482,0.042053223,-0.054733276,0.002746582,0.13445151,0.07901764,-0.05102849
1570715613,1.6047211,-10.502762,1.3569183,0.0058288574,0.004928589,-0.02708435,0.08873987,0.044596672,0.009744763
1570715613,1.4395142,-10.586563,1.3497314,-0.014404297,0.09120178,-0.033477783,-0.0011501312,-0.053925514,0.0041006804
1570715613,1.4377136,-10.631454,1.2898712,-0.02293396,0.10719299,-0.02708435,-0.045826793,-0.12092495,-0.010354757
1570715613,1.470047,-10.544662,1.1869202,0.025009155,-0.05899048,0.01979065,-0.042785168,-0.017518044,-0.113857865
1570715613,1.470047,-10.544662,1.1869202,0.025009155,-0.05899048,0.01979065,-0.042785168,-0.017518044,-0.113857865
1570715613,1.577774,-10.459076,1.2186432,0.042053223,-0.111190796,0.022979736,0.09692168,0.015684128,-0.13355696
1570715613,1.6591797,-10.463257,1.170166,-0.014404297,-0.10800171,-0.017501831,0.14928353,0.07566929,-0.086191416
1570715613,1.6861115,-10.502167,1.2371979,-0.019729614,-0.10800171,-0.019622803,0.13952363,0.068185806,-0.1303767
1570715613,1.486206,-10.501572,1.3269806,-0.04423523,-0.06645203,-0.033477783,0.010984421,0.03213501,0.024537921
1570715613,1.4993744,-10.492584,1.3114166,-0.026123047,-0.09307861,-0.031341553,-0.059162498,0.0012388229,0.054774284
1570715613,1.4006042,-10.487793,1.4299316,0.018615723,-0.11332703,-0.024963379,-0.17093456,0.049589157,0.11598945
1570715613,1.3874359,-10.506363,1.4580688,0.021820068,-0.111190796,-0.024963379,-0.17093456,0.049589157,0.11598945
1570715613,1.3664856,-10.566803,1.3263855,0.043121338,0.0038604736,-0.019622803,-0.17844427,-0.039403915,0.09656656
1570715613,1.367691,-10.581772,1.3928223,0.042053223,0.015579224,-0.017501831,-0.19002187,-0.062354088,0.024222016
1570715613,1.3503265,-10.55484,1.2527618,0.050582886,0.048599243,0.0016784668,-0.17018735,-0.058431625,-0.08134484
1570715613,1.5430603,-10.529694,1.1156921,0.071884155,-0.076034546,0.018722534,-0.031253934,0.0139455795,-0.22194958
1570715613,1.5735931,-10.505753,1.1677704,0.031402588,-0.10267639,0.016586304,0.0242033,-0.012587547,-0.20607662
1570715613,1.5586243,-10.490799,1.1827393,0.029266357,-0.10054016,0.016586304,0.0242033,-0.012587547,-0.20607662
1570715613,1.5658112,-10.4973755,1.280899,-0.019729614,-0.10372925,-0.010040283,0.04403031,0.022790909,-0.057713985
1570715613,1.5658112,-10.4973755,1.280899,-0.019729614,-0.10372925,-0.010040283,0.04403031,0.022790909,-0.057713985
1570715613,1.4490967,-10.452484,1.356308,-0.026123047,-0.10160828,-0.018569946,-0.10466075,0.021229744,0.044787765
1570715613,1.3796539,-10.503967,1.4155731,-0.021865845,-0.071777344,-0.011108398,-0.16792953,-0.023791313,0.11373389
1570715613,1.3796539,-10.503967,1.4155731,-0.021865845,-0.071777344,-0.011108398,-0.16792953,-0.023791313,0.11373389
1570715613,1.4832153,-10.492584,1.4173737,0.03779602,-0.16339111,0.0155181885,-0.078674555,0.030702591,0.19097042
1570715613,1.4760284,-10.459671,1.3952179,0.03779602,-0.16871643,0.0155181885,-0.078674555,0.030702591,0.19097042
1570715613,1.5269012,-10.436325,1.5077515,0.058029175,-0.19534302,0.017654419,-0.013455868,0.051650047,0.17392242
1570715613,1.664566,-10.4423065,1.5406647,0.08892822,-0.1815033,0.0048675537,0.10251129,0.03759575,0.20427918
1570715613,1.5592194,-10.522522,1.577774,0.062286377,0.01876831,-0.035614014,-0.038878202,-0.039966583,0.14554465
1570715614,1.4413147,-10.548859,1.419754,0.06335449,0.20413208,-0.039871216,-0.120399475,-0.05831337,0.02919352
1570715614,1.4538727,-10.563812,1.3742676,0.06335449,0.2052002,-0.04093933,-0.120399475,-0.05831337,0.02919352
1570715614,1.4868011,-10.559021,1.2994537,0.062286377,0.17643738,-0.0345459,-0.15416467,-0.10503578,-0.1470635
1570715614,1.4550781,-10.563812,1.2581482,0.06442261,0.03794861,-0.017501831,-0.087173104,-0.07315254,-0.22680712
1570715614,1.5029602,-10.542862,1.2928619,0.06867981,-0.04194641,-4.5776367E-4,-0.10401499,-0.040668488,-0.18817055
1570715614,1.6202698,-10.526108,1.2132568,0.031402588,-0.07923889,0.007003784,0.041169405,-0.05708313,-0.25035012
1570715614,1.6753387,-10.469849,1.3796539,0.0037078857,-0.1580658,-0.013244629,0.15933692,0.029180527,-0.10236633
1570715614,1.6855164,-10.483017,1.3940277,5.0354004E-4,-0.16018677,-0.013244629,0.115505576,-0.005002022,-0.08049786
1570715614,1.462265,-10.555435,1.4293365,-0.06340027,0.023025513,-0.018569946,-0.13379872,-0.05255127,0.017923236
1570715614,1.462265,-10.555435,1.4293365,-0.06340027,0.023025513,-0.018569946,-0.13379872,-0.05255127,0.017923236
1570715614,1.569397,-10.565613,1.4203644,-0.038909912,-0.060058594,0.013397217,-0.06398487,-0.060608864,0.051276445
1570715614,1.648407,-10.530899,1.4101868,-0.02079773,-0.13356018,0.022979736,0.020247936,-0.0355587,0.02310276
1570715614,1.6986847,-10.426147,1.577179,-0.01121521,-0.19747925,0.025115967,0.09063876,0.056311607,0.1778599
1570715614,1.6986847,-10.426147,1.577179,-0.01121521,-0.19747925,0.025115967,0.09063876,0.056311607,0.1778599
1570715614,1.7441711,-10.381256,1.6418304,-0.015472412,-0.11332703,0.016586304,0.115823865,0.08553982,0.26098073
1570715614,1.6807251,-10.424347,1.6178894,0.0026397705,0.028366089,-0.0025787354,0.11304355,0.08436775,0.26450837
1570715614,1.7106628,-10.477631,1.5203247,0.010101318,0.034744263,-0.020690918,0.028962135,0.011129379,0.12431133
1570715614,1.5765839,-10.522522,1.5197144,0.038864136,0.04966736,-0.012176514,-0.047232628,-0.02097416,0.092484355
1570715614,1.6041107,-10.499176,1.4742279,0.038864136,0.047531128,-0.008972168,-0.047232628,-0.02097416,0.092484355
1570715614,1.6268616,-10.503357,1.4562683,0.038864136,0.06990051,0.0016784668,-0.013049126,-0.017507553,-0.024189115
1570715614,1.6490021,-10.41658,1.4359283,0.039916992,0.060317993,6.1035156E-4,0.018118024,0.022985458,-0.08300936
1570715614,1.6735535,-10.521912,1.3844452,0.015426636,-3.9672852E-4,0.005935669,0.049619555,-0.01546669,-0.1226722
1570715614,1.6735535,-10.521912,1.3844452,0.015426636,-3.9672852E-4,0.005935669,0.049619555,-0.01546669,-0.1226722
1570715614,1.6597748,-10.582977,1.4191589,0.010101318,-0.002532959,0.007003784,0.038909674,-0.05763054,-0.036800027
1570715614,1.6148834,-10.497971,1.430542,5.0354004E-4,0.039016724,0.005935669,0.004408002,-0.002606392,-0.02850473
1570715614,1.6148834,-10.497971,1.430542,5.0354004E-4,0.039016724,0.005935669,0.004408002,-0.002606392,-0.02850473
1570715614,1.5592194,-10.421356,1.4185638,-0.013336182,0.08908081,-0.004714966,-0.05684626,0.07307911,-0.10645449
1570715614,1.5586243,-10.47403,1.3898315,-0.025054932,0.074157715,-0.0036468506,-0.06177008,0.010953903,-0.10148597
1570715614,1.585556,-10.568008,1.430542,-0.003753662,-0.022781372,0.011260986,-0.042401552,-0.060380936,-0.058974504
1570715614,1.6741486,-10.509354,1.5071564,0.007965088,-0.083496094,0.032562256,0.007478595,-0.022291183,0.017136693
1570715614,1.6741486,-10.509354,1.5071564,0.007965088,-0.083496094,0.032562256,0.007478595,-0.022291183,0.017136693
1570715614,1.704071,-10.478821,1.486206,-0.0026855469,0.021972656,0.014465332,0.13002884,0.030430794,0.05133736
1570715614,1.6729431,-10.481216,1.4784241,-0.008010864,0.050735474,0.0048675537,0.13757217,0.079114914,0.022063017
1570715614,1.6107025,-10.502167,1.4784241,-0.042099,0.1199646,-0.015365601,0.031116128,0.013987541,-0.03486824
1570715614,1.5191193,-10.541672,1.3970184,-0.05595398,0.113586426,-0.0079193115,-0.08331287,-0.04927349,-0.03178203
1570715615,1.5496521,-10.4973755,1.4018097,-0.017608643,-0.07070923,0.0357666,-0.054075718,-0.022685051,0.011005521
1570715615,1.5556335,-10.499176,1.4221497,-0.019729614,-0.083496094,0.040023804,-0.04808998,0.017097473,-0.023121
1570715615,1.6220703,-10.504562,1.4490967,-0.010147095,-0.11651611,0.0357666,0.047080517,0.024754524,0.021102786
1570715615,1.6783295,-10.409988,1.4730377,-0.02079773,-0.10372925,0.0315094,0.12077093,0.049157143,0.090753675
1570715615,1.6268616,-10.502167,1.525711,-0.037841797,0.07096863,-0.0068511963,0.06780708,0.03238201,0.13614607
1570715615,1.6053162,-10.478226,1.5209198,-0.038909912,0.08482361,-0.005783081,0.0422163,0.0053157806,0.13668454
1570715615,1.4754333,-10.550049,1.4712372,-0.019729614,0.14128113,0.0048675537,-0.037765622,-0.027345657,0.067129016
1570715615,1.5041504,-10.544067,1.3994141,-0.014404297,0.14128113,0.0037994385,-0.037765622,-0.027345657,0.067129016
1570715615,1.5370789,-10.557236,1.3365631,-0.02079773,0.066711426,0.005935669,-0.028567433,0.015791893,-0.11026895
1570715615,1.5370789,-10.557236,1.3365631,-0.02079773,0.066711426,0.005935669,-0.028567433,0.015791893,-0.11026895
1570715615,1.4281464,-10.488998,1.3766632,-0.062347412,0.10079956,0.009140015,-0.09217143,-0.033364296,-0.028228045
1570715615,1.5628204,-10.423157,1.3335724,-0.06021118,0.04966736,0.025115967,0.05120063,0.13136005,-0.007880092
1570715615,1.5628204,-10.423157,1.3335724,-0.06021118,0.04966736,0.025115967,0.05120063,0.13136005,-0.007880092
1570715615,1.7124481,-10.408798,1.4371185,-0.006942749,-0.097335815,0.0037994385,0.2026447,0.106534004,0.083232164
1570715615,1.7190399,-10.484802,1.5514374,-0.0058898926,-0.06112671,-0.023895264,0.20986962,0.030080795,0.14636362
1570715615,1.8255768,-10.55304,1.5879517,-0.028259277,0.09866333,-0.043060303,0.2464776,-0.02969265,0.25933504
1570715615,2.149994,-10.557831,1.4191589,0.07081604,0.11891174,-0.075027466,0.57789254,0.019307137,0.011351943
1570715615,2.149994,-10.557831,1.4191589,0.07081604,0.11891174,-0.075027466,0.57789254,0.019307137,0.011351943
1570715615,1.4131775,-10.521912,1.320404,0.0015716553,0.47576904,-0.1091156,-0.104402184,-0.06909561,-0.07554507
1570715615,1.2126617,-10.314819,1.0151367,-0.045303345,0.6174469,-0.08779907,-0.35576022,0.09776497,-0.29701054
1570715615,1.4233551,-10.59494,1.043869,-0.16140747,-0.06752014,-0.059051514,-0.12924874,-0.005428314,-0.43137014
1570715615,1.4233551,-10.59494,1.043869,-0.16140747,-0.06752014,-0.059051514,-0.12924874,-0.005428314,-0.43137014
1570715615,1.2395935,-10.861893,1.458664,-0.045303345,-0.29655457,0.002746582,-0.36537445,-0.33277702,-0.004568577
1570715615,1.2461853,-10.618881,1.4526825,0.038864136,-0.25926208,0.0634613,-0.4091375,-0.16486835,0.1535666
1570715615,1.6795349,-10.522522,1.328186,0.062286377,-0.18362427,0.06239319,0.02221167,-0.0073537827,0.006277442
1570715615,1.7770996,-10.543472,1.0797882,0.11769104,-0.06112671,-0.0025787354,0.2115922,-0.0073976517,-0.2482301
1570715615,1.783081,-10.529694,1.0899658,0.10916138,-0.04408264,-0.008972168,0.2115922,-0.0073976517,-0.2482301
1570715615,1.5041504,-10.423752,0.9750366,0.019683838,0.043273926,-0.023895264,-0.09180689,0.009068489,-0.4125961
1570715615,1.312027,-10.567413,1.0606384,-0.061279297,0.034744263,-0.024963379,-0.32117295,-0.020906448,-0.27024806
1570715615,1.312027,-10.567413,1.0606384,-0.061279297,0.034744263,-0.024963379,-0.32117295,-0.020906448,-0.27024806
1570715615,1.1007385,-10.564423,1.1725616,0.0068969727,-0.08882141,0.01979065,-0.531039,-0.0864954,-0.115338326
1570715615,1.1007385,-10.564423,1.1725616,0.0068969727,-0.08882141,0.01979065,-0.531039,-0.0864954,-0.115338326
1570715616,1.4664459,-10.53508,1.1390381,0.032470703,-0.097335815,0.051742554,-0.13929498,-0.035079002,-0.17221987
1570715616,1.4664459,-10.53508,1.1390381,0.032470703,-0.097335815,0.051742554,-0.13929498,-0.035079002,-0.17221987
1570715616,1.5711975,-10.492584,1.2485809,0.04737854,-0.10372925,0.04748535,-0.0069731474,-0.003991127,-0.06955457
1570715616,1.6442108,-10.461472,1.2336121,-0.033584595,-0.011062622,-0.004714966,0.07508409,0.07873726,-0.1415466
1570715616,1.6526031,-10.464462,1.2419891,-0.039978027,-0.009994507,-0.005783081,0.04769361,0.050380707,-0.10482216
1570715616,1.4514923,-10.552444,1.3940277,-0.09111023,0.07310486,-0.015365601,-0.118251085,-0.029895782,0.05089748
1570715616,1.450882,-10.499771,1.3401489,-0.045303345,0.064575195,0.0016784668,-0.13858354,-0.054018974,0.09760821
1570715616,1.4604645,-10.53508,1.375473,0.0026397705,-0.064315796,0.014465332,-0.12439346,0.022566795,0.023278832
1570715616,1.4018097,-10.533295,1.3293762,0.020751953,-0.13676453,0.027236938,-0.12824881,-0.01703453,0.050210834
1570715616,1.5717926,-10.534485,1.5532379,0.07614136,-0.14634705,0.04322815,-0.001901865,-0.03339863,0.21442413
1570715616,1.719635,-10.436325,1.450882,0.11981201,-0.07817078,0.028305054,0.17276645,0.056910515,0.14097774
1570715616,1.5837708,-10.359116,1.3623047,0.07081604,0.07522583,-0.019622803,0.02708888,0.17072678,-0.037946343
1570715616,1.4478912,-10.459671,1.406601,0.03779602,0.2328949,-0.039871216,-0.06683588,0.07342625,-0.014508843
1570715616,1.3886414,-10.517136,1.1486206,0.02607727,0.24034119,-0.044128418,-0.13601148,0.015985489,-0.21759844
1570715616,1.3886414,-10.517136,1.1486206,0.02607727,0.24034119,-0.044128418,-0.13601148,0.015985489,-0.21759844
1570715616,1.4119873,-10.617081,1.2042847,0.03565979,-0.0036010742,-0.015365601,-0.1412139,-0.13772297,-0.22918761
1570715616,1.632843,-10.578186,1.3006439,0.07081604,-0.29335022,0.060272217,0.09960246,-0.09936333,-0.1266259
1570715616,1.632843,-10.578186,1.3006439,0.07081604,-0.29335022,0.060272217,0.09960246,-0.09936333,-0.1266259
1570715616,1.7980499,-10.389038,1.4119873,0.03353882,-0.2869568,0.0357666,0.24790561,0.025511742,-0.0055588484
1570715616,1.7561493,-10.411179,1.4472961,0.010101318,-0.23582458,0.01979065,0.23670292,0.07892132,0.038136125
1570715616,1.6974945,-10.384857,1.493988,-0.037841797,-0.099472046,-0.015365601,0.1373924,0.09923649,0.08904648
1570715616,1.498169,-10.475235,1.5340881,-0.08683777,0.058181763,-0.04093933,-0.055384755,0.010368347,0.13171422
1570715616,1.414978,-10.572189,1.6035156,-0.0463562,0.07096863,-0.028152466,-0.14874363,-0.051846504,0.19836712
1570715616,1.4460907,-10.587753,1.498169,0.071884155,-0.060058594,0.007003784,-0.16408515,-0.025967598,0.095863104
1570715616,1.4460907,-10.587753,1.498169,0.071884155,-0.060058594,0.007003784,-0.16408515,-0.025967598,0.095863104
1570715616,1.4311371,-10.582367,1.4323273,0.05696106,0.21157837,-0.004714966,-0.068208575,-0.06317425,-0.014374614
1570715616,1.438324,-10.594345,1.4443054,0.052703857,0.22436523,-0.005783081,-0.112900615,-0.06991768,-0.052664995
1570715616,1.4502869,-10.583572,1.2850952,0.016494751,0.32450867,-0.010040283,-0.10351241,-0.06434536,-0.19638526
1570715616,1.411377,-10.530899,1.1797485,-0.039978027,0.31704712,0.0016784668,-0.099756956,-0.02504158,-0.34421134
1570715616,1.4490967,-10.470444,1.1731567,-0.052749634,0.07310486,0.026184082,-0.07851529,0.06034565,-0.31528437
1570715616,1.5939331,-10.517731,1.3030396,-0.029312134,-0.19854736,0.046417236,0.04351914,0.023669243,-0.14570391
1570715616,1.5939331,-10.517731,1.3030396,-0.029312134,-0.19854736,0.046417236,0.09972298,-0.024342537,-0.11177611
1570715616,1.7477722,-10.45607,1.5652161,-0.031448364,-0.23582458,0.037887573,0.25310266,0.04066658,0.20715117
1570715616,1.7992401,-10.411789,1.6502075,-0.028259277,-0.17723083,0.03363037,0.28078306,0.05422306,0.26258695
1570715617,1.7938538,-10.451294,1.7322083,-0.023986816,-0.08135986,0.018722534,0.3090639,0.09266281,0.32629383
1570715617,1.5987244,-10.494385,1.5430603,-0.003753662,0.23182678,-0.033477783,0.121313095,0.036078453,0.18588638
1570715617,1.5987244,-10.494385,1.5430603,-0.003753662,0.23182678,-0.033477783,0.121313095,0.036078453,0.18588638
1570715617,1.459259,-10.638031,1.367096,0.029266357,0.25526428,-0.0036468506,-0.06265521,-0.11609268,-0.027258039
1570715617,1.459259,-10.638031,1.367096,0.029266357,0.25526428,-0.0036468506,-0.06265521,-0.11609268,-0.027258039
1570715617,1.6178894,-10.545853,1.2048798,0.07081604,0.046463013,0.0315094,0.13028717,-0.005671501,-0.2110821
1570715617,1.7028809,-10.471634,1.3156128,0.07081604,-0.1431427,0.0155181885,0.17916548,0.0068616867,-0.1676147
1570715617,1.7028809,-10.471634,1.3156128,0.07081604,-0.1431427,0.0155181885,0.17916548,0.0068616867,-0.1676147
1570715617,1.462265,-10.467453,1.3605042,-0.02079773,0.066711426,-0.024963379,-0.008971691,0.034020424,-0.14813387
1570715617,1.3796539,-10.53389,1.312027,-0.06021118,0.16471863,-0.035614014,-0.110019684,-0.013287544,-0.11651015
1570715617,1.1988983,-10.579971,1.2641449,-0.103881836,0.20838928,-0.016433716,-0.2800479,-0.065130234,-0.17853153
1570715617,1.1988983,-10.579971,1.2641449,-0.103881836,0.20838928,-0.016433716,-0.2800479,-0.065130234,-0.17853153
1570715617,1.4550781,-10.511139,1.3587036,-0.016540527,-0.2454071,0.04534912,0.025318027,0.0051651,-0.0165596
1570715617,1.5209198,-10.530899,1.3682861,-0.014404297,-0.25180054,0.049606323,0.025318027,0.0051651,-0.0165596
1570715617,1.6807251,-10.431534,1.5999298,-0.051696777,-0.10160828,0.011260986,0.19425511,0.09562206,0.28204775
1570715617,1.6807251,-10.431534,1.5999298,-0.051696777,-0.10160828,0.011260986,0.19425511,0.09562206,0.28204775
1570715617,1.5735931,-10.409393,1.6783295,-0.087905884,0.16365051,-0.029220581,0.13745618,0.11099815,0.37347734
1570715617,1.506546,-10.463257,1.6298523,-0.092163086,0.3340912,-0.047332764,0.059745193,0.06302643,0.35906613
1570715617,1.4562683,-10.518921,1.4389191,-0.07192993,0.3713684,-0.042007446,-0.026703715,0.028999329,0.17101634
1570715617,1.4598694,-10.539276,1.4850006,0.004776001,0.1157074,-0.012176514,-0.09475958,-0.0047750473,0.14709711
1570715617,1.4598694,-10.533295,1.4676514,0.0068969727,0.11038208,-0.012176514,-0.044889927,-0.023566246,0.13879097
1570715617,1.6591797,-10.4578705,1.4161682,0.05909729,0.074157715,0.010192871,0.19346356,0.09231663,0.091329336
1570715617,1.6675568,-10.39682,1.3820496,0.06335449,0.07310486,0.007003784,0.19346356,0.09231663,0.091329336
1570715617,1.7603302,-10.424957,1.3808594,0.04951477,0.13381958,-0.059051514,0.23861909,0.07918739,-0.02662313
1570715617,1.7603302,-10.424957,1.3808594,0.04951477,0.13381958,-0.059051514,0.23861909,0.07918739,-0.02662313
1570715617,1.5789795,-10.471039,1.3317719,0.034591675,0.25845337,-0.11230469,0.0845747,0.041561127,-0.069110036
1570715617,1.2371979,-10.693695,1.2198486,-0.017608643,0.38841248,-0.11869812,-0.32695365,-0.17499638,-0.19592154
1570715617,1.067215,-10.678146,1.1001282,-0.042099,0.37350464,-0.023895264,-0.41173303,-0.20801544,-0.2996186
1570715617,1.1611938,-10.544662,1.036087,-0.014404297,0.28189087,-0.0015258789,-0.4112296,-0.08783531,-0.36429918
1570715617,1.4760284,-10.430939,0.9361267,0.07507324,-0.1303711,0.03363037,-0.117129445,0.042409897,-0.5185946
1570715617,1.561615,-10.498581,1.0977478,0.050582886,-0.3114624,0.009140015,0.033536434,0.0122823715,-0.37379348
1570715617,1.4359283,-10.523712,1.3335724,-0.0932312,0.023025513,-0.016433716,-0.11097598,-0.07936287,-0.015452623
1570715617,1.4754333,-10.476425,1.4454956,-0.12413025,0.14767456,-0.019622803,-0.09555793,0.005887985,0.023941278
1570715618,1.5454559,-10.537476,1.3114166,-0.07192993,0.062454224,-0.016433716,0.021566749,0.016989708,-0.02632296
1570715618,1.5077515,-10.609299,1.4526825,0.020751953,-0.0920105,0.012329102,-0.020021558,-0.10393143,0.0571692
1570715618,1.4802094,-10.566803,1.4125824,0.032470703,-0.06538391,0.026184082,-3.2174587E-4,-0.069675446,0.060896993
1570715618,1.6412201,-10.436325,1.3491364,0.016494751,0.008117676,0.020843506,0.09445751,0.054325104,-0.021386385
1570715618,1.6154938,-10.51474,1.3036499,0.013290405,0.019836426,-0.022827148,0.098457694,0.011918068,-0.08490062
1570715618,1.52211,-10.548248,1.2551575,0.009033203,0.03262329,-0.021759033,0.062534094,-0.008025169,-0.09537327
1570715618,1.4365234,-10.520721,1.3233948,-0.033584595,0.12210083,-0.020690918,-0.10728264,0.0011510849,-0.11072886
1570715618,1.4245453,-10.526108,1.2449799,-0.052749634,0.11784363,-0.0068511963,-0.11011565,-0.017087936,-0.13858116
1570715618,1.5526428,-10.511139,1.3293762,0.04524231,-0.13142395,0.0315094,-0.012065649,-0.03695202,-0.03484273
1570715618,1.529892,-10.485413,1.3024445,0.03779602,-0.06752014,0.029373169,0.001921773,0.028344154,-0.055833697
1570715618,1.529892,-10.485413,1.3024445,0.03779602,-0.06752014,0.029373169,0.001921773,0.028344154,-0.055833697
1570715618,1.5801697,-10.571594,1.3108215,-0.021865845,0.039016724,0.013397217,0.043817878,-0.00522995,-0.046564102
1570715618,1.585556,-10.487198,1.3150177,-0.028259277,0.019836426,0.005935669,0.08174741,0.04743576,-0.0037640333
1570715618,1.3856506,-10.570404,1.4167633,0.018615723,-0.087753296,0.010192871,-0.107127786,-0.045243263,0.03829038
1570715618,1.3856506,-10.570404,1.4167633,0.018615723,-0.087753296,0.010192871,-0.107127786,-0.045243263,0.03829038
1570715618,1.36409,-10.595535,1.4083862,-0.0058898926,-0.0121154785,0.012329102,-0.14358783,-0.07154465,0.07587361
1570715618,1.4766235,-10.520126,1.3096313,0.043121338,0.015579224,0.022979736,-0.04546249,0.016222,-0.03290713
1570715618,1.52211,-10.531494,1.3209991,0.04951477,-0.036621094,0.028305054,-0.003769517,0.01816082,-0.068849325
1570715618,1.5029602,-10.563217,1.3850403,0.052703857,-0.07923889,0.029373169,0.011276484,-0.05976391,-0.082160234
1570715618,1.4532776,-10.576981,1.2970581,0.02394104,-0.0121154785,0.027236938,-0.024182081,-0.050423622,-0.06714666
1570715618,1.4873962,-10.542862,1.3126221,-0.0090789795,-0.002532959,0.0357666,-0.0079084635,-0.05299568,-0.06385994
1570715618,1.4634552,-10.600327,1.2910767,-0.008010864,-0.002532959,0.03363037,-0.0079084635,-0.05299568,-0.06385994
1570715618,1.4053955,-10.596146,1.3090363,-0.027191162,-0.056869507,0.040023804,-0.037899137,-0.07563782,-0.08651948
1570715618,1.4101868,-10.587158,1.2629395,-0.026123047,-0.060058594,0.04109192,-0.037899137,-0.07563782,-0.08651948
1570715618,1.403595,-10.387238,1.2527618,-0.062347412,-0.11972046,0.049606323,0.0019235611,0.1606121,-0.05443406
1570715618,1.5029602,-10.43692,1.2916718,-0.06340027,-0.17190552,0.04534912,0.06412244,0.12854195,-0.0056751966
1570715618,1.5825653,-10.488403,1.7579498,-0.059143066,-0.20173645,0.007003784,0.16969395,0.0457325,0.42750907
1570715618,1.5825653,-10.488403,1.7579498,-0.059143066,-0.20173645,0.007003784,0.16969395,0.0457325,0.42750907
1570715618,1.4879913,-10.47464,1.8896179,-0.07192993,0.13168335,-0.017501831,0.04750347,0.083369255,0.6155571
1570715618,1.4646454,-10.4895935,1.577774,0.0068969727,0.08375549,-0.0079193115,0.06197071,0.06760216,0.31671667
1570715618,1.4646454,-10.4895935,1.577774,0.0068969727,0.08375549,-0.0079193115,0.06197071,0.06760216,0.31671667
1570715618,1.3994141,-10.57399,1.5658112,0.044189453,0.012374878,0.0037994385,-0.025693774,-0.06290722,0.22101736
1570715618,1.419754,-10.534485,1.5304871,0.044189453,0.017700195,0.0037994385,-0.025693774,-0.06290722,0.22101736
1570715619,1.5131378,-10.55304,1.3299866,0.039916992,0.076293945,0.0155181885,0.08958781,-0.024759293,-0.01481688
1570715619,1.5741882,-10.490189,1.3006439,0.025009155,0.059249878,0.010192871,0.16986346,0.00525856,-0.09157002
1570715619,1.5837708,-10.505753,1.3102264,-0.027191162,0.031555176,-0.011108398,0.1653229,0.01910305,-0.083483696
1570715619,1.5837708,-10.505753,1.3102264,-0.027191162,0.031555176,-0.011108398,0.1653229,0.01910305,-0.083483696
1570715619,1.4969788,-10.458466,1.3425446,-0.092163086,0.017700195,-0.030288696,-0.0144280195,0.031352997,0.026525497
1570715619,1.4969788,-10.458466,1.3425446,-0.092163086,0.017700195,-0.030288696,-0.0144280195,0.031352997,0.026525497
1570715619,1.407196,-10.483612,1.3587036,-0.087905884,-0.006790161,-0.029220581,-0.05626321,0.032880783,0.055711746
1570715619,1.4419098,-10.4500885,1.5526428,-0.0463562,-0.09095764,-0.017501831,-0.04617381,0.079319,0.2245971
1570715619,1.4419098,-10.4500885,1.5526428,-0.0463562,-0.09095764,-0.017501831,-0.04617381,0.079319,0.2245971
1570715619,1.3820496,-10.517136,1.537674,-0.017608643,-0.025970459,-0.02708435,-0.067405105,0.0038909912,0.30530572
1570715619,1.3239899,-10.555435,1.50177,-0.016540527,0.1583252,-0.0345459,-0.1906811,-0.04449749,0.29610622
1570715619,1.3222046,-10.667358,1.5412598,-0.0026855469,0.30958557,-0.0388031,-0.17030406,-0.11753559,0.23369491
1570715619,1.703476,-10.678741,1.3509216,0.16668701,0.22010803,-0.012176514,0.2118057,-0.18447495,-0.052645564
1570715619,1.7112579,-10.67395,1.3048401,0.17094421,0.21157837,-0.011108398,0.2118057,-0.18447495,-0.052645564
1570715619,1.6310425,-10.37468,1.1683655,0.22314453,0.14447021,-0.028152466,0.14457345,0.09005451,-0.2645532
1570715619,1.367691,-10.627258,1.1647797,-0.10282898,0.2456665,-0.11123657,-0.15085876,-0.057394028,-0.32563806
1570715619,1.367691,-10.627258,1.1647797,-0.10282898,0.2456665,-0.11123657,-0.15085876,-0.057394028,-0.32563806
1570715619,1.3874359,-10.420761,1.3054352,-0.20828247,0.3106537,-0.121902466,-0.16365278,0.13211632,-0.124163866
1570715619,1.3874359,-10.420761,1.3054352,-0.20828247,0.3106537,-0.121902466,-0.16365278,0.13211632,-0.124163866
1570715619,1.1677704,-10.638641,1.450882,-0.14117432,0.19880676,-0.09207153,-0.35547137,-0.09707546,0.07155979
1570715619,1.1875305,-10.636841,1.4419098,-0.0847168,0.18069458,-0.06437683,-0.45067585,-0.12757206,0.09467983
1570715619,1.3341675,-10.507553,1.3012543,-0.0655365,0.16577148,-0.032409668,-0.34840262,-0.013998985,-0.028189898
1570715619,1.9728241,-10.401611,1.4371185,0.015426636,-0.24328613,0.024047852,0.35840714,0.10152912,0.12748647
1570715619,1.992569,-10.393234,1.4287415,0.021820068,-0.24008179,0.020843506,0.35840714,0.10152912,0.12748647
1570715619,1.8345642,-10.307037,1.5879517,0.06442261,-0.045150757,-0.0025787354,0.2728349,0.18264294,0.2492801
1570715619,1.5269012,-10.53508,1.0307007,-0.015472412,0.80067444,-0.11230469,-0.07753408,0.09340191,-0.25428307
1570715619,1.5269012,-10.53508,1.0307007,-0.015472412,0.80067444,-0.11230469,-0.07753408,0.09340191,-0.25428307
1570715619,1.2952576,-10.705673,0.57221985,-0.11027527,0.82624817,-0.119766235,-0.2201736,-0.19657993,-0.7491574
1570715619,1.2384033,-10.818207,0.7769165,-0.12413025,0.27017212,-0.0025787354,-0.3121612,-0.3714075,-0.66397
1570715619,1.2384033,-10.818207,0.7769165,-0.12413025,0.27017212,-0.0025787354,-0.3121612,-0.3714075,-0.66397
1570715619,1.5059509,-10.313629,0.93792725,-0.12838745,0.052856445,0.07624817,-0.1910423,0.13974094,-0.40515852
1570715619,2.475006,-10.481812,1.427536,-0.030380249,-0.3860321,0.12631226,0.86337125,0.034100533,0.11142814
1570715619,2.7647095,-10.346542,1.4562683,0.05696106,-0.53196716,0.11672974,1.1953869,0.11687088,0.18684101
1570715619,2.8443146,-10.089172,1.5484467,0.1379242,-0.5671234,0.04534912,1.332428,0.38837147,0.2754705
1570715620,2.2577362,-10.384857,1.498169,-0.042099,-0.14421082,-0.17729187,0.8928441,0.1516285,0.17143297
1570715620,1.6819305,-10.9522705,1.4018097,-0.34570312,1.5953674,-0.32855225,-0.39924812,-0.6038437,0.3349564
1570715620,1.6819305,-10.9522705,1.4018097,-0.34570312,1.5953674,-0.32855225,-0.39924812,-0.6038437,0.3349564
1570715620,1.5370789,-10.189117,1.7100525,-0.50016785,2.7128296,-0.73228455,-0.047705293,0.24912071,0.4006369
1570715620,1.4879913,-10.268127,0.794281,0.32115173,2.9162903,-0.27635193,-0.60251963,0.29458523,-0.51102984
1570715620,1.6663666,-10.627869,0.5991516,0.42874146,2.6009674,-0.19752502,-0.31502843,0.03492832,-0.82689357
1570715620,2.135025,-11.522095,-1.3150177,0.3115692,0.934906,0.030441284,0.22326171,-1.1211977,-2.6702235
1570715620,2.2277985,-10.04248,-0.62249756,-0.21681213,-0.7524872,0.41394043,0.41127384,-0.5917101,-2.8662255
1570715620,3.9899445,-9.897629,0.6428375,-0.20509338,-2.537857,0.33509827,2.1521955,0.7223778,-1.0078021
1570715620,3.328537,-10.102936,0.30047607,-0.3638153,-2.7828674,0.13589478,1.6904958,0.20841122,-0.92243385
1570715620,1.790268,-10.6548,1.146225,-1.301239,-0.4222412,-0.54800415,0.264835,0.42325687,0.5316541
1570715620,1.1599884,-10.419571,1.9698334,-1.029602,0.0070495605,-0.0579834,-0.90899515,-0.60533714,1.2858638
1570715620,1.1599884,-10.419571,1.9698334,-1.029602,0.0070495605,-0.0579834,-0.90899515,-0.60533714,1.2858638
1570715620,0.75297546,-9.646835,3.667923,0.09638977,0.47683716,0.037887573,-0.35992122,1.193594,3.0187907
1570715620,0.2166748,-11.862076,1.6190796,0.89320374,0.7719116,-0.20179749,-1.8224285,-1.9490557,1.3806989
1570715620,0.10235596,-11.627441,1.5861511,0.92941284,0.73249817,-0.15917969,-1.8224285,-1.9490557,1.3806989
1570715620,0.046081543,-10.509949,-2.0183105,1.3331604,0.53115845,1.1404419,-1.8166356,0.8135576,1.160747
1570715620,3.5960846,-11.102509,-3.692459,0.34458923,-2.611374,1.4515076,1.1845686,-0.8801174,-5.3294725
1570715620,1.50177,-12.835312,10.722427,2.572052,-0.79829407,0.522583,1.4524418,2.5932474,18.36408
1570715620,3.336914,-10.4578705,0.31663513,0.94966125,2.497635,0.5417633,2.2369933,-0.16987419,-1.3745489
1570715620,3.5559845,-10.166977,-0.12748718,0.7419281,2.6702118,0.5630646,2.4418368,-0.040673256,-1.8280454
1570715620,2.577362,-11.256332,0.22984314,-0.3638153,-1.0954895,0.22325134,1.87557,-0.66927814,-2.8133337
1570715620,2.577362,-11.256332,0.22984314,-0.3638153,-1.0954895,0.22325134,1.87557,-0.66927814,-2.8133337
1570715620,4.1293945,-10.767319,1.7136536,-0.61094666,-0.89842224,0.33190918,3.2715454,-0.684227,-0.46936178
1570715620,3.901352,-11.946472,2.2996368,-1.0562286,0.22010803,-1.4300385,3.300821,-1.2479048,0.9614583
1570715620,3.901352,-11.946472,2.2996368,-1.0562286,0.22010803,-1.4300385,3.300821,-1.2479048,0.9614583
1570715620,3.2154083,-12.57135,1.3820496,-0.83891296,-0.3306427,-1.6803741,1.7297992,-1.8753958,0.23469365
1570715620,1.9578552,-14.33049,3.910324,-0.026123047,-2.2779388,-2.25029,0.5843437,-3.1142998,1.560867
1570715620,-0.5913696,-14.944611,3.4099426,1.4950714,-3.9642487,-0.6151123,-3.8605976,-4.9781065,3.6001158
1570715620,-0.7158661,-11.013931,2.7228088,1.233017,-4.779175,0.40115356,-3.2934897,-1.3626633,1.2390575
1570715620,1.1336517,-13.883377,8.421005,-0.87620544,-0.18682861,1.0498962,-1.7174392,-1.3826895,7.26021
1570715620,-0.96725464,-8.121735,1.3826447,1.5440826,-3.7373505,2.0278015,-2.8768477,2.6560183,-0.70475125
1570715620,1.2503662,-10.4423065,-4.3897705,1.855133,-1.9945831,2.5093079,0.016893148,-0.26945877,-4.8782196
1570715620,1.2503662,-10.4423065,-4.3897705,1.855133,-1.9945831,2.5093079,0.016893148,-0.26945877,-4.8782196
1570715621,-3.28125,-13.483551,3.4536285,0.36376953,-0.37857056,2.591339,-3.718456,-2.5135126,1.2286376
1570715621,-2.644394,-13.547592,3.3093872,0.46496582,-0.4872284,2.5529785,-2.6558564,-2.8286238,1.4426951
1570715621,2.5234833,-10.235809,0.43215942,0.99653625,-0.9005585,1.2203369,3.5364742,-0.14080334,-1.5658362
1570715621,-0.1885376,-10.987595,1.4808197,0.93473816,-0.6970825,-0.47343445,2.054852,0.107806206,-0.7608664
1570715621,-0.19631958,-11.189896,2.8808289,1.0338135,-0.7290497,-2.008484,0.29265898,-0.73646736,0.040097237
1570715621,-0.19631958,-11.189896,2.8808289,1.0338135,-0.7290497,-2.008484,0.29265898,-0.73646736,0.040097237
1570715621,0.67097473,-11.394012,-0.29089355,0.21463013,0.41184998,-2.7914429,-2.0580893,-1.1738834,-4.045698
1570715621,-3.7894287,-9.357132,3.9318848,-0.10494995,2.1748657,-3.161087,-5.392318,0.73271275,0.630296
1570715621,-4.0545807,-9.168594,3.7295685,-0.08578491,2.2196045,-2.9810638,-5.392318,0.73271275,0.630296
1570715621,-4.526245,-8.614334,-0.39683533,0.2551117,1.2832336,-1.0976715,-7.483679,-0.27781487,-4.442823
1570715621,0.9104004,-10.361511,1.7154388,2.2109375,-1.4576874,-0.19433594,-1.4514513,-0.8539734,-2.5421658
1570715621,-0.5165558,-9.912598,6.893509,2.6785889,-2.1277313,0.21472168,-3.4214256,-0.85669327,1.2482638
1570715621,0.4333496,-11.566986,8.273758,3.0897827,0.18069458,1.1287231,-2.624553,-2.7356548,3.7302346
1570715621,0.7080841,-11.203674,8.489243,2.8681946,0.21903992,1.5036926,-1.5328176,-2.8844013,1.3952904
1570715621,0.96665955,-8.813049,12.758102,2.5006866,1.2076111,2.051239,-1.1726853,-1.2631125,4.753415
1570715621,2.4857788,-8.407242,11.563995,2.775528,2.4411774,1.9819946,1.8632464,-1.434124,3.8498354
1570715621,1.2581482,-6.1914062,9.925156,2.9885712,2.0726013,1.2970428,2.158796,-0.1981759,0.62579155
1570715621,1.2581482,-6.1914062,9.925156,2.9885712,2.0726013,1.2970428,2.158796,-0.1981759,0.62579155
1570715621,1.0881653,-5.1062317,7.261017,3.5467682,2.479538,1.2565613,2.7302465,-0.31140852,-1.7253494
1570715621,1.5484467,-2.3684692,2.6976624,3.5989685,-1.2936401,0.30314636,3.727828,0.14947462,-7.2478714
1570715621,1.5484467,-2.3684692,2.6976624,3.5989685,-1.2936401,0.30314636,3.727828,0.14947462,-7.2478714
1570715621,0.95529175,-2.4648285,4.139572,1.3342133,-1.8049622,-0.5543976,2.6189263,-1.0230287,-6.92766
1570715621,0.5895691,-2.4498596,4.7088013,1.0263519,-1.6121521,-0.57144165,1.9843403,-1.0915275,-6.1899385
1570715621,-0.29148865,-2.4049683,3.0352478,-0.13371277,-1.181778,-0.20498657,0.3528669,-1.0169688,-6.6122465
1570715621,-0.77812195,-3.008316,2.9861755,-1.1105652,-2.7317352,0.010192871,-0.39467493,-1.5447826,-7.941619
1570715621,1.4556732,-2.7186127,9.927551,-1.0359955,-5.372528,0.838974,-0.46914482,-0.9287182,-1.5854979
1570715621,4.48674,-2.8239594,18.683151,-0.67274475,-4.1996765,1.1223297,1.1890225,-0.48294854,3.9602976
1570715621,6.7372894,-3.0250702,12.235565,-1.3885956,0.5801697,0.61846924,3.7615275,-0.42654395,1.9324808
1570715621,6.8719635,-2.37146,10.741592,1.2479401,-2.8894043,-0.8004761,3.261218,0.5166378,1.7336779
1570715621,6.8719635,-2.37146,10.741592,1.2479401,-2.8894043,-0.8004761,3.261218,0.5166378,1.7336779
1570715621,1.8788452,-5.9675446,5.874176,0.5874634,-1.1402435,-1.1381531,-2.5803823,-3.4392881,-2.413745
1570715621,3.7385406,-3.8241425,8.669403,-0.36914062,0.39587402,-0.7269592,-1.4609585,-2.1443748,-0.5371046
1570715621,5.2032013,-3.190277,10.963043,-1.6229553,2.8491821,-0.9027405,0.894897,-0.9689717,0.7579651
1570715622,5.0769043,-2.8359375,12.92569,-0.35209656,2.293106,-1.5887604,2.5446265,0.30005407,4.8808556
1570715622,0.57699585,-5.3348846,16.409851,1.3533936,0.09120178,-1.3703918,-2.0943806,-2.8661337,5.115879
1570715622,1.8842316,-3.2716827,12.653961,1.3970642,3.1272125,-0.6875458,0.114843845,-1.5036889,3.2338657
1570715622,0.54467773,-3.3315277,10.3190155,0.64712524,4.3320312,-0.30511475,-1.3481559,-2.3586621,-0.50968456
1570715622,-3.4225159,-2.858673,5.937027,0.5331421,3.4499817,0.29995728,-2.112165,-1.6341537,-4.123435
1570715622,-3.6697083,-2.9101562,5.538391,0.50331116,3.3605042,0.35214233,-2.112165,-1.6341537,-4.123435
1570715622,-1.5011597,-2.0374603,5.1325684,-1.1041718,0.72291565,0.91993713,0.36918974,-0.9243065,-5.6576014
1570715622,-0.52493286,-2.5121155,7.415436,-1.9936676,-0.5436859,0.5396271,1.5923443,-0.5360668,-2.9421377
1570715622,-0.52493286,-2.5121155,7.415436,-1.9936676,-0.5436859,0.5396271,1.5923443,-0.5360668,-2.9421377
1570715622,-3.055008,-4.0414124,13.018478,0.23060608,-1.9722137,-0.2806244,-1.9902468,-1.272574,2.8832674
1570715622,-3.055008,-4.0414124,13.018478,0.23060608,-1.9722137,-0.2806244,-1.9902468,-1.272574,2.8832674
1570715622,1.0157471,-2.5995026,12.131424,-0.28071594,-0.056869507,-0.07714844,0.7838601,-0.6965878,1.9383764
1570715622,-0.4513092,-3.7762604,10.3237915,0.2401886,-0.95062256,-0.1410675,-0.2749002,-1.1085682,0.23443794
1570715622,-0.4441223,-3.7762604,10.3237915,0.2401886,-0.95062256,-0.1410675,-0.2749002,-1.1085682,0.23443794
1570715622,1.2198486,-3.0508118,11.018112,0.41915894,-1.0923004,-0.0345459,0.5879381,-0.7479212,0.7012043
1570715622,1.2198486,-3.0508118,11.018112,0.41915894,-1.0923004,-0.0345459,0.5879381,-0.7479212,0.7012043
1570715622,0.89064026,-3.1094666,9.944321,-0.026123047,-0.2603302,0.026184082,-0.045291066,-0.9876652,-0.51910114
1570715622,1.388031,-2.9640198,11.502945,-0.052749634,0.2414093,-0.017501831,0.43346125,-0.73420095,1.0280561
1570715622,1.2312164,-3.115448,11.16835,-0.041030884,0.3948059,-0.024963379,0.38483018,-0.8233967,0.90503883
1570715622,0.96006775,-3.197464,10.304047,-0.11773682,0.4374237,0.011260986,0.1843319,-0.942966,-0.12922287
1570715622,0.2454071,-3.2992096,10.725418,0.06123352,-0.07817078,0.09754944,-0.438806,-0.86705685,0.29035473
1570715622,0.113723755,-3.3171692,10.322006,0.039916992,-0.013183594,0.21792603,-0.7111921,-1.0844731,0.12497711
1570715622,0.14724731,-3.2597046,10.294464,0.027145386,-0.014251709,0.21792603,-0.6565034,-1.0377343,-0.108649254
1570715622,0.36810303,-3.5212708,10.53569,-0.18804932,0.20732117,0.35002136,-0.42876267,-1.1423795,0.23062325
1570715622,0.34835815,-3.485962,10.482407,-0.19017029,0.22329712,0.35108948,-0.32097512,-1.1286485,0.11828613
1570715622,0.3501587,-3.3016052,10.421967,-0.15608215,0.3617859,0.2956848,-0.07604945,-0.92104506,0.09494972
1570715622,0.33818054,-3.3219604,10.43573,-0.14863586,0.35113525,0.2871704,-0.05011335,-0.8076284,0.009343147
1570715622,0.34835815,-3.059784,10.439911,-0.06340027,0.19241333,0.20513916,0.056393385,-0.50270915,0.013989449
1570715622,-0.10594177,-3.3315277,10.309433,-0.16033936,0.074157715,0.16358948,-0.24965817,-0.7024367,-0.12566376
1570715622,-0.07720947,-3.3003998,10.353134,-0.15289307,0.06350708,0.1614685,-0.28127396,-0.70401764,-0.075678825
1570715622,0.052078247,-3.2088318,10.578186,-0.02079773,-0.054733276,0.12205505,-0.06326671,-0.44643307,0.33704567
1570715622,-0.118515015,-3.3931885,10.076004,-0.045303345,-0.021713257,0.12950134,-0.38409603,-0.69790316,-0.30663967
1570715622,-0.11073303,-3.3782196,10.101135,-0.047424316,-0.0121154785,0.13056946,-0.34627914,-0.6765554,-0.31845856
1570715623,-0.03352356,-3.4811707,10.193909,0.004776001,0.04434204,0.11352539,-0.21477613,-0.7050755,-0.14162254
1570715623,0.6949158,-3.0980988,10.950485,0.38613892,0.24247742,0.34895325,0.62399065,-0.3975327,0.4365015
1570715623,0.6979065,-3.0980988,10.950485,0.38613892,0.24247742,0.34895325,0.62399065,-0.3975327,0.4365015
1570715623,-0.3866577,-3.0957031,10.651199,0.60983276,-0.65660095,0.825119,-0.19442882,-0.124051094,-0.4112482
1570715623,-0.5105591,-3.470398,10.918152,0.62049866,-0.67152405,0.83151245,-0.3780519,-0.6731734,0.02922821
1570715623,-0.20829773,-4.6704865,11.5233,0.47135925,0.32556152,2.0224762,-1.4099358,-4.021516,-0.6820488
