time,ax,ay,az,gx,gy,gz,la_x,la_y,la_z,fox,foy,foz
1570715635,7.1634517,-4.9176903,7.445967,-0.6988348,-0.10013791,0.39096397,1.4460979,0.8331822,1.9297266
1570715635,8.303091,-5.353435,8.2169,-0.0063917814,-0.3398297,0.3398297,2.4420857,0.5410896,2.5234885
1570715635,8.303091,-5.171476,7.8865004,0.89591473,-0.17151281,0.28123838,2.6144683,0.62249243,2.384625
1570715635,7.302315,-4.0174704,8.183381,1.0578399,-0.25247538,-0.050068956,1.982399,0.90500826,2.2505496
1570715635,7.5704656,-5.482722,5.00867,-2.1263328,-1.3199029,0.4239882,1.6950948,0.36391866,-0.22984336
1570715635,6.6893997,-5.449203,1.2449849,-1.5180482,-0.19281875,0.23010413,0.7182605,0.11971009,-3.916914
1570715635,5.875371,-6.6271505,5.6790466,-0.70629185,0.17896989,0.18429637,0.06703765,-0.2777274,0.9672575
1570715635,6.191406,-5.841852,3.787627,-0.7180101,-0.96089786,0.017044751,0.41180268,0.2825158,-0.21068975
1570715635,5.2289367,-5.755661,1.8626889,-0.79151565,-0.70948774,0.36965802,-0.50757074,1.1587936,-2.231396
1570715635,4.9176903,-4.7788267,0.320823,-0.6327864,-0.23969181,0.6871165,-0.9816227,1.8962077,-3.064578
1570715635,7.1490865,-5.813122,4.8027687,-0.3419603,-0.07350549,1.3284253,1.1971009,1.4077905,0.21547815
1570715635,4.5298295,-4.405331,2.9113493,-0.3771151,-0.6999001,1.4509344,-0.58897364,2.0685902,-0.15322891
1570715635,4.3766007,-7.07726,4.999093,-1.1057782,-0.42292288,1.9154038,-0.770933,1.2066777,1.1731589
1570715635,4.19943,-5.861006,1.8818425,-0.9577019,-0.24075711,1.6767774,-0.5267244,1.9393034,-0.34955344
1570715635,4.0940847,-6.7372837,2.2840683,-1.6927568,0.7265325,1.8791838,-0.090979666,1.8243817,-1.2306197
1570715635,3.596091,-5.6407394,2.528277,-2.371351,1.2570504,1.6746467,-0.10534488,3.0358477,-0.272939
1570715635,0.91937345,-8.528147,3.41892,-1.5340276,0.42505348,1.3539925,-2.4181437,-0.02873042,1.2641385
1570715635,1.6232687,-11.089942,1.5562311,-1.3635801,-0.49429777,0.7180101,-1.8052281,-3.0119057,-0.48841715
1570715635,3.739743,-15.911864,-0.61770403,-0.0692443,-0.8692823,0.49003658,0.7469909,-6.50744,-2.9592333
1570715635,3.4045548,-12.880805,0.4309563,-0.30680552,-0.067113705,0.29828313,0.7278373,-3.193865,-0.91937345
1570715635,0.8331822,-13.642161,0.49799395,0.21732058,1.2144386,0.067113705,-1.1300632,-3.1316159,-1.2689269
1570715635,4.4484267,-9.217676,5.913678,0.39842105,0.48151422,0.2748466,1.7381904,0.2873042,2.906561
1570715635,2.0733786,-10.5680065,1.283292,-0.15659864,-0.58058685,0.35687447,-0.2825158,-1.5466543,1.1683705
1570715635,2.4708161,-9.528923,0.11492168,0.18110047,-0.5997622,0.21732058,0.04309563,-0.08619126,-1.5035586
1570715635,2.7724855,-8.848969,1.7190368,0.42611876,-0.31745848,0.12890093,0.10534488,0.4357447,-0.6895301
1570715635,2.3415294,-9.399636,2.657564,-0.16085984,-0.1747087,0.15553336,0.02873042,0.11492168,1.2449849
1570715635,1.8770541,-9.591172,0.62249243,-0.3078708,-0.19068815,0.1747087,-0.56982,-0.22026655,-0.91937345
1570715635,0.29209262,-6.339846,3.1268275,-0.49216717,-0.62639457,-0.18003519,-2.255338,3.145981,3.6535518
1570715636,3.3997664,-5.8083334,0.48841715,-0.9491796,-0.2759119,-0.3813763,0.79487497,3.6966474,-0.2777274
1570715636,4.213795,-5.8801594,0.47884035,-0.8383887,-0.23116943,0.5912398,1.6232687,3.5242648,-0.51235914
1570715636,1.8674773,-7.0341644,-0.49799395,-0.40161693,-0.27058542,1.0418605,-0.44532153,2.4612393,-1.2976574
1570715636,3.145981,-6.9240313,-0.91458505,0.3451562,0.18749227,1.140933,1.1204864,2.6384103,-1.70946
1570715636,2.0829554,-7.359776,-0.11971009,0.98966086,0.6540923,1.4679792,0.7661445,2.3415294,-1.5610195
1570715636,-0.22984336,-11.453861,2.6767175,1.697018,1.0652969,0.95450604,-1.5705963,-1.8531121,1.1779473
1570715636,-1.1109096,-12.41633,4.050989,1.1537166,0.70735717,0.33130735,-2.1739352,-2.2122424,2.5378537
1570715636,1.6328455,-12.181698,3.41892,-0.19921052,0.15659864,-0.14274979,0.51235914,-2.681506,1.2497733
1570715636,-0.17717093,-10.730812,1.4796166,-0.96409374,-0.4452941,0.8362581,-1.1540052,-1.163582,-0.45010993
1570715636,0.8379706,-11.659762,1.0726024,-0.15340276,-0.09694202,0.5784562,0.019153614,-2.0494366,-0.7182605
1570715636,-0.38307226,-12.100295,2.3702598,0.15766394,0.050068956,0.32385027,-1.0582372,-2.4851813,0.5602432
1570715636,0.34476504,-10.0748005,2.4277205,0.21732058,-0.15340276,0.05539544,-0.320823,-0.46926352,0.5554548
1570715636,0.5363012,-9.260772,2.4516625,-0.019175345,0.019175345,0.17151281,-0.110133275,0.33518824,0.5506664
1570715636,-0.30645782,-9.68694,2.5091233,-0.063917816,-0.02450183,-0.020240642,-0.93852705,-0.08140286,0.61770403
1570715636,0.62728083,-9.888053,2.1787236,-0.29934844,0.0021305939,0.059656627,-0.023942016,-0.272939,0.33997664
1570715636,0.6655881,-10.907983,1.7621324,-0.33556855,0.11079088,0.1384886,0.11971009,-1.0965444,0.14844051
1570715636,0.49799395,-10.788273,1.0342951,-0.06285252,0.14594568,0.21838588,-0.05746084,-1.115698,-0.59376204
1570715636,0.23942018,-9.643845,1.4460979,0.32811147,0.25780186,0.243953,-0.110133275,-0.16759412,-0.45010993
1570715636,-0.58418524,-8.197746,3.193865,0.32598087,0.18749227,0.25780186,-0.8331822,0.9959879,1.0486604
1570715636,-0.18674773,-9.169792,1.9919758,-0.22158176,0.054330144,0.22797355,-0.545878,0.45010993,0.12928689
1570715636,-0.2633622,-9.490616,1.6424223,-0.16831692,0.02769772,0.18855755,-0.521936,0.18674773,-0.19153613
1570715636,-0.17238252,-9.691729,1.6184803,-0.1043991,0.040481284,0.17790459,-0.4261679,-0.076614454,-0.05267244
1570715636,-0.2825158,-9.471462,1.5658079,-0.08202787,0.05539544,0.14914156,-0.4261679,0.07182605,-0.10055647
1570715636,-0.47405192,-9.303867,1.8100165,-0.10652969,0.05219955,0.13316211,-0.62249243,0.22505496,0.10055647
1570715636,-0.37828386,-9.14585,1.3599066,-0.07350549,0.1043991,0.07563608,-0.521936,0.5315128,-0.25857377
1570715636,-0.45489833,-9.500193,1.6184803,-0.050068956,0.15872924,0.03835069,-0.58418524,0.20111294,-0.10055647
1570715636,-0.34476504,-9.701305,2.0350714,-0.005326485,0.10866029,0.040481284,-0.49799395,0.02873042,0.31124622
1570715636,-0.07182605,-9.643845,1.5466543,0.03835069,0.05219955,0.02450183,-0.21547815,0.0,-0.07182605
1570715636,-0.2633622,-9.619903,1.7477672,0.031958908,0.088419646,0.04154658,-0.32561144,-0.023942016,-0.062249243
1570715636,-0.41180268,-9.452309,1.8291701,0.060721926,-0.092680834,0.02769772,-0.50757074,0.062249243,0.1340753
1570715636,-0.15801731,-9.308656,1.4748282,0.033024207,-0.08415846,0.036220096,-0.24420857,0.33518824,-0.2777274
1570715636,-0.4357447,-9.782708,1.7812861,0.08096257,-0.05646074,0.012783563,-0.51714754,-0.1340753,0.0047884034
1570715636,-0.58897364,-9.763555,1.7908629,0.04900366,-0.025567126,-0.02450183,-0.6751649,-0.11971009,0.0
1570715636,-0.545878,-9.56723,1.6519991,0.033024207,0.02769772,0.0085223755,-0.63206923,0.06703765,-0.14844051
1570715637,-0.56982,-9.667787,1.7525556,0.050068956,0.053264845,-0.0085223755,-0.5793968,0.01436521,-0.05267244
1570715637,-0.521936,-9.691729,1.8052281,0.033024207,0.09055024,-0.031958908,-0.59855044,-0.05267244,-0.019153614
1570715637,-0.33997664,-9.586384,1.9440918,0.040481284,0.088419646,-0.03835069,-0.4213795,0.04309563,0.10534488
1570715637,-0.4261679,-9.65821,2.0733786,0.015979454,0.08309316,-0.026632423,-0.50278234,-0.023942016,0.22984336
1570715637,-0.5363012,-9.461885,2.0733786,0.005326485,0.035154797,-0.05219955,-0.61770403,0.16759412,0.22505496
1570715637,-0.2777274,-9.370906,1.934515,0.01065297,0.091615535,-0.046873067,-0.36870706,0.25857377,0.08140286
1570715637,-0.4261679,-9.80665,1.9153614,0.045807768,0.05219955,-0.025567126,-0.51235914,-0.17717093,0.05267244
1570715637,-0.5650316,-9.797073,1.7812861,0.019175345,0.09694202,-0.050068956,-0.6560113,-0.16759412,-0.08619126
1570715637,-0.4165911,-9.485827,1.757344,-0.012783563,0.14381509,-0.07244019,-0.51235914,0.1388637,-0.10534488
1570715637,-0.37349546,-9.437943,1.733402,-0.020240642,0.175774,-0.07137489,-0.46926352,0.18674773,-0.12449849
1570715637,-0.33518824,-9.80665,1.8866309,0.0021305939,0.16192514,-0.08202787,-0.4405331,-0.17717093,0.023942016
1570715637,-0.095768064,-9.830592,1.9536686,-0.005326485,0.13103153,-0.088419646,-0.21068975,-0.20111294,0.090979666
1570715637,-0.07182605,-9.399636,1.8722657,-0.025567126,0.10972559,-0.068179004,-0.19153613,0.22505496,0.01436521
1570715637,-0.16759412,-9.289502,1.8770541,0.009587673,0.120378554,-0.070309594,-0.25378537,0.33039984,-0.033518825
1570715637,-0.08140286,-9.552865,1.9680338,0.068179004,0.09587672,-0.09800732,-0.22026655,0.07182605,0.095768064
1570715637,0.10055647,-9.849746,1.7190368,0.05646074,0.09907261,-0.089484945,-0.05746084,-0.20590134,-0.090979666
1570715637,-0.17717093,-9.706094,1.8052281,0.03728539,0.0692443,-0.06285252,-0.272939,-0.12928689,-0.10055647
1570715637,-0.095768064,-9.739613,1.910573,0.0031958907,0.08202787,-0.059656627,-0.2681506,-0.05746084,0.023942016
1570715637,0.009576807,-9.792285,2.0207062,0.0063917814,0.14914156,-0.05219955,-0.16759412,-0.18195933,0.095768064
1570715637,0.02873042,-9.768343,1.9201498,-0.02450183,0.18749227,-0.022371236,-0.110133275,-0.17238252,0.033518825
1570715637,-0.04309563,-9.543288,1.7669208,-0.046873067,0.18110047,-0.02450183,-0.17238252,0.033518825,-0.12449849
1570715637,-0.16759412,-9.466674,1.7669208,-0.05539544,0.2109288,-0.04261188,-0.272939,0.12928689,-0.08140286
1570715637,-0.090979666,-9.5385,1.8962077,-0.02130594,0.24714889,-0.050068956,-0.2681506,0.090979666,0.08140286
1570715637,0.07182605,-9.524135,1.6759412,-0.018110048,0.26632422,-0.063917816,-0.090979666,0.10055647,-0.16759412
1570715637,-0.019153614,-9.3661175,1.6232687,-0.009587673,0.25993246,-0.0692443,-0.12928689,0.22026655,-0.29688102
1570715637,0.1388637,-9.892841,1.934515,0.028763017,0.22264706,-0.067113705,-0.10534488,-0.12449849,0.019153614
1570715637,0.37349546,-9.792285,1.8291701,0.0042611877,0.21945117,-0.045807768,0.15322891,-0.22026655,-0.009576807
1570715637,0.47884035,-9.500193,1.8004397,-0.02130594,0.15872924,0.0042611877,0.31603462,0.090979666,-0.076614454
1570715637,0.30645782,-9.615114,1.8962077,-0.02450183,0.1043991,0.019175345,0.24899697,0.019153614,-0.07182605
1570715637,0.14844051,-9.835381,2.0015526,-0.023436533,0.060721926,0.0074570784,0.02873042,-0.21547815,0.16280572
1570715637,-0.06703765,-9.591172,1.8770541,-0.018110048,0.009587673,0.020240642,-0.11492168,0.0047884034,0.11971009
1570715637,-0.1436521,-9.41879,1.8674773,-0.01384886,-0.029828314,0.040481284,-0.19153613,0.25378537,0.05267244
1570715637,-0.30166942,-9.562442,1.9201498,0.0074570784,-0.067113705,0.029828314,-0.34476504,0.1436521,0.110133275
1570715638,-0.3878607,-9.639056,2.0350714,-0.0010652969,-0.05113425,0.031958908,-0.49320555,-0.009576807,0.17238252
1570715638,-0.45489833,-9.715671,2.0446482,-0.0063917814,-0.07457078,0.033024207,-0.521936,-0.08140286,0.20590134
1570715638,-0.5315128,-9.667787,1.7956513,-0.026632423,-0.05219955,0.033024207,-0.5602432,0.0,0.0047884034
1570715638,-0.36870706,-9.562442,1.7860745,-0.028763017,-0.040481284,0.044742472,-0.4165911,0.07182605,-0.038307227
1570715638,-0.2777274,-9.533711,1.6759412,-0.03835069,-0.012783563,0.04154658,-0.31603462,0.10055647,-0.1436521
1570715638,-0.20111294,-9.677363,1.6519991,-0.035154797,0.02769772,0.019175345,-0.22505496,-0.038307227,-0.15322891
1570715638,-0.1340753,-9.600749,1.7238252,-0.029828314,0.035154797,-0.0031958907,-0.14844051,0.038307227,-0.07182605
1570715638,-0.17238252,-9.576807,1.6903064,-0.02450183,0.045807768,0.0021305939,-0.18195933,0.062249243,-0.095768064
1570715638,-0.15801731,-9.749189,1.7764976,-0.01384886,0.029828314,0.0085223755,-0.16280572,-0.10534488,-0.0047884034
1570715638,-0.22505496,-9.65821,1.685518,-0.023436533,0.04793836,0.0074570784,-0.22026655,-0.01436521,-0.095768064
1570715638,-0.23463176,-9.495404,1.6711528,-0.022371236,0.035154797,0.0085223755,-0.22505496,0.14844051,-0.10055647
1570715638,-0.24899697,-9.629479,1.70946,-0.018110048,0.019175345,0.020240642,-0.22984336,0.01436521,-0.05746084
1570715638,-0.22984336,-9.639056,1.7381904,-0.017044751,0.017044751,0.017044751,-0.20111294,0.0047884034,-0.023942016
1570715638,-0.22026655,-9.662998,1.6950948,-0.015979454,0.026632423,0.01384886,-0.18195933,-0.01436521,-0.062249243
1570715638,-0.2681506,-9.509769,1.6136919,-0.022371236,0.025567126,0.017044751,-0.22026655,0.1340753,-0.1388637
1570715638,-0.272939,-9.610326,1.6950948,-0.011718267,0.025567126,0.019175345,-0.21547815,0.038307227,-0.05267244
1570715638,-0.22505496,-9.552865,1.6424223,-0.0042611877,0.019175345,0.01065297,-0.16280572,0.095768064,-0.10055647
1570715638,-0.33518824,-9.591172,1.6759412,-0.0063917814,0.026632423,-0.0010652969,-0.2681506,0.05746084,-0.06703765
1570715638,-0.22984336,-9.720459,1.733402,0.01065297,0.02450183,-0.0074570784,-0.15801731,-0.06703765,-0.009576807
1570715638,-0.24420857,-9.682152,1.5658079,0.005326485,0.020240642,-0.005326485,-0.16759412,-0.062249243,-0.08619126
1570715638,-0.32561144,-9.548077,1.7381904,0.0010652969,0.019175345,0.005326485,-0.24899697,0.10055647,-0.0047884034
1570715638,-0.2873042,-9.586384,1.7046716,0.0010652969,0.014914157,0.0,-0.18195933,0.05746084,-0.047884032
1570715638,-0.31124622,-9.619903,1.6184803,0.0074570784,0.014914157,-0.0085223755,-0.22984336,0.02873042,-0.12449849
1570715638,-0.22505496,-9.619903,1.7286136,0.009587673,0.01065297,-0.011718267,-0.18674773,0.062249243,-0.090979666
1570715638,-0.23942018,-9.591172,1.7669208,0.0085223755,-0.019175345,-0.011718267,-0.12928689,0.023942016,-0.01436521
1570715638,-0.23942018,-9.643845,1.7525556,0.011718267,-0.026632423,-0.0074570784,-0.16280572,0.0,-0.038307227
1570715638,-0.24420857,-9.653421,1.7717092,0.015979454,-0.02130594,0.0021305939,-0.22505496,-0.023942016,-0.01436521
1570715638,-0.24899697,-9.643845,1.7286136,0.0021305939,-0.025567126,0.009587673,-0.12928689,0.038307227,-0.019153614
1570715638,-0.24899697,-9.643845,1.6472107,-0.0021305939,-0.025567126,0.0063917814,-0.21068975,-0.04309563,-0.019153614
1570715638,-0.31124622,-9.629479,1.7142484,0.0010652969,-0.02769772,0.0063917814,-0.18195933,0.02873042,-0.033518825
1570715638,-0.25857377,-9.595961,1.7812861,0.005326485,-0.022371236,0.0042611877,-0.18195933,0.0047884034,0.0047884034
1570715638,-0.20590134,-9.600749,1.7286136,0.0042611877,-0.018110048,0.0063917814,-0.15322891,0.019153614,0.05267244
1570715638,-0.20111294,-9.624691,1.7190368,0.0063917814,-0.015979454,0.012783563,-0.12449849,0.023942016,-0.08619126
1570715639,-0.25378537,-9.691729,1.7286136,0.0031958907,-0.019175345,0.0074570784,-0.1340753,-0.062249243,-0.023942016
1570715639,-0.22984336,-9.706094,1.6807296,0.0,-0.018110048,0.005326485,-0.11971009,-0.05746084,-0.076614454
1570715639,-0.35434186,-9.706094,1.8148049,-0.01065297,-0.014914157,0.01065297,-0.21547815,-0.110133275,-0.02873042
1570715639,-0.2681506,-9.504981,1.7717092,-0.0074570784,-0.0085223755,0.02130594,-0.14844051,0.1388637,0.01436521
1570715639,-0.23463176,-9.5385,1.685518,-0.0021305939,-0.009587673,0.015979454,-0.10534488,0.10534488,-0.06703765
1570715639,-0.25378537,-9.68694,1.733402,0.0021305939,-0.011718267,-0.0021305939,-0.12449849,-0.038307227,-0.019153614
1570715639,-0.25378537,-9.667787,1.7908629,0.012783563,-0.012783563,0.0,-0.11971009,-0.019153614,0.033518825
1570715639,-0.2633622,-9.56723,1.7429788,0.005326485,-0.02769772,0.018110048,-0.12928689,0.076614454,-0.01436521
1570715639,-0.2777274,-9.653421,1.7046716,0.011718267,-0.029828314,0.019175345,-0.1340753,-0.0047884034,-0.05267244
1570715639,-0.2777274,-9.634268,1.6998832,0.0010652969,-0.02130594,0.01384886,-0.12928689,0.009576807,-0.05746084
1570715639,-0.22984336,-9.543288,1.6950948,-0.0010652969,-0.018110048,0.0074570784,-0.076614454,0.10055647,-0.062249243
1570715639,-0.30645782,-9.591172,1.7621324,0.005326485,-0.026632423,0.009587673,-0.15322891,0.05267244,0.0
1570715639,-0.2873042,-9.662998,1.7525556,0.0010652969,-0.009587673,0.009587673,-0.12928689,-0.01436521,-0.0047884034
1570715639,-0.24899697,-9.56723,1.7286136,0.0021305939,-0.017044751,0.017044751,-0.08619126,0.076614454,-0.02873042
1570715639,-0.17238252,-9.677363,1.7046716,-0.0042611877,-0.012783563,0.01065297,-0.0047884034,-0.02873042,-0.05267244
1570715639,-0.2681506,-9.710882,1.7717092,-0.01384886,0.0,0.0063917814,-0.095768064,-0.062249243,0.01436521
1570715639,-0.2633622,-9.653421,1.7429788,-0.009587673,-0.0042611877,0.0042611877,-0.090979666,-0.0047884034,-0.009576807
1570715639,-0.34476504,-9.691729,1.6759412,0.0,-0.015979454,0.017044751,-0.16759412,-0.04309563,-0.07182605
1570715639,-0.21547815,-9.586384,1.6519991,-0.005326485,0.01065297,0.0085223755,-0.033518825,0.05746084,-0.095768064
1570715639,-0.2777274,-9.581595,1.733402,-0.015979454,0.0074570784,0.0,-0.090979666,0.062249243,-0.009576807
1570715639,-0.2825158,-9.605537,1.685518,-0.0031958907,-0.0031958907,0.005326485,-0.095768064,0.04309563,-0.05267244
1570715639,-0.31124622,-9.667787,1.7956513,-0.0010652969,-0.009587673,0.01065297,-0.11971009,-0.01436521,0.05267244
1570715639,-0.320823,-9.701305,1.6567876,-0.009587673,-0.0085223755,0.009587673,-0.12449849,-0.047884032,-0.08140286
1570715639,-0.34476504,-9.548077,1.6280571,-0.01065297,-0.009587673,0.01065297,-0.1388637,0.076614454,-0.07182605
1570715639,-0.33997664,-9.5385,1.6519991,-0.0063917814,-0.018110048,0.020240642,-0.15801731,0.05746084,-0.02873042
1570715639,-0.34955344,-9.715671,1.6759412,-0.005326485,0.0,0.012783563,-0.14844051,-0.062249243,-0.05267244
1570715639,-0.29209262,-9.557653,1.7190368,-0.012783563,0.0063917814,0.005326485,-0.076614454,0.090979666,-0.009576807
1570715639,-0.32561144,-9.572019,1.7477672,-0.0010652969,-0.0031958907,0.0085223755,-0.1340753,0.12928689,0.05267244
1570715639,-0.37828386,-9.672575,1.6663644,-0.0031958907,0.01384886,-0.0021305939,-0.1340753,-0.019153614,-0.05746084
1570715639,-0.33518824,-9.581595,1.6998832,0.0,0.019175345,-0.0031958907,-0.10055647,0.0,0.02873042
1570715639,-0.25378537,-9.56723,1.661576,-0.0031958907,-0.0010652969,0.0,-0.02873042,0.08140286,-0.110133275
1570715639,-0.40701428,-9.734824,1.757344,-0.0042611877,-0.0063917814,0.0063917814,-0.16280572,-0.033518825,0.10055647
1570715639,-0.37828386,-9.68694,1.7190368,-0.005326485,0.011718267,0.0042611877,-0.090979666,-0.033518825,-0.02873042
1570715639,-0.36870706,-9.595961,1.6663644,-0.011718267,0.0031958907,0.0085223755,-0.1436521,0.01436521,-0.02873042
1570715640,-0.29209262,-9.548077,1.7142484,-0.015979454,0.014914157,0.0042611877,-0.110133275,0.090979666,-0.047884032
1570715640,-0.34476504,-9.648633,1.7286136,-0.005326485,0.014914157,0.0,-0.1436521,0.0,-0.019153614
1570715640,-0.35434186,-9.619903,1.661576,0.0010652969,0.012783563,-0.012783563,-0.02873042,0.047884032,-0.01436521
1570715640,-0.32561144,-9.605537,1.685518,-0.0021305939,0.0021305939,-0.0042611877,-0.02873042,0.05746084,0.019153614
1570715640,-0.35913026,-9.662998,1.661576,-0.0021305939,-0.0031958907,0.0,-0.095768064,0.0,-0.05746084
1570715640,-0.35434186,-9.648633,1.661576,-0.0042611877,0.0042611877,-0.0021305939,-0.1340753,0.009576807,-0.06703765
1570715640,-0.37349546,-9.605537,1.6903064,-0.011718267,-0.0042611877,0.0,-0.15322891,0.01436521,-0.047884032
1570715640,-0.35434186,-9.595961,1.661576,-0.0085223755,-0.0031958907,0.0042611877,-0.07182605,0.0047884034,-0.062249243
1570715640,-0.36391866,-9.581595,1.6807296,-0.0042611877,-0.0031958907,0.0021305939,-0.11492168,0.07182605,-0.019153614
1570715640,-0.38307226,-9.672575,1.6807296,0.0010652969,0.0042611877,-0.005326485,-0.110133275,0.0,-0.076614454
1570715640,-0.36391866,-9.634268,1.6136919,-0.0063917814,0.0085223755,-0.0031958907,-0.062249243,0.04309563,-0.04309563
1570715640,-0.37349546,-9.629479,1.6424223,-0.0021305939,0.01065297,-0.0031958907,-0.12449849,0.023942016,-0.05267244
1570715640,-0.33518824,-9.629479,1.6807296,-0.0074570784,0.0074570784,0.0,-0.08619126,0.023942016,-0.01436521
1570715640,-0.33997664,-9.734824,1.6232687,-0.005326485,0.009587673,-0.0021305939,-0.08619126,-0.076614454,-0.06703765
1570715640,-0.39264908,-9.648633,1.661576,-0.0085223755,0.0063917814,0.0,-0.1388637,0.0047884034,-0.02873042
1570715640,-0.30166942,-9.576807,1.6567876,-0.012783563,0.011718267,0.0021305939,-0.04309563,0.076614454,-0.02873042
1570715640,-0.31124622,-9.662998,1.661576,-0.0074570784,0.009587673,0.0021305939,-0.05267244,-0.0047884034,-0.023942016
1570715640,-0.31124622,-9.572019,1.6424223,-0.0085223755,0.009587673,-0.0010652969,-0.047884032,0.08140286,-0.038307227
1570715640,-0.31603462,-9.629479,1.7238252,-0.0010652969,0.0063917814,-0.0085223755,-0.05267244,0.023942016,0.038307227
1570715640,-0.33518824,-9.715671,1.6376339,-0.005326485,0.0042611877,-0.0010652969,-0.07182605,-0.05746084,-0.04309563
1570715640,-0.33518824,-9.677363,1.6807296,-0.009587673,-0.005326485,0.012783563,-0.07182605,-0.01436521,0.0
1570715640,-0.34476504,-9.576807,1.6663644,-0.0085223755,-0.0063917814,0.01065297,-0.07182605,0.08140286,-0.009576807
1570715640,-0.30645782,-9.639056,1.6807296,-0.0085223755,0.0031958907,-0.0010652969,-0.033518825,0.019153614,0.0047884034
1570715640,-0.31124622,-9.591172,1.6807296,-0.0085223755,0.0010652969,0.0,-0.038307227,0.06703765,0.009576807
1570715640,-0.320823,-9.524135,1.6567876,-0.0063917814,-0.0042611877,0.005326485,-0.04309563,0.1340753,-0.009576807
1570715640,-0.2825158,-9.696517,1.6328455,0.0010652969,0.0021305939,0.0042611877,-0.0047884034,-0.033518825,-0.033518825
1570715640,-0.33997664,-9.677363,1.6328455,-0.0021305939,0.005326485,0.0042611877,-0.062249243,-0.01436521,-0.033518825
1570715640,-0.36391866,-9.619903,1.661576,-0.009587673,0.0063917814,0.0021305939,-0.05746084,0.062249243,-0.04309563
1570715640,-0.35913026,-9.648633,1.6280571,-0.0031958907,0.005326485,-0.005326485,-0.06703765,0.0,-0.062249243
1570715640,-0.3878607,-9.68694,1.6376339,0.0010652969,0.0074570784,0.0,-0.10534488,-0.023942016,-0.023942016
1570715640,-0.4357447,-9.619903,1.6328455,-0.005326485,0.0042611877,0.0063917814,-0.10534488,0.0047884034,-0.08619126
1570715640,-0.35434186,-9.648633,1.6328455,-0.0063917814,0.0085223755,0.0021305939,-0.062249243,0.038307227,-0.05267244
1570715640,-0.36391866,-9.581595,1.6519991,0.0031958907,0.01384886,-0.005326485,-0.11971009,0.019153614,0.0
1570715641,-0.36870706,-9.643845,1.6472107,0.0063917814,0.0074570784,-0.011718267,-0.038307227,0.033518825,-0.023942016
1570715641,-0.38307226,-9.682152,1.5275006,0.0085223755,-0.0031958907,-0.0074570784,-0.11492168,0.0,-0.023942016
1570715641,-0.39264908,-9.639056,1.5993267,0.0085223755,-0.0063917814,0.0074570784,-0.090979666,0.076614454,-0.023942016
1570715641,-0.36391866,-9.653421,1.6136919,0.0063917814,-0.012783563,0.0074570784,-0.1388637,0.0,-0.06703765
1570715641,-0.38307226,-9.648633,1.5897499,0.0042611877,-0.0063917814,-0.0010652969,-0.08619126,-0.0047884034,-0.12449849
1570715641,-0.39264908,-9.691729,1.6807296,-0.0010652969,-0.012783563,0.0074570784,-0.08140286,0.04309563,-0.04309563
1570715641,-0.33997664,-9.629479,1.6711528,-0.0010652969,-0.020240642,0.01065297,-0.01436521,0.033518825,-0.023942016
1570715641,-0.3878607,-9.739613,1.6519991,-0.009587673,-0.0074570784,0.009587673,-0.08619126,-0.047884032,-0.02873042
1570715641,-0.35913026,-9.605537,1.6567876,-0.0085223755,-0.012783563,0.01384886,-0.062249243,0.047884032,0.0047884034
1570715641,-0.33997664,-9.504981,1.6136919,0.005326485,-0.0074570784,0.0042611877,-0.07182605,0.10055647,0.023942016
1570715641,-0.40701428,-9.572019,1.6328455,0.0074570784,-0.0010652969,-0.0021305939,-0.10055647,0.08619126,-0.02873042
1570715641,-0.36870706,-9.739613,1.7621324,0.009587673,0.011718267,-0.0085223755,-0.1388637,0.0,0.05746084
1570715641,-0.4357447,-9.629479,1.6424223,0.009587673,0.02450183,-0.0042611877,-0.12928689,0.02873042,-0.023942016
1570715641,-0.32561144,-9.5385,1.6376339,0.01065297,0.050068956,-0.014914157,-0.06703765,0.11492168,-0.06703765
1570715641,-0.39743748,-9.710882,1.7381904,0.0074570784,0.04793836,-0.019175345,-0.090979666,-0.047884032,0.06703765
1570715641,-0.39264908,-9.624691,1.5849615,0.01065297,0.036220096,-0.01384886,-0.090979666,0.033518825,-0.08619126
1570715641,-0.2681506,-9.615114,1.6041151,0.020240642,0.017044751,-0.011718267,0.02873042,0.038307227,-0.07182605
1570715641,-0.272939,-9.682152,1.5562311,0.01384886,0.0074570784,-0.0031958907,0.023942016,-0.023942016,-0.12449849
1570715641,-0.40222588,-9.643845,1.6472107,-0.0042611877,0.0010652969,-0.005326485,-0.10055647,0.009576807,-0.033518825
1570715641,-0.29688102,-9.720459,1.5897499,-0.0074570784,-0.014914157,0.0010652969,0.0,-0.062249243,-0.08619126
1570715641,-0.34476504,-9.576807,1.6089035,0.0042611877,-0.0085223755,0.017044751,-0.038307227,0.076614454,-0.06703765
1570715641,-0.2873042,-9.619903,1.5705963,-0.0063917814,-0.025567126,0.009587673,0.019153614,0.033518825,-0.10534488
1570715641,-0.33997664,-9.648633,1.6376339,-0.01065297,-0.017044751,-0.0010652969,-0.02873042,0.0047884034,-0.033518825
1570715641,-0.35913026,-9.605537,1.6424223,-0.0042611877,0.0042611877,-0.0021305939,-0.047884032,0.05267244,-0.023942016
1570715641,-0.3878607,-9.519346,1.6903064,0.0085223755,-0.005326485,0.005326485,-0.076614454,0.1388637,0.019153614
1570715641,-0.37828386,-9.753978,1.6663644,0.0085223755,-0.0010652969,0.0,-0.062249243,-0.095768064,-0.0047884034
1570715641,-0.31603462,-9.672575,1.5897499,0.0042611877,0.017044751,-0.01384886,0.0047884034,-0.01436521,-0.08140286
1570715641,-0.37349546,-9.595961,1.6041151,0.0021305939,-0.005326485,-0.0010652969,-0.062249243,0.05746084,-0.06703765
1570715641,-0.31124622,-9.528923,1.6328455,0.0042611877,0.012783563,0.005326485,0.0,0.12449849,-0.038307227
1570715641,-0.29209262,-9.56723,1.6950948,0.0074570784,0.0021305939,-0.0010652969,0.05267244,0.11492168,0.08140286
1570715641,-0.31603462,-9.672575,1.6136919,0.01065297,-0.0085223755,-0.0085223755,0.02873042,0.009576807,-0.05746084
1570715641,-0.32561144,-9.643845,1.6903064,0.0085223755,-0.01384886,-0.0063917814,-0.01436521,0.009576807,0.009576807
1570715641,-0.272939,-9.562442,1.6424223,0.009587673,-0.02769772,0.0010652969,0.02873042,0.12449849,-0.033518825
1570715642,-0.4357447,-9.653421,1.6711528,0.011718267,-0.020240642,-0.0021305939,-0.10055647,0.0047884034,-0.05746084
1570715642,-0.3878607,-9.691729,1.5945383,0.0021305939,-0.022371236,0.0021305939,-0.10055647,0.009576807,-0.05746084
1570715642,-0.34955344,-9.634268,1.6711528,0.01065297,-0.019175345,0.0,-0.04309563,0.0047884034,-0.023942016
1570715642,-0.37828386,-9.615114,1.6567876,0.009587673,-0.011718267,-0.0021305939,-0.095768064,0.05746084,-0.05267244
1570715642,-0.38307226,-9.653421,1.6280571,0.009587673,-0.01065297,-0.0063917814,-0.08140286,0.019153614,-0.05746084
1570715642,-0.35913026,-9.624691,1.6280571,0.011718267,-0.012783563,-0.0085223755,-0.033518825,0.01436521,-0.04309563
1570715642,-0.35434186,-9.634268,1.6136919,0.018110048,-0.009587673,-0.0085223755,-0.07182605,0.033518825,-0.02873042
1570715642,-0.37828386,-9.624691,1.733402,0.0085223755,-0.0010652969,-0.0021305939,-0.090979666,0.033518825,-0.0047884034
1570715642,-0.32561144,-9.677363,1.6807296,0.005326485,-0.019175345,-0.005326485,-0.009576807,0.02873042,-0.033518825
1570715642,-0.3878607,-9.691729,1.661576,0.0031958907,-0.0063917814,-0.005326485,-0.023942016,-0.033518825,-0.05267244
1570715642,-0.3878607,-9.600749,1.6950948,0.0042611877,-0.02130594,0.0042611877,-0.04309563,0.023942016,0.0047884034
1570715642,-0.31124622,-9.5385,1.6759412,0.005326485,-0.02450183,0.0,-0.019153614,0.07182605,-0.05746084
1570715642,-0.25857377,-9.509769,1.6089035,0.0063917814,-0.023436533,-0.01384886,0.038307227,0.1388637,-0.090979666
1570715642,-0.31603462,-9.639056,1.7860745,0.033024207,-0.020240642,-0.02130594,-0.019153614,0.05267244,0.023942016
1570715642,-0.2825158,-9.715671,1.7190368,0.039415985,-0.026632423,-0.019175345,0.0,-0.062249243,0.0
1570715642,-0.31124622,-9.65821,1.6567876,0.02769772,-0.015979454,-0.01384886,-0.05267244,-0.06703765,0.0
1570715642,-0.38307226,-9.600749,1.7238252,0.011718267,-0.012783563,-0.0031958907,-0.10055647,0.04309563,-0.0047884034
1570715642,-0.29688102,-9.543288,1.7669208,0.017044751,-0.020240642,-0.0085223755,-0.01436521,0.10055647,0.02873042
1570715642,-0.30166942,-9.639056,1.7908629,0.02450183,-0.0063917814,-0.012783563,-0.023942016,0.0047884034,0.047884032
1570715642,-0.23942018,-9.667787,1.8531121,0.023436533,-0.0074570784,-0.011718267,0.033518825,-0.019153614,0.10534488
1570715642,-0.22984336,-9.533711,1.757344,0.015979454,-0.019175345,-0.01384886,0.038307227,0.110133275,0.0
1570715642,-0.33997664,-9.610326,1.8339585,0.01384886,-0.011718267,-0.014914157,-0.07182605,0.033518825,0.076614454
1570715642,-0.33518824,-9.677363,1.8291701,0.03089361,-0.01384886,-0.0074570784,-0.07182605,-0.033518825,0.062249243
1570715642,-0.35434186,-9.595961,1.7717092,0.017044751,-0.0074570784,-0.0074570784,-0.090979666,0.04309563,0.0
1570715642,-0.33518824,-9.672575,1.8052281,0.0063917814,-0.015979454,-0.005326485,-0.07182605,-0.02873042,0.02873042
1570715642,-0.36391866,-9.653421,1.7477672,0.015979454,-0.0085223755,-0.0031958907,-0.10055647,-0.009576807,-0.023942016
1570715642,-0.31124622,-9.572019,1.8579005,0.0074570784,0.0074570784,-0.0021305939,-0.047884032,0.06703765,0.076614454
1570715642,-0.29209262,-9.624691,1.7525556,0.009587673,0.0063917814,-0.005326485,-0.02873042,0.01436521,-0.023942016
1570715642,-0.24899697,-9.572019,1.7764976,0.01384886,0.0042611877,-0.011718267,0.0047884034,0.06703765,-0.0047884034
1570715642,-0.30166942,-9.701305,1.8579005,0.0063917814,-0.0021305939,-0.0074570784,-0.04309563,-0.05746084,0.07182605
1570715642,-0.272939,-9.662998,1.8195933,0.0063917814,0.0010652969,-0.0010652969,-0.01436521,-0.019153614,0.02873042
1570715642,-0.2777274,-9.591172,1.8195933,-0.0031958907,0.005326485,0.0031958907,-0.019153614,0.047884032,0.033518825
1570715642,-0.31603462,-9.56723,1.7908629,-0.0031958907,0.0,0.0010652969,-0.076614454,0.02873042,0.02873042
1570715642,-0.2825158,-9.600749,1.8100165,0.0,0.005326485,-0.0042611877,0.02873042,0.04309563,-0.009576807
1570715643,-0.25857377,-9.528923,1.8243817,0.0085223755,0.0042611877,-0.0010652969,0.009576807,0.04309563,0.08619126
1570715643,-0.2777274,-9.710882,1.8579005,0.009587673,0.0063917814,-0.009587673,-0.019153614,-0.07182605,0.06703765
1570715643,-0.30645782,-9.576807,1.8148049,0.0,0.01065297,-0.009587673,0.0,0.04309563,0.05267244
1570715643,-0.22505496,-9.56723,1.7477672,0.0042611877,0.0021305939,0.0021305939,0.047884032,0.110133275,-0.0047884034
1570715643,-0.2825158,-9.648633,1.7860745,0.015979454,-0.01384886,-0.0031958907,0.0,-0.02873042,-0.023942016
1570715643,-0.2777274,-9.682152,1.7956513,0.014914157,0.005326485,-0.0042611877,0.0,-0.04309563,0.038307227
1570715643,-0.36870706,-9.605537,1.733402,0.0031958907,-0.0042611877,0.0031958907,-0.062249243,0.033518825,-0.033518825
1570715643,-0.2777274,-9.643845,1.7908629,0.0085223755,-0.0063917814,0.0031958907,-0.110133275,-0.01436521,0.095768064
1570715643,-0.272939,-9.56723,1.7908629,0.0063917814,0.0074570784,-0.005326485,-0.06703765,0.023942016,-0.05746084
1570715643,-0.23942018,-9.562442,1.7956513,0.0042611877,-0.01384886,-0.0042611877,0.019153614,0.062249243,-0.038307227
1570715643,-0.30645782,-9.643845,1.8387469,0.014914157,-0.018110048,-0.0021305939,-0.047884032,-0.0047884034,0.02873042
1570715643,-0.29688102,-9.653421,1.7717092,0.012783563,-0.02130594,0.0031958907,-0.02873042,-0.023942016,0.0
1570715643,-0.30166942,-9.629479,1.8291701,0.0042611877,-0.02450183,0.009587673,-0.01436521,-0.02873042,0.047884032
1570715643,-0.31603462,-9.605537,1.7717092,0.0031958907,-0.02450183,0.01065297,-0.05267244,0.023942016,-0.038307227
1570715643,-0.25378537,-9.653421,1.7812861,0.0021305939,-0.023436533,0.0063917814,-0.033518825,-0.047884032,-0.009576807
1570715643,-0.33039984,-9.557653,1.8387469,0.0042611877,-0.022371236,0.0063917814,-0.05267244,0.07182605,0.009576807
1570715643,-0.30166942,-9.576807,1.8243817,0.0042611877,-0.022371236,0.0031958907,-0.023942016,0.04309563,0.0
1570715643,-0.2825158,-9.696517,1.7860745,0.0074570784,-0.012783563,0.0010652969,-0.05267244,-0.04309563,-0.033518825
1570715643,-0.272939,-9.595961,1.8148049,0.005326485,-0.023436533,0.011718267,-0.0047884034,0.033518825,-0.01436521
1570715643,-0.25378537,-9.619903,1.8291701,0.0010652969,-0.019175345,0.011718267,0.009576807,0.009576807,0.009576807
1570715643,-0.31603462,-9.667787,1.8626889,-0.0031958907,-0.018110048,0.0031958907,-0.047884032,-0.033518825,0.04309563
1570715643,-0.2825158,-9.615114,1.8483237,-0.0021305939,-0.018110048,0.0085223755,-0.01436521,0.01436521,0.02873042
1570715643,-0.2825158,-9.533711,1.8195933,-0.0021305939,-0.022371236,0.011718267,-0.009576807,0.095768064,0.0
1570715643,-0.24420857,-9.5385,1.910573,0.0021305939,-0.01384886,0.0021305939,0.023942016,0.090979666,0.090979666
1570715643,-0.29209262,-9.624691,1.8195933,0.01384886,-0.011718267,-0.0031958907,-0.019153614,0.0047884034,0.0
1570715643,-0.34955344,-9.672575,1.8195933,0.011718267,-0.0063917814,0.0031958907,-0.076614454,-0.038307227,-0.0047884034
1570715643,-0.32561144,-9.581595,1.7956513,0.0,-0.009587673,0.005326485,-0.05267244,0.047884032,-0.02873042
1570715643,-0.35913026,-9.624691,1.757344,0.0031958907,-0.01065297,0.0010652969,-0.08140286,0.0047884034,-0.06703765
1570715643,-0.36391866,-9.581595,1.8148049,0.0010652969,-0.01065297,0.0,-0.08619126,0.047884032,-0.009576807
1570715643,-0.31124622,-9.619903,1.8339585,0.0042611877,-0.0085223755,0.0010652969,-0.033518825,0.009576807,0.0047884034
1570715643,-0.31603462,-9.619903,1.8770541,0.0063917814,-0.011718267,0.0042611877,-0.038307227,0.009576807,0.047884032
1570715643,-0.2873042,-9.581595,1.9057846,0.0010652969,-0.01384886,0.0031958907,-0.009576807,0.047884032,0.076614454
1570715643,-0.25857377,-9.629479,1.7908629,-0.0010652969,-0.019175345,0.0042611877,0.01436521,0.0,-0.033518825
1570715644,-0.32561144,-9.576807,1.8291701,-0.0063917814,-0.017044751,0.011718267,-0.04309563,0.05267244,0.0
1570715644,-0.25378537,-9.624691,1.8531121,-0.0031958907,-0.017044751,0.014914157,0.023942016,0.0047884034,0.023942016
1570715644,-0.34476504,-9.615114,1.9009962,-0.0042611877,-0.014914157,0.01065297,0.0,0.01436521,0.05267244
1570715644,-0.34476504,-9.648633,1.8914193,-0.0074570784,-0.015979454,0.0085223755,-0.019153614,0.033518825,-0.0047884034
1570715644,-0.34955344,-9.629479,1.7669208,-0.0010652969,-0.020240642,0.017044751,-0.05267244,0.009576807,-0.023942016
1570715644,-0.320823,-9.562442,1.8579005,-0.009587673,0.0021305939,0.009587673,-0.05746084,0.10055647,0.05746084
1570715644,-0.36391866,-9.533711,1.8387469,-0.0063917814,-0.0010652969,-0.0063917814,-0.038307227,0.05267244,0.062249243
1570715644,-0.24420857,-9.595961,1.8483237,0.0021305939,-0.005326485,-0.0010652969,0.01436521,0.062249243,0.01436521
1570715644,-0.30166942,-9.624691,1.7812861,0.0031958907,0.0,0.009587673,-0.009576807,-0.009576807,0.04309563
1570715644,-0.33518824,-9.653421,1.8435353,-0.0031958907,-0.011718267,0.01384886,-0.01436521,-0.047884032,0.06703765
1570715644,-0.3878607,-9.591172,1.7190368,-0.017044751,-0.009587673,0.005326485,-0.06703765,-0.047884032,-0.02873042
1570715644,-0.29209262,-9.485827,1.8052281,-0.011718267,-0.0010652969,0.009587673,-0.019153614,0.17238252,-0.0047884034
1570715644,-0.31124622,-9.548077,1.8291701,0.0010652969,-0.009587673,0.0085223755,-0.038307227,0.14844051,0.0
1570715644,-0.39743748,-9.653421,1.8387469,-0.0042611877,-0.0021305939,0.0021305939,-0.047884032,0.0,-0.01436521
1570715644,-0.2825158,-9.509769,1.8387469,-0.0021305939,0.0042611877,0.0010652969,-0.04309563,0.07182605,0.0
1570715644,-0.36870706,-9.586384,1.8674773,0.0,0.0074570784,-0.0063917814,-0.076614454,0.12449849,-0.0047884034
1570715644,-0.2873042,-9.662998,1.8052281,0.0021305939,-0.0010652969,-0.0031958907,-0.023942016,-0.019153614,-0.033518825
1570715644,-0.36391866,-9.643845,1.7621324,0.0,0.005326485,0.0,-0.05746084,-0.009576807,-0.05746084
1570715644,-0.35434186,-9.662998,1.8339585,-0.0074570784,-0.01065297,0.0,-0.023942016,-0.01436521,-0.01436521
1570715644,-0.37828386,-9.595961,1.8435353,-0.02130594,0.0042611877,0.012783563,-0.08140286,0.07182605,-0.009576807
1570715644,-0.29209262,-9.591172,1.8674773,-0.009587673,0.0021305939,0.01065297,-0.047884032,0.05267244,0.04309563
1570715644,-0.2681506,-9.595961,1.8052281,0.0,0.0074570784,-0.0010652969,0.04309563,0.033518825,0.0
1570715644,-0.31603462,-9.595961,1.8148049,0.0021305939,0.0021305939,0.0,0.02873042,0.0,-0.01436521
1570715644,-0.30166942,-9.600749,1.8052281,-0.0021305939,-0.0085223755,0.0010652969,0.02873042,0.033518825,0.033518825
1570715644,-0.34955344,-9.648633,1.8387469,-0.0063917814,-0.0063917814,0.0042611877,-0.033518825,-0.01436521,0.033518825
1570715644,-0.38307226,-9.624691,1.7621324,-0.011718267,-0.0010652969,0.0031958907,-0.06703765,0.009576807,-0.038307227
1570715644,-0.33039984,-9.557653,1.757344,-0.0042611877,-0.0074570784,0.0063917814,-0.009576807,0.076614454,-0.04309563
1570715644,-0.31603462,-9.624691,1.7525556,-0.0063917814,-0.009587673,0.0031958907,0.0,0.009576807,-0.04309563
1570715644,-0.39743748,-9.634268,1.8339585,-0.005326485,-0.0010652969,0.0031958907,-0.076614454,0.0,0.033518825
1570715644,-0.40222588,-9.648633,1.7621324,0.0,-0.0021305939,-0.0010652969,-0.08140286,-0.009576807,-0.033518825
1570715644,-0.4261679,-9.643845,1.8435353,-0.0085223755,-0.0031958907,0.0074570784,-0.10534488,-0.0047884034,0.04309563
1570715644,-0.38307226,-9.56723,1.8148049,-0.011718267,-0.005326485,0.0085223755,-0.05746084,0.06703765,0.019153614
1570715644,-0.4309563,-9.581595,1.7669208,-0.0074570784,-0.0010652969,0.0,-0.10534488,0.05267244,-0.023942016
1570715645,-0.39743748,-9.605537,1.7812861,-0.0031958907,0.0031958907,-0.0074570784,-0.062249243,0.0,-0.033518825
1570715645,-0.40222588,-9.706094,1.7381904,-0.0031958907,-0.0085223755,0.015979454,-0.07182605,-0.06703765,-0.05267244
1570715645,-0.29688102,-9.552865,1.7525556,-0.0074570784,-0.0063917814,0.012783563,0.033518825,0.08140286,-0.033518825
1570715645,-0.37349546,-9.572019,1.8052281,-0.012783563,0.01384886,-0.005326485,-0.038307227,0.062249243,0.01436521
1570715645,-0.37828386,-9.562442,1.7525556,-0.01065297,0.0074570784,-0.0021305939,-0.07182605,0.12449849,-0.07182605
1570715645,-0.320823,-9.68694,1.7860745,0.009587673,0.0031958907,0.0042611877,0.009576807,-0.047884032,0.0
1570715645,-0.31603462,-9.691729,1.733402,-0.0074570784,0.0021305939,0.0063917814,0.019153614,-0.05267244,-0.047884032
1570715645,-0.37828386,-9.586384,1.7525556,-0.019175345,0.0,0.01065297,-0.038307227,0.047884032,-0.023942016
1570715645,-0.37828386,-9.562442,1.7621324,-0.01384886,-0.0010652969,0.0074570784,-0.076614454,0.08140286,0.019153614
1570715645,-0.37828386,-9.643845,1.7764976,-0.0031958907,0.0074570784,0.0031958907,-0.038307227,0.076614454,-0.07182605
1570715645,-0.2777274,-9.634268,1.757344,-0.0031958907,0.0,0.0031958907,0.06703765,0.0,-0.01436521
1570715645,-0.33997664,-9.615114,1.7477672,-0.0074570784,0.0010652969,0.0021305939,-0.0047884034,0.009576807,0.0
1570715645,-0.37828386,-9.586384,1.7956513,-0.0031958907,0.0,0.009587673,0.0,0.076614454,-0.023942016
1570715645,-0.39264908,-9.581595,1.7717092,-0.0031958907,-0.005326485,0.009587673,-0.0047884034,0.023942016,-0.009576807
1570715645,-0.34476504,-9.610326,1.7381904,-0.0063917814,-0.0085223755,0.0063917814,0.0,0.05267244,-0.009576807
1570715645,-0.34476504,-9.639056,1.6759412,-0.0021305939,-0.009587673,0.0063917814,-0.009576807,0.009576807,-0.019153614
1570715645,-0.40222588,-9.715671,1.6998832,0.0031958907,-0.014914157,0.014914157,-0.023942016,-0.08619126,-0.038307227
1570715645,-0.4261679,-9.576807,1.733402,-0.0085223755,-0.0010652969,0.01384886,-0.038307227,0.02873042,0.0
1570715645,-0.40222588,-9.519346,1.7717092,-0.0085223755,-0.0085223755,0.005326485,-0.04309563,0.05746084,-0.01436521
1570715645,-0.4357447,-9.509769,1.7238252,0.011718267,-0.012783563,0.009587673,-0.08619126,0.090979666,-0.06703765
1570715645,-0.36391866,-9.68694,1.8291701,0.020240642,-0.012783563,0.005326485,-0.02873042,0.01436521,0.05746084
1570715645,-0.41180268,-9.595961,1.7621324,0.01384886,-0.02450183,0.0063917814,-0.038307227,0.038307227,-0.009576807
1570715645,-0.40222588,-9.576807,1.7908629,0.020240642,-0.036220096,0.02450183,-0.009576807,0.009576807,-0.05267244
1570715645,-0.4213795,-9.701305,1.7190368,0.011718267,-0.03728539,0.029828314,0.0047884034,-0.023942016,-0.04309563
1570715645,-0.4357447,-9.605537,1.7238252,0.014914157,-0.04154658,0.02769772,-0.047884032,0.0,-0.038307227
1570715645,-0.4357447,-9.524135,1.7860745,0.0074570784,-0.02450183,0.02130594,-0.04309563,0.10534488,-0.0047884034
1570715645,-0.45968673,-9.557653,1.8195933,0.0085223755,-0.03089361,0.0063917814,-0.06703765,0.07182605,0.023942016
1570715645,-0.4309563,-9.624691,1.7669208,0.018110048,-0.026632423,0.0021305939,-0.038307227,0.0047884034,-0.02873042
1570715645,-0.45010993,-9.65821,1.7621324,0.005326485,-0.015979454,0.01065297,-0.05746084,-0.023942016,-0.038307227
1570715645,-0.4357447,-9.576807,1.7860745,0.0042611877,-0.031958908,0.015979454,-0.038307227,0.05267244,-0.01436521
1570715645,-0.47884035,-9.725247,1.733402,0.0010652969,-0.031958908,0.0063917814,-0.090979666,-0.08140286,-0.05267244
1570715645,-0.48362875,-9.605537,1.7860745,-0.005326485,-0.026632423,0.0074570784,-0.08619126,0.023942016,-0.01436521
1570715645,-0.4357447,-9.514558,1.7525556,0.0,-0.035154797,0.018110048,-0.033518825,0.11492168,-0.04309563
1570715645,-0.3878607,-9.552865,1.733402,0.0,-0.03728539,0.011718267,0.01436521,0.076614454,-0.06703765
1570715646,-0.44532153,-9.643845,1.7717092,-0.0021305939,-0.034089502,0.005326485,-0.038307227,-0.009576807,-0.023942016
1570715646,-0.38307226,-9.600749,1.7764976,0.01384886,-0.04261188,0.011718267,0.019153614,0.02873042,-0.023942016
1570715646,-0.39743748,-9.619903,1.7908629,0.0074570784,-0.04793836,0.011718267,0.0047884034,0.009576807,-0.01436521
1570715646,-0.5506664,-9.648633,1.7908629,-0.0021305939,-0.03728539,0.009587673,-0.1436521,-0.01436521,-0.009576807
1570715646,-0.47884035,-9.634268,1.7764976,0.0,-0.040481284,0.01384886,-0.06703765,0.0,-0.023942016
1570715646,-0.49320555,-9.581595,1.8339585,-0.0063917814,-0.031958908,0.018110048,-0.08140286,0.047884032,0.02873042
1570715646,-0.47884035,-9.677363,1.8770541,-0.0031958907,-0.026632423,0.012783563,-0.062249243,-0.04309563,0.07182605
1570715646,-0.46926352,-9.610326,1.8148049,0.0021305939,-0.033024207,0.01384886,-0.047884032,0.019153614,0.009576807
1570715646,-0.44532153,-9.605537,1.8339585,-0.0063917814,-0.028763017,0.020240642,0.0,0.038307227,0.02873042
1570715646,-0.4165911,-9.591172,1.8100165,-0.01065297,-0.026632423,0.019175345,0.0047884034,0.05267244,0.01436521
1570715646,-0.4165911,-9.615114,1.8100165,-0.0021305939,-0.023436533,0.01384886,0.01436521,0.038307227,0.047884032
1570715646,-0.47884035,-9.739613,1.8195933,-0.0042611877,-0.03728539,0.015979454,-0.076614454,-0.05267244,0.062249243
1570715646,-0.46926352,-9.591172,1.8004397,-0.0085223755,-0.019175345,0.012783563,-0.033518825,0.038307227,0.0
1570715646,-0.5554548,-9.528923,1.8626889,-0.0085223755,-0.018110048,0.018110048,-0.08619126,0.06703765,0.01436521
1570715646,-0.48841715,-9.548077,1.7764976,-0.009587673,-0.0021305939,0.015979454,-0.05267244,0.11492168,0.0
1570715646,-0.45010993,-9.576807,1.8052281,-0.0074570784,0.0085223755,0.005326485,0.02873042,0.05267244,0.023942016
1570715646,-0.51714754,-9.653421,1.7812861,-0.0010652969,-0.0021305939,0.0021305939,-0.08140286,0.047884032,-0.04309563
1570715646,-0.47884035,-9.653421,1.8531121,-0.0063917814,0.0021305939,0.005326485,-0.038307227,-0.02873042,0.110133275
1570715646,-0.46926352,-9.562442,1.7764976,-0.0085223755,0.005326485,0.0042611877,-0.038307227,0.090979666,0.01436521
1570715646,-0.49799395,-9.591172,1.8579005,-0.0042611877,0.0042611877,0.0010652969,-0.04309563,0.009576807,0.090979666
1570715646,-0.51714754,-9.572019,1.7717092,-0.005326485,0.0074570784,0.0010652969,-0.07182605,0.0047884034,0.038307227
1570715646,-0.46926352,-9.600749,1.8100165,-0.005326485,0.0042611877,0.0042611877,0.0,0.04309563,0.01436521
1570715646,-0.5315128,-9.548077,1.8339585,-0.0063917814,-0.0031958907,0.0031958907,-0.0047884034,0.02873042,0.033518825
1570715646,-0.49320555,-9.619903,1.8004397,-0.0042611877,-0.0010652969,0.0,0.0,0.023942016,0.0047884034
1570715646,-0.5506664,-9.581595,1.8195933,-0.0085223755,0.009587673,0.0042611877,-0.023942016,0.0,-0.0047884034
1570715646,-0.44532153,-9.610326,1.7429788,-0.0074570784,-0.0010652969,0.0031958907,-0.0047884034,0.04309563,0.01436521
1570715646,-0.45968673,-9.610326,1.733402,-0.0063917814,0.0021305939,-0.0021305939,0.0,0.019153614,-0.038307227
1570715646,-0.51235914,-9.610326,1.7286136,-0.0085223755,0.0031958907,-0.0010652969,-0.05267244,0.019153614,-0.04309563
1570715646,-0.51714754,-9.648633,1.757344,-0.005326485,-0.011718267,0.0085223755,-0.05746084,-0.01436521,-0.01436521
1570715646,-0.5363012,-9.5385,1.7381904,-0.011718267,0.0021305939,0.009587673,-0.07182605,0.095768064,-0.02873042
1570715646,-0.49799395,-9.586384,1.733402,-0.015979454,0.0021305939,-0.0010652969,-0.033518825,0.047884032,-0.02873042
1570715646,-0.5410896,-9.629479,1.6807296,-0.0021305939,0.0031958907,-0.005326485,-0.076614454,0.0047884034,-0.08140286
1570715646,-0.45968673,-9.624691,1.7669208,0.0042611877,0.0,-0.0063917814,0.0,0.009576807,0.0
1570715647,-0.51714754,-9.639056,1.6759412,-0.0085223755,-0.0085223755,0.0010652969,-0.05267244,0.0,-0.08619126
1570715647,-0.51235914,-9.634268,1.7381904,-0.0063917814,-0.0042611877,0.0021305939,-0.047884032,0.0,-0.023942016
1570715647,-0.60333884,-9.624691,1.7286136,-0.0063917814,-0.0021305939,0.0042611877,-0.1340753,0.009576807,-0.02873042
1570715647,-0.5602432,-9.595961,1.6950948,-0.011718267,0.0042611877,0.0021305939,-0.090979666,0.038307227,-0.062249243
1570715647,-0.45489833,-9.576807,1.7477672,-0.0042611877,0.0010652969,-0.0010652969,0.009576807,0.05746084,-0.0047884034
1570715647,-0.51714754,-9.615114,1.757344,0.0010652969,0.0031958907,0.0021305939,-0.047884032,0.019153614,0.0
1570715647,-0.45968673,-9.65821,1.7669208,-0.0085223755,0.009587673,-0.0021305939,0.0047884034,-0.019153614,0.009576807
1570715647,-0.45968673,-9.576807,1.7525556,-0.0063917814,0.0074570784,0.0010652969,0.0047884034,0.05746084,0.0
1570715647,-0.49320555,-9.572019,1.7238252,0.0,0.0021305939,0.0031958907,-0.019153614,0.062249243,-0.023942016
1570715647,-0.58897364,-9.653421,1.7429788,-0.0063917814,0.0010652969,-0.0031958907,-0.11492168,-0.01436521,-0.0047884034
1570715647,-0.45489833,-9.639056,1.7764976,-0.009587673,-0.0042611877,0.0021305939,0.023942016,-0.023942016,0.019153614
1570715647,-0.44532153,-9.548077,1.685518,-0.0042611877,-0.0085223755,0.0074570784,0.0,0.02873042,-0.047884032
1570715647,-0.49320555,-9.639056,1.7860745,-0.0085223755,0.0042611877,0.0021305939,0.0,0.062249243,-0.0047884034
1570715647,-0.46926352,-9.65821,1.7142484,-0.0074570784,0.0010652969,-0.0021305939,0.009576807,-0.019153614,-0.023942016
1570715647,-0.45968673,-9.576807,1.733402,0.0,-0.0031958907,-0.0010652969,0.02873042,0.08619126,-0.019153614
1570715647,-0.5267244,-9.605537,1.7477672,-0.0021305939,-0.0063917814,0.0031958907,0.0047884034,0.038307227,-0.019153614
1570715647,-0.5267244,-9.672575,1.7046716,-0.0021305939,-0.0031958907,0.0,-0.04309563,-0.019153614,-0.023942016
1570715647,-0.5554548,-9.682152,1.6998832,-0.0074570784,-0.0021305939,0.0063917814,-0.10055647,0.0047884034,-0.05267244
1570715647,-0.5410896,-9.576807,1.6711528,-0.01384886,-0.0031958907,0.005326485,-0.038307227,0.033518825,-0.07182605
1570715647,-0.49799395,-9.624691,1.7142484,-0.009587673,0.0031958907,0.0021305939,-0.07182605,0.01436521,-0.033518825
1570715647,-0.5315128,-9.562442,1.733402,-0.0063917814,0.0031958907,0.0031958907,-0.009576807,0.062249243,0.0047884034
1570715647,-0.46926352,-9.615114,1.757344,-0.0031958907,-0.0063917814,0.0021305939,0.0,0.047884032,0.04309563
1570715647,-0.48841715,-9.605537,1.7190368,-0.0042611877,-0.0031958907,0.0021305939,-0.009576807,0.038307227,0.038307227
1570715647,-0.46926352,-9.600749,1.7142484,-0.0021305939,-0.01065297,0.0021305939,-0.02873042,0.07182605,0.038307227
1570715647,-0.50278234,-9.572019,1.7477672,0.0021305939,-0.025567126,0.0074570784,0.038307227,0.047884032,0.038307227
1570715647,-0.5267244,-9.701305,1.6950948,0.0021305939,-0.017044751,0.0031958907,-0.033518825,-0.06703765,-0.038307227
1570715647,-0.5506664,-9.643845,1.7429788,-0.0031958907,-0.022371236,0.009587673,-0.019153614,0.0,-0.01436521
1570715647,-0.51714754,-9.595961,1.7381904,-0.01384886,-0.014914157,0.014914157,-0.12928689,0.047884032,-0.05267244
1570715647,-0.5793968,-9.586384,1.6998832,-0.012783563,-0.0085223755,0.005326485,-0.08140286,0.05267244,-0.0047884034
1570715647,-0.58418524,-9.610326,1.6759412,0.0042611877,-0.01065297,0.0,-0.08140286,0.033518825,-0.038307227
1570715647,-0.5506664,-9.581595,1.6807296,0.0085223755,-0.0010652969,-0.0031958907,-0.08140286,0.08140286,-0.062249243
1570715647,-0.5315128,-9.595961,1.6903064,0.0074570784,-0.0042611877,-0.0074570784,-0.062249243,0.04309563,-0.02873042
1570715647,-0.5554548,-9.701305,1.7286136,0.005326485,-0.0031958907,-0.0063917814,-0.05746084,-0.05746084,0.0
1570715648,-0.5793968,-9.619903,1.7477672,0.0010652969,0.0074570784,-0.005326485,-0.110133275,0.06703765,0.0047884034
1570715648,-0.5554548,-9.576807,1.6950948,0.0,-0.0021305939,-0.0042611877,-0.062249243,0.062249243,-0.033518825
1570715648,-0.5363012,-9.600749,1.6711528,-0.0021305939,-0.0021305939,-0.0063917814,-0.04309563,0.038307227,-0.05746084
1570715648,-0.50757074,-9.595961,1.7429788,0.005326485,-0.0042611877,-0.0021305939,-0.01436521,0.04309563,0.009576807
1570715648,-0.60812724,-9.562442,1.7525556,0.0063917814,-0.0063917814,-0.005326485,-0.11492168,0.076614454,0.01436521
1570715648,-0.49320555,-9.543288,1.7286136,0.0042611877,-0.0085223755,-0.011718267,-0.0047884034,0.095768064,-0.0047884034
1570715648,-0.48362875,-9.643845,1.6998832,0.01384886,-0.009587673,-0.015979454,0.0,0.0,-0.033518825
1570715648,-0.62728083,-9.610326,1.7381904,0.0063917814,-0.0074570784,-0.009587673,-0.1436521,0.023942016,0.0
1570715648,-0.56982,-9.758766,1.7381904,0.0010652969,-0.009587673,-0.0042611877,-0.08619126,-0.11971009,0.0
1570715648,-0.5602432,-9.653421,1.6759412,-0.0063917814,-0.0074570784,0.005326485,-0.076614454,-0.01436521,-0.062249243
1570715648,-0.51235914,-9.605537,1.7142484,-0.015979454,0.01065297,-0.0010652969,-0.02873042,0.033518825,-0.019153614
1570715648,-0.49799395,-9.600749,1.6950948,-0.0031958907,0.01065297,-0.0063917814,-0.01436521,0.038307227,-0.038307227
1570715648,-0.49799395,-9.586384,1.6950948,0.0074570784,0.0063917814,-0.0085223755,-0.01436521,0.05267244,-0.038307227
1570715648,-0.4309563,-9.591172,1.7764976,0.011718267,-0.0021305939,-0.012783563,0.047884032,0.047884032,0.038307227
1570715648,-0.47405192,-9.600749,1.7669208,0.0074570784,-0.0074570784,-0.017044751,0.0,0.038307227,0.023942016
1570715648,-0.49320555,-9.576807,1.6950948,0.015979454,-0.012783563,-0.012783563,-0.019153614,0.05746084,-0.047884032
1570715648,-0.46447513,-9.65821,1.6998832,0.014914157,-0.01384886,-0.005326485,0.0,-0.019153614,-0.047884032
1570715648,-0.4405331,-9.68694,1.6184803,-0.005326485,-0.017044751,0.0042611877,0.023942016,-0.047884032,-0.12928689
1570715648,-0.5410896,-9.581595,1.6759412,-0.0085223755,-0.015979454,0.0010652969,-0.06703765,0.0,-0.08140286
1570715648,-0.5410896,-9.662998,1.7286136,-0.0021305939,-0.01065297,-0.0063917814,-0.10534488,0.0,-0.033518825
1570715648,-0.59855044,-9.624691,1.6998832,0.0042611877,0.0063917814,-0.005326485,-0.06703765,0.009576807,-0.047884032
1570715648,-0.4309563,-9.639056,1.6519991,0.0042611877,0.005326485,-0.0042611877,0.0,0.04309563,-0.05746084
1570715648,-0.4309563,-9.576807,1.7046716,0.0010652969,0.0021305939,-0.005326485,0.019153614,0.019153614,-0.06703765
1570715648,-0.4261679,-9.720459,1.757344,-0.0021305939,0.0,-0.0074570784,-0.023942016,0.0,-0.01436521
1570715648,-0.37828386,-9.639056,1.8004397,-0.0042611877,-0.009587673,-0.0010652969,0.076614454,-0.01436521,0.05746084
1570715648,-0.4213795,-9.528923,1.7190368,-0.012783563,-0.0085223755,0.0085223755,0.02873042,0.12449849,0.0
1570715648,-0.34476504,-9.629479,1.7381904,-0.009587673,-0.012783563,0.0063917814,0.06703765,0.10055647,0.0047884034
1570715648,-0.45489833,-9.639056,1.757344,0.005326485,-0.014914157,0.0,0.019153614,0.009576807,0.02873042
1570715648,-0.45968673,-9.605537,1.8100165,-0.0021305939,-0.019175345,0.0,0.019153614,0.02873042,0.038307227
1570715648,-0.47405192,-9.576807,1.7286136,0.0010652969,-0.020240642,0.0042611877,-0.019153614,0.0,0.0
1570715648,-0.545878,-9.68694,1.6089035,0.0021305939,-0.009587673,0.0042611877,-0.047884032,-0.0047884034,-0.04309563
1570715648,-0.5793968,-9.600749,1.7477672,-0.0042611877,-0.005326485,0.0031958907,-0.10055647,0.0,0.038307227
1570715648,-0.5363012,-9.615114,1.70946,-0.0074570784,-0.005326485,0.0042611877,-0.062249243,0.023942016,-0.02873042
1570715648,-0.5363012,-9.572019,1.7381904,-0.0063917814,0.0021305939,0.0042611877,-0.04309563,0.0,0.01436521
1570715649,-0.45010993,-9.576807,1.7190368,0.0031958907,0.0042611877,0.0010652969,0.019153614,0.062249243,-0.01436521
1570715649,-0.50278234,-9.624691,1.7621324,-0.0021305939,0.0010652969,-0.0031958907,0.0,0.0,-0.01436521
1570715649,-0.545878,-9.653421,1.7286136,-0.0042611877,0.005326485,0.0021305939,-0.04309563,-0.047884032,-0.0047884034
1570715649,-0.47405192,-9.605537,1.685518,-0.009587673,0.0085223755,0.005326485,0.0,0.033518825,-0.047884032
1570715649,-0.5315128,-9.662998,1.7812861,-0.0074570784,0.0010652969,0.0063917814,-0.05267244,-0.019153614,0.047884032
1570715649,-0.5410896,-9.730036,1.6998832,-0.0074570784,0.009587673,0.0031958907,-0.062249243,-0.08619126,-0.02873042
1570715649,-0.5650316,-9.610326,1.6567876,-0.01384886,0.011718267,0.011718267,-0.047884032,-0.033518825,-0.019153614
1570715649,-0.49320555,-9.557653,1.6519991,-0.019175345,0.02130594,0.012783563,-0.0047884034,0.08140286,-0.06703765
1570715649,-0.5267244,-9.514558,1.7381904,-0.01384886,0.017044751,0.0074570784,-0.033518825,0.12449849,0.019153614
1570715649,-0.46926352,-9.5385,1.6998832,-0.0085223755,0.009587673,0.01065297,0.023942016,0.10055647,-0.01436521
1570715649,-0.4261679,-9.610326,1.7477672,-0.0085223755,0.0085223755,0.0031958907,0.06703765,0.02873042,0.033518825
1570715649,-0.46447513,-9.619903,1.7669208,-0.0010652969,-0.0021305939,-0.0010652969,0.02873042,0.019153614,0.05267244
1570715649,-0.46447513,-9.639056,1.7238252,-0.0063917814,-0.018110048,0.01065297,0.033518825,0.0,0.009576807
1570715649,-0.48841715,-9.677363,1.7046716,-0.012783563,-0.020240642,0.01065297,0.009576807,-0.033518825,0.0
1570715649,-0.50757074,-9.605537,1.685518,-0.0085223755,-0.01065297,0.009587673,0.0,0.038307227,-0.019153614
1570715649,-0.5506664,-9.629479,1.6903064,-0.009587673,-0.0074570784,0.009587673,-0.04309563,0.01436521,-0.009576807
1570715649,-0.49320555,-9.581595,1.6807296,-0.018110048,-0.009587673,0.0063917814,0.01436521,0.062249243,-0.019153614
1570715649,-0.56982,-9.600749,1.6184803,-0.011718267,-0.0042611877,0.0085223755,-0.05746084,0.04309563,-0.076614454
1570715649,-0.6655881,-9.615114,1.70946,-0.01065297,0.005326485,0.01065297,-0.009576807,0.02873042,-0.0047884034
1570715649,-0.5746084,-9.682152,1.6711528,-0.01065297,0.0021305939,0.0085223755,-0.047884032,0.023942016,0.01436521
1570715649,-0.545878,-9.643845,1.7381904,-0.017044751,0.009587673,0.0074570784,-0.047884032,0.009576807,0.009576807
1570715649,-0.50757074,-9.653421,1.6807296,-0.018110048,0.0042611877,0.014914157,0.01436521,-0.0047884034,0.0
1570715649,-0.62249243,-9.667787,1.5993267,-0.02130594,0.0063917814,0.011718267,-0.1340753,0.019153614,0.0047884034
1570715649,-0.58897364,-9.548077,1.685518,-0.018110048,0.019175345,0.009587673,-0.05746084,0.05267244,0.009576807
1570715649,-0.5554548,-9.648633,1.6424223,-0.019175345,0.015979454,0.0063917814,-0.023942016,0.038307227,0.0047884034
1570715649,-0.59855044,-9.557653,1.6567876,-0.018110048,0.011718267,0.0074570784,-0.02873042,0.02873042,-0.05267244
1570715649,-0.60812724,-9.610326,1.7046716,-0.01065297,0.0063917814,0.0031958907,-0.02873042,0.023942016,0.019153614
1570715649,-0.60812724,-9.667787,1.6184803,-0.0063917814,0.0085223755,0.0074570784,0.02873042,-0.02873042,-0.05746084
1570715649,-0.63206923,-9.639056,1.5897499,-0.02130594,0.009587673,0.0085223755,-0.095768064,-0.062249243,-0.047884032
1570715649,-0.6847417,-9.595961,1.6903064,-0.025567126,0.009587673,0.018110048,-0.110133275,0.009576807,-0.033518825
1570715649,-0.59855044,-9.65821,1.5849615,-0.014914157,0.011718267,0.012783563,-0.05746084,0.038307227,-0.04309563
1570715649,-0.60333884,-9.605537,1.5466543,-0.017044751,0.019175345,0.0074570784,-0.076614454,0.02873042,-0.04309563
1570715649,-0.545878,-9.572019,1.6041151,-0.019175345,0.018110048,0.0063917814,0.0,0.062249243,-0.009576807
1570715650,-0.59855044,-9.667787,1.6328455,-0.015979454,0.02769772,0.0,0.01436521,0.04309563,-0.02873042
1570715650,-0.5602432,-9.634268,1.5897499,-0.011718267,0.018110048,0.0063917814,-0.019153614,0.0047884034,-0.019153614
1570715650,-0.5315128,-9.600749,1.5753847,-0.01384886,0.0021305939,0.01065297,0.033518825,0.05267244,-0.04309563
1570715650,-0.6655881,-9.634268,1.6184803,-0.023436533,0.017044751,0.0021305939,-0.047884032,0.0047884034,-0.01436521
1570715650,-0.62728083,-9.662998,1.661576,-0.012783563,0.01384886,-0.0010652969,-0.01436521,0.038307227,0.009576807
1570715650,-0.6703765,-9.572019,1.4891934,-0.014914157,0.0074570784,0.0074570784,-0.095768064,0.08140286,-0.11492168
1570715650,-0.5793968,-9.572019,1.6280571,-0.01384886,0.018110048,0.0021305939,0.0,0.08140286,0.023942016
1570715650,-0.61770403,-9.595961,1.6232687,-0.0085223755,0.018110048,-0.0031958907,-0.038307227,0.05746084,0.019153614
1570715650,-0.545878,-9.629479,1.5705963,-0.0042611877,0.014914157,-0.0031958907,0.02873042,0.02873042,-0.023942016
1570715650,-0.545878,-9.634268,1.5610195,-0.0042611877,0.009587673,-0.012783563,0.02873042,0.023942016,-0.033518825
1570715650,-0.60812724,-9.595961,1.5562311,0.0010652969,-0.0042611877,-0.0031958907,-0.033518825,0.062249243,-0.038307227
1570715650,-0.59376204,-9.572019,1.5275006,-0.0021305939,-0.0074570784,0.0,-0.019153614,0.08619126,-0.06703765
1570715650,-0.6512229,-9.682152,1.5179238,-0.005326485,-0.0021305939,-0.0074570784,-0.076614454,-0.019153614,-0.076614454
1570715650,-0.63206923,-9.65821,1.5131354,-0.0074570784,-0.005326485,-0.0031958907,-0.05746084,0.0,-0.08140286
1570715650,-0.5363012,-9.562442,1.5705963,-0.0042611877,-0.009587673,0.005326485,0.033518825,0.095768064,-0.019153614
1570715650,-0.60333884,-9.682152,1.5562311,0.0021305939,-0.01065297,-0.0063917814,-0.02873042,-0.019153614,-0.033518825
1570715650,-0.60812724,-9.643845,1.5562311,-0.005326485,0.0042611877,-0.0074570784,-0.038307227,0.01436521,-0.033518825
1570715650,-0.60812724,-9.610326,1.4556746,-0.0031958907,0.0063917814,-0.0085223755,-0.033518825,0.08619126,-0.1340753
1570715650,-0.521936,-9.615114,1.5466543,0.009587673,-0.0063917814,-0.0021305939,0.04309563,0.04309563,-0.04309563
1570715650,-0.62728083,-9.701305,1.532289,0.0031958907,0.0021305939,-0.0085223755,-0.05746084,-0.038307227,-0.05746084
1570715650,-0.5793968,-9.682152,1.5658079,0.0021305939,0.0021305939,-0.011718267,-0.01436521,-0.019153614,-0.023942016
1570715650,-0.60333884,-9.562442,1.5227122,0.0,-0.0010652969,-0.0031958907,-0.038307227,0.095768064,-0.06703765
1570715650,-0.521936,-9.600749,1.5466543,-0.0063917814,0.0042611877,0.0,0.038307227,0.05746084,-0.04309563
1570715650,-0.59855044,-9.643845,1.5801731,0.0021305939,0.0021305939,-0.0031958907,-0.009576807,-0.0047884034,-0.023942016
1570715650,-0.58897364,-9.624691,1.5466543,0.01065297,-0.0021305939,-0.0042611877,-0.04309563,0.047884032,-0.06703765
1570715650,-0.5506664,-9.662998,1.4891934,0.009587673,0.0010652969,-0.009587673,0.009576807,0.0,-0.10534488
1570715650,-0.6943185,-9.682152,1.541866,0.012783563,0.026632423,-0.025567126,-0.095768064,-0.04309563,-0.023942016
1570715650,-0.56982,-9.552865,1.5658079,0.0031958907,0.011718267,-0.015979454,0.0,0.11492168,-0.033518825
1570715650,-0.61770403,-9.706094,1.4939818,0.01065297,0.01384886,-0.014914157,0.0,0.019153614,-0.06703765
1570715650,-0.5793968,-9.648633,1.6280571,0.019175345,0.02450183,-0.018110048,-0.047884032,0.01436521,-0.01436521
1570715650,-0.6464345,-9.619903,1.6328455,0.0063917814,0.020240642,-0.01384886,-0.08140286,0.01436521,0.0047884034
1570715650,-0.49799395,-9.677363,1.6041151,0.012783563,0.009587673,-0.01384886,-0.0047884034,0.05267244,0.01436521
1570715650,-0.5506664,-9.624691,1.4987702,0.0085223755,0.020240642,-0.014914157,0.0047884034,0.019153614,-0.110133275
1570715651,-0.62249243,-9.595961,1.5897499,0.0042611877,0.01384886,-0.0074570784,-0.076614454,0.033518825,-0.019153614
1570715651,-0.59855044,-9.643845,1.5753847,0.009587673,0.0074570784,-0.0042611877,-0.10055647,0.05267244,-0.038307227
1570715651,-0.61770403,-9.730036,1.5275006,0.0031958907,0.0085223755,-0.011718267,-0.05267244,0.01436521,-0.062249243
1570715651,-0.58897364,-9.696517,1.6136919,-0.0074570784,0.0063917814,-0.009587673,-0.05267244,-0.090979666,-0.038307227
1570715651,-0.60333884,-9.56723,1.6376339,-0.0074570784,0.0085223755,0.0,-0.062249243,0.05746084,-0.019153614
1570715651,-0.5363012,-9.557653,1.5658079,0.0,0.019175345,-0.0031958907,-0.009576807,0.12449849,-0.019153614
1570715651,-0.5267244,-9.65821,1.6089035,0.0063917814,0.012783563,-0.011718267,-0.02873042,-0.0047884034,0.009576807
1570715651,-0.51235914,-9.605537,1.6376339,0.005326485,0.012783563,-0.012783563,0.019153614,0.05267244,0.023942016
1570715651,-0.58897364,-9.68694,1.5562311,0.0021305939,0.009587673,-0.011718267,-0.01436521,0.0047884034,-0.047884032
1570715651,-0.5602432,-9.65821,1.5753847,0.0,0.0042611877,-0.009587673,-0.02873042,0.0,-0.02873042
1570715651,-0.60333884,-9.629479,1.5849615,0.0042611877,-0.0042611877,-0.0063917814,-0.07182605,0.02873042,-0.019153614
1570715651,-0.5746084,-9.629479,1.5849615,-0.0021305939,0.0074570784,-0.0042611877,-0.04309563,0.02873042,-0.04309563
1570715651,-0.51235914,-9.619903,1.6328455,-0.0021305939,0.009587673,-0.0010652969,0.01436521,0.038307227,0.023942016
1570715651,-0.5267244,-9.605537,1.5753847,-0.0031958907,-0.009587673,0.0021305939,0.0,0.05267244,-0.02873042
1570715651,-0.63206923,-9.672575,1.6184803,-0.009587673,0.0,-0.0042611877,-0.10055647,-0.009576807,0.009576807
1570715651,-0.59376204,-9.643845,1.5849615,-0.0031958907,0.0031958907,-0.01065297,-0.062249243,0.01436521,-0.01436521
1570715651,-0.5506664,-9.610326,1.5849615,-0.0042611877,0.0042611877,0.0063917814,-0.019153614,0.047884032,-0.01436521
1570715651,-0.5554548,-9.600749,1.6184803,-0.0063917814,0.005326485,0.0031958907,-0.019153614,0.05746084,0.019153614
1570715651,-0.58418524,-9.715671,1.532289,-0.0085223755,-0.0074570784,0.0031958907,-0.047884032,-0.05267244,-0.062249243
1570715651,-0.5602432,-9.672575,1.5466543,-0.005326485,-0.011718267,0.0063917814,-0.023942016,-0.009576807,-0.04309563
1570715651,-0.4261679,-9.5385,1.6280571,0.0,-0.0042611877,0.0,0.10534488,0.11971009,0.033518825
1570715651,-0.4405331,-9.634268,1.6089035,0.0,0.0,-0.0021305939,0.090979666,0.023942016,0.01436521
1570715651,-0.5410896,-9.662998,1.5275006,0.0031958907,-0.009587673,-0.0010652969,-0.047884032,0.0,-0.06703765
1570715651,-0.5410896,-9.629479,1.6184803,0.009587673,-0.01384886,-0.0021305939,-0.0047884034,0.02873042,0.019153614
1570715651,-0.58897364,-9.643845,1.5466543,0.0063917814,-0.0042611877,-0.0031958907,-0.05267244,0.01436521,-0.047884032
1570715651,-0.5746084,-9.739613,1.5227122,-0.0010652969,-0.011718267,-0.0031958907,-0.038307227,-0.076614454,-0.07182605
1570715651,-0.5506664,-9.600749,1.5370775,-0.0042611877,-0.02450183,0.005326485,0.0047884034,0.009576807,-0.076614454
1570715651,-0.59376204,-9.653421,1.5801731,0.0074570784,-0.011718267,0.0085223755,-0.01436521,0.0047884034,-0.01436521
1570715651,-0.58897364,-9.677363,1.5945383,0.005326485,-0.005326485,-0.0010652969,-0.04309563,-0.009576807,-0.04309563
1570715651,-0.5506664,-9.576807,1.5658079,0.0031958907,-0.005326485,-0.0074570784,-0.01436521,0.08140286,-0.033518825
1570715651,-0.58418524,-9.648633,1.6184803,0.009587673,-0.0063917814,0.0010652969,-0.02873042,0.090979666,-0.05746084
1570715651,-0.59376204,-9.672575,1.5466543,0.01384886,-0.0010652969,0.0,-0.08140286,-0.047884032,-0.062249243
1570715651,-0.5315128,-9.619903,1.5753847,0.005326485,0.0,-0.0063917814,-0.05746084,-0.023942016,-0.0047884034
1570715651,-0.5363012,-9.672575,1.5945383,0.005326485,-0.0031958907,-0.009587673,-0.038307227,0.033518825,-0.095768064
1570715652,-0.60812724,-9.682152,1.5801731,0.005326485,-0.0042611877,-0.0031958907,-0.10534488,0.0047884034,-0.019153614
1570715652,-0.61291564,-9.706094,1.6184803,0.0,-0.01065297,0.0063917814,-0.02873042,-0.0047884034,-0.023942016
1570715652,-0.62249243,-9.595961,1.6136919,-0.0021305939,-0.0031958907,0.0010652969,-0.095768064,0.06703765,0.023942016
1570715652,-0.50757074,-9.557653,1.6184803,-0.0085223755,-0.0021305939,0.0010652969,-0.009576807,0.11971009,0.038307227
1570715652,-0.49799395,-9.624691,1.532289,0.0010652969,-0.02450183,0.0074570784,-0.01436521,0.019153614,0.0
1570715652,-0.50278234,-9.715671,1.5945383,-0.0063917814,-0.029828314,0.0074570784,0.019153614,-0.019153614,0.095768064
1570715652,-0.5650316,-9.634268,1.5658079,-0.0063917814,-0.035154797,0.0063917814,-0.01436521,0.08140286,-0.04309563
1570715652,-0.5650316,-9.696517,1.5705963,-0.0010652969,-0.036220096,0.0074570784,-0.047884032,-0.009576807,0.01436521
1570715652,-0.641646,-9.65821,1.6280571,-0.0010652969,-0.035154797,0.009587673,-0.08140286,-0.02873042,0.009576807
1570715652,-0.61291564,-9.605537,1.4796166,-0.0063917814,-0.025567126,0.0074570784,-0.07182605,0.05267244,-0.11971009
1570715652,-0.5410896,-9.572019,1.5897499,0.0010652969,-0.01065297,-0.0063917814,0.0,0.05267244,0.0
1570715652,-0.5506664,-9.643845,1.5945383,0.0063917814,-0.009587673,-0.0063917814,-0.01436521,0.01436521,-0.0047884034
1570715652,-0.5602432,-9.619903,1.6424223,0.009587673,0.0,-0.011718267,0.01436521,0.038307227,-0.04309563
1570715652,-0.545878,-9.65821,1.6041151,0.014914157,-0.0031958907,-0.009587673,0.0,-0.009576807,-0.047884032
1570715652,-0.49799395,-9.629479,1.5849615,0.009587673,-0.0031958907,-0.01065297,0.02873042,0.02873042,-0.023942016
1570715652,-0.5746084,-9.691729,1.6519991,0.0074570784,-0.012783563,-0.009587673,-0.047884032,-0.02873042,0.038307227
1570715652,-0.47884035,-9.710882,1.5753847,0.005326485,-0.017044751,-0.005326485,0.023942016,-0.07182605,-0.009576807
1570715652,-0.545878,-9.615114,1.6663644,-0.0042611877,-0.02450183,0.0085223755,-0.019153614,0.04309563,0.05267244
1570715652,-0.60333884,-9.509769,1.6328455,-0.005326485,-0.02130594,0.01065297,-0.07182605,0.14844051,0.019153614
1570715652,-0.48841715,-9.557653,1.6519991,0.0031958907,-0.005326485,-0.0042611877,0.038307227,0.10055647,0.038307227
1570715652,-0.49799395,-9.595961,1.5849615,0.01384886,-0.0074570784,-0.009587673,0.023942016,0.062249243,-0.023942016
1570715652,-0.47405192,-9.701305,1.5514427,0.01384886,-0.009587673,-0.012783563,0.04309563,-0.04309563,-0.062249243
1570715652,-0.50278234,-9.615114,1.5897499,0.0085223755,-0.0042611877,-0.0063917814,0.01436521,0.038307227,-0.02873042
1570715652,-0.5602432,-9.715671,1.5801731,0.0085223755,-0.005326485,-0.0042611877,-0.038307227,-0.05746084,-0.038307227
1570715652,-0.56982,-9.677363,1.6280571,0.0021305939,0.0021305939,-0.0042611877,-0.05267244,-0.019153614,0.0
1570715652,-0.50757074,-9.65821,1.6136919,0.0031958907,-0.0010652969,0.0,0.0047884034,0.0,-0.009576807
1570715652,-0.48841715,-9.605537,1.6424223,0.0031958907,-0.0063917814,0.0031958907,0.08140286,0.02873042,0.01436521
1570715652,-0.5602432,-9.653421,1.5849615,0.0042611877,-0.0074570784,-0.0042611877,-0.038307227,0.0,-0.038307227
1570715652,-0.49320555,-9.572019,1.6424223,0.0074570784,-0.0021305939,-0.005326485,0.019153614,0.08140286,0.01436521
1570715652,-0.51714754,-9.610326,1.6376339,0.012783563,-0.0063917814,-0.0042611877,-0.019153614,0.038307227,0.019153614
1570715652,-0.5267244,-9.667787,1.6567876,0.0085223755,-0.0031958907,-0.0085223755,-0.009576807,-0.009576807,0.023942016
1570715652,-0.5506664,-9.576807,1.5849615,0.0031958907,0.0031958907,-0.0074570784,-0.04309563,0.05746084,-0.04309563
1570715652,-0.5650316,-9.662998,1.5993267,0.01384886,-0.0042611877,-0.0085223755,-0.05267244,-0.0047884034,-0.033518825
1570715653,-0.6512229,-9.739613,1.6424223,0.0031958907,0.0010652969,-0.014914157,-0.08619126,-0.11492168,0.0
1570715653,-0.5506664,-9.5385,1.6136919,-0.0010652969,0.01384886,0.0,-0.04309563,0.11492168,-0.019153614
1570715653,-0.545878,-9.56723,1.6041151,-0.0042611877,0.020240642,0.0021305939,0.0047884034,0.08140286,-0.038307227
1570715653,-0.5506664,-9.634268,1.6184803,-0.0010652969,0.01384886,-0.01065297,-0.062249243,0.033518825,-0.019153614
1570715653,-0.44532153,-9.581595,1.6376339,0.005326485,0.0063917814,-0.015979454,0.038307227,0.033518825,0.009576807
1570715653,-0.4261679,-9.667787,1.7046716,0.011718267,0.0031958907,-0.0063917814,0.062249243,-0.0047884034,0.047884032
1570715653,-0.51235914,-9.715671,1.6184803,-0.0010652969,-0.0074570784,-0.0042611877,-0.038307227,-0.023942016,0.01436521
1570715653,-0.50757074,-9.533711,1.6759412,-0.005326485,-0.011718267,0.0031958907,-0.02873042,0.08140286,-0.033518825
1570715653,-0.47884035,-9.595961,1.6903064,-0.0010652969,-0.0031958907,0.0021305939,0.0047884034,0.095768064,0.023942016
1570715653,-0.50278234,-9.725247,1.6663644,-0.0031958907,-0.009587673,-0.0031958907,0.0,-0.05746084,0.0047884034
1570715653,-0.47405192,-9.610326,1.661576,-0.012783563,-0.0042611877,-0.0021305939,-0.009576807,0.033518825,0.02873042
1570715653,-0.521936,-9.600749,1.6567876,-0.0042611877,-0.0085223755,0.0042611877,-0.009576807,0.05746084,0.033518825
1570715653,-0.5746084,-9.615114,1.661576,-0.0010652969,0.0,0.0010652969,-0.038307227,0.023942016,0.0
1570715653,-0.50757074,-9.624691,1.6184803,-0.005326485,-0.0021305939,-0.0031958907,0.0,0.02873042,-0.009576807
1570715653,-0.50757074,-9.605537,1.6136919,-0.0042611877,0.0021305939,-0.0010652969,0.0,0.047884032,-0.01436521
1570715653,-0.521936,-9.730036,1.6903064,0.0,-0.0042611877,-0.0021305939,-0.01436521,-0.07182605,0.05746084
1570715653,-0.5315128,-9.706094,1.5849615,-0.009587673,-0.0074570784,0.0074570784,-0.023942016,-0.047884032,-0.04309563
1570715653,-0.47405192,-9.500193,1.6136919,-0.015979454,-0.0042611877,0.01384886,0.02873042,0.15322891,-0.009576807
1570715653,-0.44532153,-9.639056,1.685518,-0.0074570784,0.0010652969,0.0021305939,0.062249243,0.01436521,0.062249243
1570715653,-0.51714754,-9.619903,1.5945383,-0.005326485,-0.0031958907,-0.0021305939,-0.0047884034,0.038307227,-0.023942016
1570715653,-0.46926352,-9.605537,1.6472107,0.0,-0.011718267,0.0021305939,0.038307227,0.05267244,0.023942016
1570715653,-0.48841715,-9.682152,1.6759412,-0.0021305939,-0.01065297,0.0,0.019153614,-0.019153614,0.05267244
1570715653,-0.51235914,-9.677363,1.6041151,-0.0074570784,-0.01384886,0.0074570784,0.0,-0.01436521,-0.01436521
1570715653,-0.59376204,-9.56723,1.5753847,-0.011718267,-0.01384886,0.011718267,-0.08140286,0.090979666,-0.038307227
1570715653,-0.5315128,-9.667787,1.541866,-0.0063917814,-0.0074570784,0.009587673,-0.01436521,-0.0047884034,-0.07182605
1570715653,-0.58897364,-9.605537,1.5610195,-0.0042611877,0.0063917814,0.0031958907,-0.07182605,0.05267244,-0.047884032
1570715653,-0.50757074,-9.65821,1.6567876,-0.0085223755,-0.0042611877,0.0021305939,0.009576807,0.0,0.04309563
1570715653,-0.5602432,-9.701305,1.5658079,-0.0021305939,0.0031958907,0.0010652969,-0.038307227,-0.038307227,-0.04309563
1570715653,-0.521936,-9.56723,1.5993267,-0.0074570784,-0.0010652969,0.005326485,-0.02873042,0.062249243,-0.019153614
1570715653,-0.51714754,-9.615114,1.5705963,-0.005326485,-0.0021305939,0.005326485,0.0,0.04309563,-0.033518825
1570715653,-0.46447513,-9.648633,1.5945383,-0.0031958907,0.005326485,-0.0010652969,0.05267244,0.009576807,-0.009576807
1570715653,-0.5315128,-9.691729,1.5849615,-0.0063917814,-0.0010652969,-0.0031958907,-0.009576807,-0.02873042,-0.019153614
1570715653,-0.545878,-9.677363,1.5466543,-0.011718267,0.0021305939,0.0085223755,-0.023942016,-0.01436521,-0.05267244
1570715654,-0.59376204,-9.56723,1.6136919,-0.0085223755,0.01384886,0.0063917814,-0.06703765,0.090979666,0.009576807
1570715654,-0.5315128,-9.619903,1.5849615,-0.0074570784,0.015979454,0.0010652969,-0.009576807,0.095768064,-0.0047884034
1570715654,-0.5506664,-9.586384,1.5275006,-0.005326485,0.014914157,-0.009587673,-0.095768064,0.01436521,-0.023942016
1570715654,-0.521936,-9.624691,1.5849615,0.0021305939,0.01384886,-0.0063917814,-0.05267244,0.04309563,0.0
1570715654,-0.5410896,-9.610326,1.6232687,0.0010652969,0.0031958907,0.0010652969,0.05267244,0.023942016,-0.019153614
1570715654,-0.59376204,-9.691729,1.5658079,-0.0074570784,0.0021305939,0.0010652969,-0.038307227,-0.05746084,-0.095768064
1570715654,-0.5746084,-9.667787,1.5562311,-0.009587673,-0.0010652969,0.0042611877,-0.08619126,-0.019153614,-0.04309563
1570715654,-0.61770403,-9.648633,1.541866,-0.01065297,-0.0085223755,0.0085223755,-0.05746084,0.023942016,-0.009576807
1570715654,-0.545878,-9.605537,1.4796166,-0.0042611877,-0.0031958907,0.0074570784,-0.009576807,0.023942016,-0.08619126
1570715654,-0.521936,-9.624691,1.532289,-0.0042611877,0.0,-0.0031958907,-0.009576807,0.05267244,0.019153614
1570715654,-0.51235914,-9.65821,1.5610195,-0.0010652969,0.0063917814,-0.0042611877,-0.033518825,0.05267244,-0.023942016
1570715654,-0.56982,-9.643845,1.5562311,-0.0010652969,0.011718267,-0.0021305939,-0.05746084,0.01436521,0.0
1570715654,-0.51235914,-9.639056,1.5801731,0.0021305939,0.0042611877,-0.0021305939,-0.06703765,0.047884032,-0.023942016
1570715654,-0.545878,-9.65821,1.5466543,-0.0010652969,0.01384886,-0.0042611877,0.05746084,0.04309563,-0.08140286
1570715654,-0.61291564,-9.715671,1.532289,-0.0010652969,0.0,-0.0042611877,-0.019153614,-0.076614454,-0.009576807
1570715654,-0.5267244,-9.639056,1.5179238,-0.0021305939,-0.0010652969,0.0042611877,0.038307227,-0.019153614,-0.01436521
1570715654,-0.6655881,-9.605537,1.5658079,-0.0010652969,0.0031958907,0.0031958907,-0.07182605,0.02873042,-0.062249243
1570715654,-0.5315128,-9.581595,1.5466543,-0.0042611877,0.0042611877,0.0,-0.019153614,0.06703765,-0.038307227
1570715654,-0.59376204,-9.619903,1.5658079,0.005326485,0.0042611877,-0.0074570784,-0.04309563,0.07182605,-0.038307227
1570715654,-0.50278234,-9.634268,1.5801731,0.01065297,0.0042611877,-0.01384886,0.02873042,0.02873042,0.0
1570715654,-0.5267244,-9.682152,1.6136919,0.0042611877,-0.0042611877,-0.0085223755,0.0,-0.01436521,0.02873042
1570715654,-0.49799395,-9.706094,1.5658079,0.0031958907,-0.014914157,0.0021305939,0.02873042,-0.038307227,-0.01436521
1570715654,-0.5602432,-9.624691,1.5945383,-0.0010652969,-0.012783563,0.0031958907,-0.02873042,0.038307227,0.0047884034
1570715654,-0.58897364,-9.586384,1.5562311,0.0,-0.012783563,0.0021305939,-0.05746084,0.076614454,-0.023942016
1570715654,-0.60333884,-9.624691,1.5370775,0.0031958907,-0.0042611877,-0.0021305939,-0.07182605,0.038307227,-0.047884032
1570715654,-0.56982,-9.643845,1.5849615,0.0085223755,-0.0063917814,-0.0042611877,-0.038307227,0.019153614,0.0
1570715654,-0.48362875,-9.624691,1.5945383,0.0031958907,-0.0063917814,-0.0085223755,0.038307227,0.033518825,0.0047884034
1570715654,-0.5554548,-9.572019,1.5753847,0.005326485,-0.0021305939,-0.009587673,-0.02873042,0.08619126,-0.009576807
1570715654,-0.5363012,-9.648633,1.5897499,0.012783563,-0.0074570784,-0.0031958907,-0.009576807,0.009576807,0.0
1570715654,-0.49799395,-9.653421,1.5562311,0.0085223755,-0.012783563,0.0,0.023942016,0.0047884034,-0.033518825
1570715654,-0.56982,-9.682152,1.5897499,0.0010652969,-0.014914157,-0.0063917814,-0.047884032,-0.019153614,-0.0047884034
1570715654,-0.5746084,-9.667787,1.5753847,0.0063917814,-0.01065297,-0.005326485,-0.05267244,-0.0047884034,-0.019153614
1570715654,-0.59855044,-9.696517,1.5993267,0.005326485,-0.0074570784,-0.0010652969,-0.07182605,-0.08140286,-0.01436521
1570715654,-0.5793968,-9.634268,1.5610195,0.0021305939,0.0,-0.0021305939,-0.05746084,0.023942016,-0.033518825
1570715655,-0.545878,-9.624691,1.5993267,0.0010652969,0.0,-0.0074570784,-0.023942016,0.033518825,0.0
1570715655,-0.521936,-9.595961,1.5945383,0.011718267,0.0031958907,-0.012783563,-0.0047884034,0.062249243,-0.0047884034
1570715655,-0.46926352,-9.634268,1.6089035,0.009587673,-0.005326485,-0.015979454,0.08619126,0.04309563,0.0
1570715655,-0.521936,-9.672575,1.5849615,0.0063917814,-0.01384886,-0.009587673,0.023942016,0.033518825,-0.009576807
1570715655,-0.51235914,-9.662998,1.5945383,0.0063917814,-0.011718267,0.0021305939,0.0,0.0,-0.009576807
1570715655,-0.5650316,-9.605537,1.6184803,0.0042611877,-0.02450183,0.0031958907,-0.009576807,0.08140286,0.01436521
1570715655,-0.521936,-9.634268,1.5514427,0.0010652969,-0.02130594,-0.005326485,0.033518825,0.009576807,-0.01436521
1570715655,-0.50757074,-9.591172,1.6328455,0.0074570784,-0.01384886,-0.0085223755,0.033518825,0.033518825,0.023942016
1570715655,-0.5267244,-9.56723,1.5610195,0.011718267,-0.019175345,-0.0074570784,0.05267244,0.10534488,-0.0047884034
1570715655,-0.5267244,-9.677363,1.6232687,0.018110048,-0.01065297,-0.012783563,0.0047884034,0.009576807,-0.023942016
1570715655,-0.5267244,-9.634268,1.5801731,0.01065297,0.0,-0.011718267,-0.04309563,0.01436521,-0.05267244
1570715655,-0.51235914,-9.615114,1.5705963,0.011718267,-0.0042611877,-0.0085223755,-0.047884032,0.038307227,-0.023942016
1570715655,-0.50757074,-9.639056,1.5993267,0.01065297,-0.005326485,-0.0063917814,0.0,0.02873042,-0.047884032
1570715655,-0.45968673,-9.629479,1.6184803,0.01384886,0.0031958907,-0.01384886,0.02873042,0.019153614,-0.06703765
1570715655,-0.5315128,-9.662998,1.6472107,0.0074570784,-0.0074570784,-0.0074570784,-0.038307227,0.0,0.04309563
1570715655,-0.41180268,-9.586384,1.5514427,0.0063917814,-0.0042611877,-0.0042611877,0.019153614,0.05267244,-0.033518825
1570715655,-0.4357447,-9.639056,1.6136919,0.012783563,-0.0074570784,-0.0085223755,0.0047884034,0.023942016,-0.033518825
1570715655,-0.5410896,-9.653421,1.6424223,0.015979454,-0.0021305939,-0.012783563,-0.04309563,0.009576807,-0.01436521
1570715655,-0.46926352,-9.591172,1.6280571,0.02130594,-0.0042611877,-0.015979454,-0.033518825,0.038307227,-0.019153614
1570715655,-0.50278234,-9.639056,1.5849615,0.015979454,-0.0042611877,-0.01384886,-0.02873042,0.023942016,-0.04309563
1570715655,-0.5602432,-9.68694,1.5849615,0.012783563,-0.0042611877,-0.0085223755,-0.07182605,-0.038307227,-0.05267244
1570715655,-0.51714754,-9.595961,1.6089035,0.009587673,-0.0063917814,-0.0010652969,-0.10534488,-0.0047884034,-0.01436521
1570715655,-0.49320555,-9.605537,1.6376339,0.009587673,-0.01065297,-0.0063917814,-0.05267244,0.07182605,-0.02873042
1570715655,-0.50757074,-9.706094,1.5753847,0.0085223755,0.0063917814,-0.01065297,-0.033518825,-0.047884032,-0.076614454
1570715655,-0.5554548,-9.682152,1.6950948,0.0074570784,-0.011718267,-0.0063917814,-0.009576807,-0.033518825,0.023942016
1570715655,-0.50757074,-9.68694,1.6663644,0.0074570784,-0.015979454,0.0,-0.038307227,-0.02873042,0.0047884034
1570715655,-0.4357447,-9.581595,1.70946,0.0021305939,-0.0010652969,-0.005326485,0.02873042,0.07182605,0.047884032
1570715655,-0.45489833,-9.624691,1.70946,0.005326485,-0.012783563,0.0010652969,-0.009576807,0.05746084,0.076614454
1570715655,-0.4261679,-9.677363,1.7046716,0.005326485,-0.0063917814,0.0,0.038307227,-0.023942016,0.038307227
1570715655,-0.51714754,-9.610326,1.6759412,0.0063917814,-0.0031958907,-0.01065297,-0.047884032,0.038307227,0.009576807
1570715655,-0.5315128,-9.662998,1.7238252,0.0021305939,-0.01384886,-0.0021305939,-0.062249243,-0.009576807,0.05746084
1570715655,-0.49799395,-9.619903,1.6472107,0.0074570784,-0.0085223755,0.0085223755,-0.02873042,0.02873042,-0.01436521
1570715655,-0.38307226,-9.605537,1.7477672,-0.0010652969,0.0085223755,-0.0085223755,0.08140286,0.04309563,0.076614454
1570715656,-0.4357447,-9.643845,1.7142484,0.005326485,-0.0021305939,-0.0085223755,0.023942016,0.0047884034,0.047884032
1570715656,-0.46926352,-9.634268,1.6759412,0.01065297,-0.0021305939,-0.0042611877,-0.0047884034,0.01436521,0.0047884034
1570715656,-0.45010993,-9.667787,1.7046716,0.0063917814,0.0042611877,-0.01384886,0.009576807,-0.01436521,0.02873042
1570715656,-0.44532153,-9.572019,1.7190368,0.0042611877,0.0010652969,-0.0063917814,0.009576807,0.076614454,0.04309563
1570715656,-0.4309563,-9.619903,1.6807296,0.0063917814,-0.0021305939,-0.0021305939,0.023942016,0.02873042,0.0047884034
1570715656,-0.45010993,-9.672575,1.6998832,0.0010652969,0.0,-0.0074570784,0.0047884034,-0.019153614,0.023942016
1570715656,-0.4405331,-9.576807,1.6759412,0.0010652969,0.0010652969,-0.0063917814,-0.01436521,0.04309563,0.038307227
1570715656,-0.48841715,-9.648633,1.6903064,0.0031958907,-0.005326485,0.0,-0.033518825,0.0,0.01436521
1570715656,-0.45010993,-9.643845,1.6903064,0.0031958907,-0.0031958907,-0.0031958907,0.0047884034,-0.01436521,0.05746084
1570715656,-0.50278234,-9.624691,1.661576,-0.0010652969,0.005326485,-0.0021305939,-0.02873042,0.0047884034,-0.01436521
1570715656,-0.4357447,-9.576807,1.6663644,0.0,0.0010652969,-0.0042611877,-0.05746084,0.095768064,0.023942016
1570715656,-0.46447513,-9.634268,1.6519991,0.0031958907,0.009587673,-0.0021305939,-0.0047884034,0.04309563,-0.0047884034
1570715656,-0.51714754,-9.662998,1.6807296,0.0,0.014914157,-0.009587673,-0.095768064,-0.019153614,-0.038307227
1570715656,-0.49799395,-9.600749,1.733402,-0.0042611877,0.018110048,-0.0021305939,-0.0047884034,0.038307227,-0.02873042
1570715656,-0.46926352,-9.696517,1.6950948,0.0010652969,0.009587673,0.0063917814,0.0,-0.05746084,0.0
1570715656,-0.45489833,-9.653421,1.6328455,-0.0074570784,0.022371236,0.0021305939,0.033518825,-0.033518825,-0.05746084
1570715656,-0.51714754,-9.581595,1.6663644,0.0,0.0063917814,0.0031958907,0.0047884034,0.038307227,0.009576807
1570715656,-0.45489833,-9.634268,1.6328455,0.0031958907,0.009587673,0.0,-0.0047884034,0.033518825,-0.10055647
1570715656,-0.46926352,-9.610326,1.6998832,0.0031958907,0.0063917814,-0.0042611877,-0.0047884034,0.023942016,0.009576807
1570715656,-0.45968673,-9.639056,1.685518,0.009587673,0.0010652969,0.0031958907,0.0,0.023942016,0.02873042
1570715656,-0.5315128,-9.624691,1.6424223,0.0,0.0031958907,0.0010652969,-0.047884032,-0.047884032,-0.01436521
1570715656,-0.521936,-9.691729,1.6424223,-0.0042611877,-0.0021305939,0.01065297,-0.02873042,0.0047884034,0.047884032
1570715656,-0.48841715,-9.610326,1.7046716,-0.0074570784,0.0031958907,0.012783563,-0.019153614,0.038307227,0.02873042
1570715656,-0.47884035,-9.595961,1.6472107,0.0,0.005326485,0.0010652969,0.009576807,-0.019153614,0.04309563
1570715656,-0.51235914,-9.672575,1.7621324,-0.0021305939,0.011718267,0.0031958907,-0.038307227,-0.019153614,0.08619126
1570715656,-0.49799395,-9.624691,1.6519991,-0.0042611877,0.0021305939,0.0063917814,0.0,0.01436521,0.01436521
1570715656,-0.49320555,-9.629479,1.6232687,-0.0010652969,0.012783563,0.0010652969,-0.01436521,0.019153614,-0.04309563
1570715656,-0.45010993,-9.572019,1.6807296,0.0021305939,0.0042611877,0.0,0.023942016,0.076614454,0.009576807
1570715656,-0.39264908,-9.586384,1.7525556,0.0042611877,-0.009587673,0.0021305939,0.08140286,0.062249243,0.076614454
1570715656,-0.4405331,-9.634268,1.6998832,0.0031958907,0.0021305939,-0.009587673,0.033518825,0.01436521,0.023942016
1570715656,-0.5267244,-9.619903,1.7286136,0.0021305939,-0.018110048,0.005326485,-0.05267244,0.02873042,0.05267244
1570715656,-0.47405192,-9.600749,1.661576,-0.005326485,-0.005326485,0.0063917814,0.0,0.047884032,-0.009576807
1570715656,-0.49320555,-9.691729,1.6472107,0.0031958907,-0.0063917814,0.0010652969,-0.01436521,-0.038307227,-0.023942016
1570715657,-0.50278234,-9.648633,1.6519991,-0.0021305939,-0.01065297,0.0021305939,-0.023942016,0.0,-0.019153614
1570715657,-0.48841715,-9.648633,1.6136919,-0.009587673,-0.0063917814,0.0010652969,-0.009576807,0.0,-0.05746084
1570715657,-0.521936,-9.600749,1.6807296,-0.009587673,-0.0042611877,0.0021305939,-0.04309563,0.047884032,0.009576807
1570715657,-0.51235914,-9.667787,1.6663644,-0.0031958907,-0.0063917814,0.009587673,-0.033518825,-0.01436521,0.0
1570715657,-0.47405192,-9.672575,1.6567876,-0.0085223755,-0.009587673,0.0074570784,0.0047884034,-0.019153614,-0.009576807
1570715657,-0.46447513,-9.615114,1.6567876,-0.017044751,-0.0031958907,0.0010652969,0.01436521,0.033518825,-0.0047884034
1570715657,-0.44532153,-9.610326,1.6711528,-0.011718267,-0.011718267,0.009587673,0.033518825,0.038307227,0.009576807
1570715657,-0.545878,-9.634268,1.6950948,-0.0031958907,-0.01384886,0.011718267,-0.05746084,0.01436521,0.033518825
1570715657,-0.48362875,-9.619903,1.6328455,-0.0074570784,-0.009587673,0.0031958907,0.0,0.02873042,-0.023942016
1570715657,-0.50278234,-9.562442,1.6807296,-0.0042611877,-0.0063917814,-0.0010652969,-0.01436521,0.090979666,0.023942016
1570715657,-0.46926352,-9.648633,1.6376339,0.0031958907,-0.0063917814,0.0,-0.038307227,0.023942016,0.019153614
1570715657,-0.61770403,-9.662998,1.6472107,-0.0031958907,0.0042611877,0.009587673,-0.08619126,-0.05267244,-0.038307227
1570715657,-0.63206923,-9.68694,1.6280571,-0.0074570784,0.0,0.0021305939,-0.15322891,-0.01436521,-0.02873042
1570715657,-0.5506664,-9.672575,1.7286136,-0.0074570784,0.0063917814,-0.0021305939,-0.023942016,-0.023942016,0.0047884034
1570715657,-0.5267244,-9.595961,1.5849615,-0.0042611877,0.02130594,0.0010652969,-0.04309563,0.07182605,-0.05746084
1570715657,-0.4405331,-9.5385,1.6376339,-0.0031958907,0.025567126,0.0010652969,0.019153614,0.08140286,0.0
1570715657,-0.51714754,-9.557653,1.6519991,0.0,0.0031958907,-0.0063917814,-0.038307227,0.090979666,-0.009576807
1570715657,-0.46447513,-9.624691,1.6663644,0.009587673,0.01065297,-0.018110048,0.0,0.009576807,-0.02873042
1570715657,-0.46926352,-9.624691,1.5753847,0.01384886,0.0042611877,-0.011718267,0.009576807,0.023942016,0.01436521
1570715657,-0.48841715,-9.691729,1.6184803,0.0063917814,-0.01384886,0.0031958907,0.01436521,-0.009576807,-0.090979666
1570715657,-0.5746084,-9.701305,1.6376339,-0.012783563,-0.0021305939,-0.0063917814,-0.076614454,-0.07182605,-0.047884032
1570715657,-0.5410896,-9.639056,1.6232687,-0.009587673,-0.0042611877,0.0010652969,-0.05267244,0.023942016,-0.02873042
1570715657,-0.47405192,-9.528923,1.6280571,-0.0063917814,-0.01384886,0.012783563,0.023942016,0.110133275,-0.009576807
1570715657,-0.48841715,-9.591172,1.7142484,-0.0063917814,-0.015979454,0.0042611877,-0.02873042,0.076614454,0.01436521
1570715657,-0.5363012,-9.65821,1.6759412,-0.0063917814,-0.011718267,-0.005326485,-0.0047884034,-0.04309563,0.038307227
1570715657,-0.5410896,-9.591172,1.5753847,0.0063917814,-0.011718267,0.0021305939,-0.033518825,0.07182605,-0.009576807
1570715657,-0.50278234,-9.643845,1.6136919,0.0074570784,-0.009587673,0.0010652969,-0.062249243,0.0,-0.01436521
1570715657,-0.545878,-9.643845,1.6232687,0.0031958907,-0.01065297,-0.0031958907,-0.05746084,0.009576807,-0.07182605
1570715657,-0.5746084,-9.643845,1.6663644,-0.005326485,-0.011718267,0.0031958907,-0.08619126,0.047884032,-0.023942016
1570715657,-0.46447513,-9.691729,1.5897499,0.005326485,-0.009587673,0.0,0.019153614,-0.033518825,-0.062249243
1570715657,-0.521936,-9.639056,1.6376339,0.0010652969,-0.0063917814,0.0,-0.02873042,0.01436521,-0.01436521
1570715657,-0.47884035,-9.629479,1.6328455,-0.0074570784,-0.009587673,0.0031958907,0.01436521,0.062249243,0.009576807
1570715657,-0.46447513,-9.557653,1.5849615,0.0021305939,-0.01384886,0.0074570784,0.023942016,0.095768064,-0.062249243
1570715657,-0.48841715,-9.586384,1.6280571,0.0085223755,-0.0085223755,-0.0021305939,0.0,0.06703765,-0.019153614
1570715658,-0.47884035,-9.691729,1.6903064,0.0042611877,-0.015979454,-0.0031958907,0.009576807,-0.033518825,0.033518825
1570715658,-0.5793968,-9.591172,1.5658079,0.005326485,-0.0063917814,-0.0010652969,-0.090979666,0.062249243,-0.08619126
1570715658,-0.5650316,-9.653421,1.6663644,0.011718267,-0.0031958907,-0.0042611877,-0.076614454,0.0,0.0047884034
1570715658,-0.58897364,-9.643845,1.6807296,0.0063917814,-0.0031958907,-0.0063917814,-0.10055647,0.0047884034,0.019153614
1570715658,-0.5506664,-9.653421,1.5897499,0.0063917814,-0.0042611877,-0.0085223755,-0.062249243,0.0,-0.06703765
1570715658,-0.48841715,-9.586384,1.6328455,0.0074570784,0.0031958907,-0.0031958907,0.0,0.062249243,-0.023942016
1570715658,-0.5267244,-9.600749,1.6567876,0.01065297,-0.005326485,-0.005326485,-0.07182605,0.0,-0.0047884034
1570715658,-0.50278234,-9.629479,1.6807296,0.0042611877,-0.0063917814,-0.0085223755,-0.019153614,0.019153614,0.01436521
1570715658,-0.46447513,-9.615114,1.6232687,0.0063917814,0.0021305939,-0.005326485,0.01436521,0.033518825,-0.038307227
1570715658,-0.45968673,-9.619903,1.661576,0.0031958907,-0.005326485,-0.0021305939,0.019153614,0.02873042,-0.0047884034
1570715658,-0.5315128,-9.615114,1.7190368,-0.0031958907,-0.009587673,0.0,-0.047884032,0.033518825,0.05267244
1570715658,-0.49799395,-9.639056,1.70946,0.0021305939,0.0021305939,-0.005326485,-0.038307227,0.07182605,0.02873042
1570715658,-0.50278234,-9.65821,1.685518,-0.0010652969,-0.0021305939,-0.0021305939,-0.019153614,-0.0047884034,0.01436521
1570715658,-0.4309563,-9.543288,1.6711528,-0.0063917814,0.0,0.0,0.05267244,0.15322891,0.009576807
1570715658,-0.50757074,-9.605537,1.70946,0.0063917814,0.0021305939,-0.0042611877,-0.023942016,0.04309563,0.04309563
1570715658,-0.49799395,-9.643845,1.7621324,0.0074570784,-0.0010652969,-0.01065297,-0.019153614,0.0047884034,0.090979666
1570715658,-0.48841715,-9.591172,1.6567876,0.0042611877,0.0021305939,-0.009587673,0.0,0.08140286,0.0047884034
1570715658,-0.50757074,-9.701305,1.661576,0.0063917814,-0.0042611877,-0.0085223755,-0.01436521,0.009576807,-0.009576807
1570715658,-0.5315128,-9.710882,1.6328455,0.0074570784,-0.0063917814,-0.005326485,-0.019153614,-0.076614454,-0.095768064
1570715658,-0.49799395,-9.533711,1.6232687,0.0010652969,-0.0085223755,-0.0021305939,-0.07182605,0.05746084,-0.033518825
1570715658,-0.49799395,-9.586384,1.5993267,0.0042611877,-0.015979454,0.0010652969,0.0047884034,0.047884032,-0.01436521
1570715658,-0.5410896,-9.691729,1.6950948,0.005326485,-0.009587673,0.0010652969,-0.033518825,-0.009576807,-0.023942016
1570715658,-0.4405331,-9.619903,1.661576,0.0010652969,-0.01065297,-0.0021305939,0.0,0.0047884034,-0.04309563
1570715658,-0.56982,-9.615114,1.6472107,0.0010652969,-0.014914157,-0.0042611877,-0.019153614,0.07182605,-0.04309563
1570715658,-0.47405192,-9.610326,1.6567876,0.005326485,-0.014914157,-0.0021305939,-0.019153614,0.062249243,0.0
1570715658,-0.47405192,-9.615114,1.6903064,0.0042611877,-0.012783563,-0.0031958907,-0.05267244,0.019153614,0.01436521
1570715658,-0.51714754,-9.615114,1.6759412,0.009587673,-0.011718267,-0.005326485,-0.009576807,0.023942016,-0.0047884034
1570715658,-0.45968673,-9.629479,1.6280571,0.005326485,-0.017044751,-0.0063917814,0.0,0.038307227,-0.019153614
1570715658,-0.51235914,-9.5385,1.7046716,0.0,-0.009587673,0.0,-0.06703765,0.062249243,0.033518825
1570715658,-0.51235914,-9.5385,1.7046716,0.0,-0.009587673,0.0,-0.06703765,0.062249243,0.033518825
1570715658,-0.47884035,-9.605537,1.6711528,0.0010652969,-0.0074570784,-0.011718267,0.038307227,0.076614454,-0.04309563
1570715658,-0.521936,-9.629479,1.6950948,0.0031958907,-0.0031958907,-0.018110048,-0.062249243,0.019153614,0.0
1570715658,-0.47884035,-9.682152,1.6903064,0.009587673,-0.005326485,-0.015979454,-0.009576807,0.0047884034,0.0
1570715659,-0.45968673,-9.691729,1.6424223,0.005326485,0.0021305939,-0.01065297,-0.02873042,-0.0047884034,-0.062249243
1570715659,-0.50757074,-9.696517,1.6663644,0.0074570784,-0.0021305939,-0.005326485,-0.05746084,-0.01436521,-0.04309563
1570715659,-0.5315128,-9.643845,1.6089035,0.0031958907,0.0074570784,-0.005326485,-0.08140286,0.0047884034,-0.076614454
1570715659,-0.44532153,-9.677363,1.7190368,0.0,0.0074570784,-0.0074570784,-0.08140286,0.047884032,-0.02873042
1570715659,-0.45010993,-9.533711,1.7046716,0.0021305939,0.009587673,-0.0085223755,0.0,0.11492168,0.01436521
1570715659,-0.48362875,-9.591172,1.7525556,0.0042611877,0.0021305939,-0.0063917814,-0.033518825,0.05746084,0.062249243
1570715659,-0.4405331,-9.667787,1.7621324,0.009587673,-0.0031958907,-0.009587673,0.0,-0.01436521,0.07182605
1570715659,-0.51235914,-9.648633,1.661576,0.0074570784,0.009587673,-0.01065297,-0.06703765,0.0,-0.02873042
1570715659,-0.46926352,-9.552865,1.757344,0.01384886,0.0063917814,-0.0042611877,-0.023942016,0.095768064,0.062249243
1570715659,-0.4405331,-9.639056,1.6567876,0.01384886,-0.0031958907,-0.0074570784,0.0,0.0047884034,-0.038307227
1570715659,-0.59855044,-9.653421,1.6807296,0.0063917814,0.014914157,-0.0063917814,-0.15801731,-0.0047884034,-0.019153614
1570715659,-0.47405192,-9.610326,1.7142484,0.0,0.017044751,0.0010652969,-0.02873042,0.033518825,0.009576807
1570715659,-0.545878,-9.677363,1.5993267,-0.0042611877,0.025567126,0.009587673,-0.10055647,-0.02873042,-0.095768064
1570715659,-0.4405331,-9.56723,1.6950948,0.0010652969,0.029828314,-0.0010652969,0.0047884034,0.076614454,0.0
1570715659,-0.46926352,-9.528923,1.6663644,-0.0021305939,0.046873067,-0.0085223755,-0.019153614,0.11492168,-0.02873042
1570715659,-0.46926352,-9.639056,1.7621324,0.01384886,0.02769772,-0.005326485,-0.019153614,0.0047884034,0.062249243
1570715659,-0.35913026,-9.629479,1.7046716,0.01384886,0.02769772,-0.009587673,0.095768064,0.0,-0.02873042
1570715659,-0.39743748,-9.629479,1.7764976,0.0042611877,0.01384886,-0.005326485,0.047884032,0.01436521,0.07182605
1570715659,-0.45010993,-9.615114,1.70946,0.0021305939,0.0031958907,0.0031958907,0.0,0.02873042,0.0047884034
1570715659,-0.48362875,-9.600749,1.6950948,-0.0010652969,0.009587673,0.019175345,-0.02873042,0.04309563,-0.0047884034
1570715659,-0.44532153,-9.68694,1.6424223,0.0021305939,-0.0042611877,0.011718267,0.009576807,-0.038307227,-0.05746084
1570715659,-0.45010993,-9.710882,1.6184803,-0.011718267,0.01384886,0.0010652969,0.0,-0.076614454,-0.009576807
1570715659,-0.50278234,-9.548077,1.7717092,-0.0074570784,0.0074570784,0.005326485,-0.019153614,0.038307227,0.019153614
1570715659,-0.4213795,-9.543288,1.7429788,0.0042611877,-0.0010652969,0.005326485,0.009576807,0.05746084,0.033518825
1570715659,-0.4165911,-9.648633,1.6663644,0.009587673,0.01065297,-0.0010652969,0.062249243,-0.009576807,0.038307227
1570715659,-0.38307226,-9.634268,1.7908629,0.0031958907,0.009587673,-0.0042611877,0.02873042,0.0,0.009576807
1570715659,-0.45489833,-9.557653,1.7238252,-0.0010652969,-0.009587673,0.0021305939,0.047884032,0.07182605,0.01436521
1570715659,-0.40222588,-9.730036,1.7429788,0.012783563,-0.014914157,-0.0010652969,0.033518825,-0.047884032,0.033518825
1570715659,-0.521936,-9.65821,1.70946,0.0063917814,-0.012783563,0.0031958907,0.019153614,-0.038307227,0.0
1570715659,-0.44532153,-9.557653,1.7190368,-0.0031958907,-0.020240642,0.005326485,-0.023942016,0.090979666,0.0
1570715659,-0.45968673,-9.610326,1.6519991,0.0042611877,-0.018110048,0.0021305939,0.047884032,0.038307227,0.0
1570715659,-0.545878,-9.634268,1.6232687,0.009587673,-0.018110048,-0.0042611877,-0.06703765,0.033518825,-0.033518825
1570715659,-0.5746084,-9.624691,1.7477672,0.01065297,-0.020240642,-0.0063917814,-0.05746084,0.038307227,0.023942016
1570715660,-0.48841715,-9.619903,1.7142484,0.009587673,-0.02769772,-0.0063917814,-0.033518825,0.023942016,0.0
1570715660,-0.48841715,-9.672575,1.6759412,0.011718267,-0.03089361,0.0031958907,-0.033518825,0.0,-0.07182605
1570715660,-0.46926352,-9.667787,1.7621324,0.0042611877,-0.029828314,0.0,-0.05746084,-0.05746084,0.033518825
1570715660,-0.48362875,-9.619903,1.6519991,0.0031958907,-0.034089502,0.0031958907,-0.02873042,0.038307227,-0.033518825
1570715660,-0.5650316,-9.5385,1.7142484,0.005326485,-0.03089361,0.0085223755,-0.110133275,0.10055647,-0.009576807
1570715660,-0.4405331,-9.600749,1.7286136,0.0031958907,-0.026632423,-0.0031958907,0.009576807,0.038307227,0.0
1570715660,-0.51714754,-9.667787,1.757344,0.0085223755,-0.023436533,-0.0085223755,-0.06703765,-0.023942016,0.023942016
1570715660,-0.4405331,-9.586384,1.6903064,0.012783563,-0.018110048,-0.005326485,0.0047884034,0.05267244,-0.038307227
1570715660,-0.51714754,-9.562442,1.7717092,0.012783563,-0.022371236,-0.005326485,-0.07182605,0.076614454,0.033518825
1570715660,-0.48841715,-9.639056,1.7046716,0.012783563,-0.01065297,-0.01065297,-0.04309563,0.0,-0.033518825
1570715660,-0.48841715,-9.672575,1.6903064,0.01384886,-0.01065297,-0.014914157,-0.047884032,-0.02873042,-0.05267244
1570715660,-0.50757074,-9.68694,1.7717092,0.009587673,-0.01065297,-0.011718267,-0.07182605,-0.04309563,0.019153614
1570715660,-0.45968673,-9.576807,1.7764976,0.01384886,-0.01065297,-0.0063917814,-0.023942016,0.062249243,0.023942016
1570715660,-0.49799395,-9.629479,1.7238252,0.0074570784,0.0063917814,-0.012783563,-0.062249243,0.009576807,-0.023942016
1570715660,-0.51235914,-9.615114,1.7046716,0.018110048,0.0021305939,-0.018110048,-0.08140286,0.019153614,-0.047884032
1570715660,-0.45968673,-9.56723,1.7381904,0.02450183,0.0031958907,-0.02130594,-0.033518825,0.06703765,-0.019153614
1570715660,-0.44532153,-9.605537,1.7142484,0.020240642,0.009587673,-0.023436533,-0.023942016,0.02873042,-0.05267244
1570715660,-0.51235914,-9.725247,1.7142484,0.023436533,0.005326485,-0.02130594,-0.095768064,-0.08619126,-0.05746084
1570715660,-0.50757074,-9.619903,1.6519991,0.014914157,0.005326485,-0.011718267,-0.095768064,0.01436521,-0.12449849
1570715660,-0.51235914,-9.615114,1.685518,0.0085223755,0.01384886,-0.0063917814,-0.10055647,0.019153614,-0.090979666
1570715660,-0.48841715,-9.65821,1.6950948,0.01065297,0.012783563,-0.0063917814,-0.076614454,-0.019153614,-0.08140286
1570715660,-0.46447513,-9.595961,1.7669208,0.009587673,0.014914157,-0.0031958907,-0.07182605,0.02873042,0.0
1570715660,-0.40222588,-9.615114,1.733402,0.0042611877,0.019175345,0.0010652969,-0.02873042,0.038307227,0.0
1570715660,-0.48841715,-9.758766,1.7621324,-0.0074570784,0.031958908,-0.0010652969,-0.07182605,-0.11971009,-0.019153614
1570715660,-0.4405331,-9.629479,1.7286136,-0.014914157,0.023436533,0.009587673,-0.05267244,0.0047884034,-0.04309563
1570715660,-0.46447513,-9.543288,1.6903064,-0.017044751,0.025567126,0.0085223755,-0.02873042,0.10534488,-0.11492168
1570715660,-0.49320555,-9.572019,1.8100165,0.0021305939,0.015979454,0.0085223755,-0.095768064,0.08140286,0.06703765
1570715660,-0.30166942,-9.648633,1.8052281,0.01065297,0.02450183,-0.0031958907,0.05746084,0.0,-0.0047884034
1570715660,-0.4309563,-9.68694,1.8531121,0.0021305939,-0.011718267,0.019175345,0.023942016,0.009576807,0.05746084
1570715660,-0.36391866,-9.5385,1.6950948,0.0010652969,-0.005326485,0.01384886,0.08140286,0.11492168,-0.05267244
1570715660,-0.35913026,-9.557653,1.8914193,-0.0063917814,-0.0042611877,0.011718267,0.033518825,0.05746084,0.06703765
1570715660,-0.45489833,-9.677363,1.7621324,-0.0031958907,-0.0074570784,0.018110048,-0.05746084,-0.019153614,-0.01436521
1570715660,-0.46447513,-9.562442,1.7381904,-0.005326485,-0.0031958907,0.023436533,-0.019153614,0.02873042,-0.033518825
1570715660,-0.4261679,-9.562442,1.7764976,-0.0021305939,-0.01065297,0.01384886,0.038307227,0.10055647,-0.009576807
1570715661,-0.4165911,-9.634268,1.8435353,0.0085223755,-0.01065297,0.0021305939,0.047884032,-0.009576807,0.11492168
1570715661,-0.4213795,-9.677363,1.8195933,0.0085223755,-0.020240642,0.0085223755,0.033518825,-0.05746084,0.08619126
1570715661,-0.33997664,-9.56723,1.7429788,-0.0031958907,-0.017044751,0.0074570784,0.05267244,0.023942016,-0.01436521
1570715661,-0.45010993,-9.557653,1.8626889,-0.0021305939,-0.039415985,0.017044751,-0.019153614,0.1340753,0.1340753
1570715661,-0.50757074,-9.682152,1.8291701,0.0063917814,-0.035154797,0.022371236,-0.076614454,-0.090979666,0.10055647
1570715661,-0.4357447,-9.624691,1.7621324,0.005326485,-0.018110048,0.0074570784,0.07182605,-0.02873042,-0.023942016
1570715661,-0.51235914,-9.504981,1.7477672,-0.0021305939,-0.035154797,0.0021305939,-0.019153614,0.04309563,-0.033518825
1570715661,-0.4309563,-9.624691,1.7812861,0.011718267,-0.04154658,0.0074570784,-0.0047884034,0.06703765,0.033518825
1570715661,-0.47884035,-9.653421,1.7717092,0.014914157,-0.02769772,0.009587673,-0.009576807,-0.019153614,-0.0047884034
1570715661,-0.50278234,-9.696517,1.757344,0.0021305939,-0.02130594,0.011718267,-0.033518825,-0.062249243,-0.023942016
1570715661,-0.5554548,-9.509769,1.6759412,-0.0085223755,-0.031958908,0.012783563,-0.08619126,0.11971009,-0.10534488
1570715661,-0.51235914,-9.495404,1.7860745,-0.0031958907,-0.014914157,0.02130594,-0.038307227,0.1340753,0.0047884034
1570715661,-0.47884035,-9.615114,1.7956513,0.0010652969,0.0031958907,0.01384886,0.0,0.01436521,0.01436521
1570715661,-0.49320555,-9.548077,1.70946,0.0,-0.0063917814,0.01065297,-0.009576807,0.08140286,-0.06703765
1570715661,-0.48362875,-9.591172,1.7764976,0.005326485,0.0074570784,0.0031958907,0.0047884034,0.023942016,-0.01436521
1570715661,-0.47405192,-9.591172,1.8339585,0.0063917814,-0.0010652969,-0.0010652969,0.0047884034,0.038307227,0.047884032
1570715661,-0.51235914,-9.643845,1.8195933,0.0085223755,-0.014914157,0.012783563,-0.023942016,-0.009576807,0.033518825
1570715661,-0.47884035,-9.648633,1.7764976,0.0042611877,-0.011718267,0.011718267,0.0047884034,-0.01436521,-0.009576807
1570715661,-0.48362875,-9.552865,1.757344,-0.0021305939,-0.01065297,0.01384886,0.0047884034,0.076614454,-0.02873042
1570715661,-0.48362875,-9.600749,1.8339585,0.0021305939,-0.02130594,0.0085223755,0.0047884034,0.02873042,0.04309563
1570715661,-0.6368576,-9.543288,1.8483237,0.005326485,-0.005326485,0.0010652969,-0.1436521,0.08619126,0.05746084
1570715661,-0.5602432,-9.562442,1.8531121,0.0063917814,0.0031958907,0.005326485,-0.10534488,0.10055647,0.01436521
1570715661,-0.61770403,-9.548077,1.757344,0.0085223755,0.0010652969,0.0085223755,-0.11971009,0.076614454,-0.033518825
1570715661,-0.5793968,-9.619903,1.8148049,0.009587673,0.0074570784,-0.0010652969,-0.07182605,0.04309563,0.02873042
1570715661,-0.5363012,-9.619903,1.8052281,0.009587673,0.009587673,-0.01065297,-0.033518825,0.0047884034,0.0047884034
1570715661,-0.60812724,-9.639056,1.8339585,0.0063917814,0.0085223755,-0.0074570784,-0.062249243,0.0047884034,0.090979666
1570715661,-0.521936,-9.543288,1.7477672,0.0031958907,-0.0042611877,0.0063917814,-0.023942016,0.08140286,-0.05267244
1570715661,-0.5315128,-9.586384,1.9153614,0.0,0.0021305939,0.0074570784,-0.02873042,0.038307227,0.110133275
1570715661,-0.46926352,-9.548077,1.8339585,-0.0042611877,0.0085223755,-0.005326485,0.0047884034,0.05746084,0.08619126
1570715661,-0.47884035,-9.615114,1.8052281,0.005326485,-0.0021305939,-0.0074570784,-0.01436521,0.047884032,0.023942016
1570715661,-0.47884035,-9.562442,1.7812861,0.0031958907,-0.0021305939,-0.0042611877,0.033518825,0.047884032,-0.019153614
1570715661,-0.521936,-9.576807,1.8100165,0.005326485,-0.017044751,0.0010652969,-0.023942016,0.08619126,0.04309563
1570715661,-0.5267244,-9.615114,1.7669208,0.012783563,-0.011718267,0.0021305939,-0.07182605,-0.023942016,-0.0047884034
1570715662,-0.61770403,-9.624691,1.7860745,0.0010652969,-0.0021305939,0.0010652969,-0.05267244,0.033518825,-0.07182605
1570715662,-0.48841715,-9.572019,1.8195933,0.0031958907,-0.0042611877,-0.0063917814,0.0047884034,0.05267244,0.0047884034
1570715662,-0.5410896,-9.634268,1.8052281,0.0031958907,-0.0031958907,-0.0063917814,0.033518825,-0.06703765,-0.038307227
1570715662,-0.5315128,-9.586384,1.7525556,0.0021305939,0.0010652969,-0.0031958907,0.0,0.023942016,-0.0047884034
1570715662,-0.59855044,-9.610326,1.8243817,0.0,-0.0063917814,0.0031958907,-0.10055647,0.07182605,-0.009576807
1570715662,-0.51714754,-9.562442,1.7908629,0.0074570784,-0.0021305939,0.0,-0.01436521,-0.02873042,0.0
1570715662,-0.50278234,-9.543288,1.8195933,0.0042611877,0.005326485,0.0021305939,-0.02873042,0.08140286,0.01436521
1570715662,-0.5554548,-9.610326,1.8100165,0.0042611877,-0.0031958907,0.0010652969,-0.05746084,0.009576807,-0.0047884034
1570715662,-0.5793968,-9.548077,1.7956513,0.01384886,-0.0074570784,-0.01065297,-0.08140286,0.08140286,0.0
1570715662,-0.59376204,-9.56723,1.7860745,0.019175345,0.005326485,-0.017044751,-0.10055647,0.05267244,-0.033518825
1570715662,-0.6607997,-9.610326,1.7908629,0.02130594,0.0074570784,-0.0085223755,-0.110133275,0.009576807,-0.047884032
1570715662,-0.59376204,-9.619903,1.7669208,0.011718267,0.0,-0.0010652969,-0.10534488,0.0,-0.06703765
1570715662,-0.45010993,-9.600749,1.8483237,-0.0085223755,0.009587673,-0.0063917814,0.033518825,0.019153614,0.009576807
1570715662,-0.51714754,-9.600749,1.8291701,-0.005326485,0.01065297,-0.0010652969,-0.02873042,0.019153614,0.0
1570715662,-0.4405331,-9.639056,1.9153614,0.011718267,-0.0085223755,0.0010652969,0.047884032,-0.01436521,0.08140286
1570715662,-0.40222588,-9.629479,1.9201498,0.01065297,-0.0063917814,0.0031958907,0.08619126,-0.0047884034,0.08140286
1570715662,-0.46447513,-9.5385,1.7956513,0.0010652969,-0.0074570784,0.0010652969,0.023942016,0.08140286,-0.038307227
1570715662,-0.6464345,-9.524135,1.8531121,-0.0031958907,-0.012783563,-0.0010652969,-0.15322891,0.095768064,0.01436521
1570715662,-0.49799395,-9.600749,1.8387469,0.0063917814,-0.011718267,-0.0042611877,-0.0047884034,0.019153614,0.0
1570715662,-0.521936,-9.639056,1.8339585,0.01065297,0.0063917814,0.0,-0.02873042,-0.01436521,-0.0047884034
1570715662,-0.47405192,-9.619903,1.8722657,0.0063917814,-0.0085223755,-0.0021305939,0.01436521,0.0,0.02873042
1570715662,-0.49320555,-9.624691,1.8531121,0.0063917814,-0.014914157,0.0,0.0,-0.0047884034,0.0047884034
1570715662,-0.545878,-9.586384,1.8626889,-0.0010652969,0.0085223755,-0.0031958907,-0.05746084,0.02873042,0.01436521
1570715662,-0.49320555,-9.548077,1.8722657,0.005326485,-0.012783563,0.0074570784,0.0,0.06703765,0.023942016
1570715662,-0.5650316,-9.591172,1.8914193,0.0063917814,-0.0074570784,0.011718267,-0.07182605,0.023942016,0.038307227
1570715662,-0.45968673,-9.667787,1.7717092,0.0010652969,-0.012783563,0.0,0.033518825,-0.047884032,-0.076614454
1570715662,-0.50757074,-9.662998,1.8722657,-0.005326485,-0.014914157,-0.0021305939,-0.038307227,0.0,0.023942016
1570715662,-0.45968673,-9.500193,1.8195933,0.0,-0.0074570784,0.011718267,0.033518825,0.11492168,-0.023942016
1570715662,-0.545878,-9.509769,1.8866309,0.0,-0.0031958907,0.0010652969,-0.047884032,0.10534488,0.033518825
1570715662,-0.5746084,-9.662998,1.8722657,0.0074570784,-0.0074570784,-0.0085223755,-0.076614454,-0.04309563,0.019153614
1570715662,-0.47884035,-9.528923,1.7860745,0.014914157,0.0021305939,-0.009587673,0.0,0.06703765,-0.019153614
1570715662,-0.47405192,-9.605537,1.8866309,0.0085223755,-0.01384886,-0.0042611877,0.0047884034,0.0,0.019153614
1570715662,-0.521936,-9.610326,1.8722657,0.012783563,-0.02130594,-0.014914157,0.0047884034,-0.023942016,-0.01436521
1570715663,-0.59855044,-9.500193,1.8674773,0.014914157,-0.014914157,-0.019175345,-0.10055647,0.076614454,-0.01436521
1570715663,-0.47405192,-9.380483,1.9967642,0.026632423,-0.03835069,-0.012783563,0.023942016,0.21068975,0.08140286
1570715663,-0.4261679,-9.639056,1.9153614,0.04793836,-0.040481284,-0.019175345,0.009576807,0.090979666,0.0047884034
1570715663,-0.39743748,-9.677363,1.8866309,0.035154797,-0.020240642,-0.017044751,0.12449849,-0.05267244,-0.05746084
1570715663,-0.47405192,-9.639056,1.8770541,0.01065297,-0.02130594,-0.0010652969,0.02873042,-0.07182605,-0.023942016
1570715663,-0.5410896,-9.639056,1.7956513,-0.0021305939,-0.020240642,-0.0021305939,-0.110133275,-0.033518825,0.0
1570715663,-0.58897364,-9.576807,1.9153614,-0.0042611877,0.0,-0.009587673,-0.12928689,0.02873042,0.01436521
1570715663,-0.48362875,-9.56723,1.8531121,0.0021305939,0.0042611877,-0.009587673,-0.047884032,0.07182605,-0.047884032
1570715663,-0.47884035,-9.5385,1.8387469,0.0042611877,0.0021305939,0.0021305939,0.033518825,0.06703765,-0.06703765
1570715663,-0.4309563,-9.68694,1.9297266,-0.005326485,-0.01384886,0.0085223755,0.05267244,-0.07182605,-0.0047884034
1570715663,-0.521936,-9.495404,1.9536686,-0.017044751,-0.0010652969,0.005326485,-0.05746084,0.0047884034,0.023942016
1570715663,-0.46926352,-9.399636,1.8579005,-0.011718267,0.0,0.0,-0.0047884034,0.21068975,-0.02873042
1570715663,-0.5602432,-9.610326,1.8243817,0.0085223755,-0.012783563,0.01065297,-0.047884032,0.062249243,-0.009576807
1570715663,-0.5506664,-9.691729,1.8914193,0.0074570784,-0.0063917814,0.0042611877,-0.08140286,-0.076614454,0.0
1570715663,-0.51235914,-9.562442,1.8243817,-0.009587673,0.0042611877,-0.0063917814,-0.019153614,0.033518825,-0.07182605
1570715663,-0.58418524,-9.576807,1.8004397,-0.0063917814,0.012783563,0.0010652969,-0.11492168,0.033518825,-0.08619126
1570715663,-0.60333884,-9.696517,1.8339585,0.0085223755,0.0063917814,0.0031958907,-0.08619126,-0.1340753,-0.05267244
1570715663,-0.50757074,-9.586384,1.733402,-0.0074570784,0.03089361,-0.0021305939,-0.033518825,0.023942016,-0.15322891
1570715663,-0.45968673,-9.591172,1.8674773,-0.012783563,0.022371236,-0.0042611877,-0.05746084,0.038307227,0.0
1570715663,-0.45968673,-9.56723,1.9201498,-0.0021305939,0.020240642,-0.005326485,0.009576807,0.04309563,0.038307227
1570715663,-0.46926352,-9.605537,1.8962077,-0.0063917814,0.015979454,0.0,0.0,0.0047884034,0.01436521
1570715663,-0.48841715,-9.619903,1.9153614,-0.0042611877,0.014914157,-0.0021305939,-0.009576807,-0.0047884034,0.033518825
1570715663,-0.45968673,-9.552865,1.8243817,-0.0042611877,0.0063917814,0.0010652969,0.01436521,0.05746084,-0.047884032
1570715663,-0.521936,-9.548077,1.8866309,-0.0010652969,-0.0021305939,0.0031958907,-0.04309563,0.062249243,0.009576807
1570715663,-0.545878,-9.615114,1.9776106,-0.0031958907,0.0042611877,0.0021305939,-0.06703765,0.0,0.10055647
1570715663,-0.46447513,-9.586384,1.910573,-0.0042611877,0.0042611877,-0.0042611877,0.009576807,0.023942016,0.033518825
1570715663,-0.49320555,-9.557653,1.958457,0.0010652969,-0.009587673,-0.0031958907,-0.01436521,0.05267244,0.08140286
1570715663,-0.49799395,-9.509769,1.958457,0.0063917814,0.0074570784,-0.012783563,-0.019153614,0.10055647,0.08140286
1570715663,-0.44532153,-9.586384,1.9297266,0.0063917814,0.0021305939,-0.012783563,0.023942016,0.023942016,0.047884032
1570715663,-0.521936,-9.610326,1.8770541,0.01065297,-0.005326485,-0.0085223755,-0.05267244,0.0,-0.0047884034
1570715663,-0.521936,-9.610326,1.8770541,0.01065297,-0.005326485,-0.0085223755,-0.05267244,0.0,-0.0047884034
1570715663,-0.5554548,-9.643845,1.8579005,-0.0010652969,0.0074570784,-0.0085223755,-0.08619126,-0.02873042,-0.023942016
1570715663,-0.48362875,-9.624691,1.9201498,0.0021305939,0.0021305939,0.0021305939,-0.01436521,-0.009576807,0.033518825
1570715663,-0.46926352,-9.696517,1.8004397,0.0031958907,0.0031958907,0.0042611877,0.009576807,-0.02873042,-0.05267244
1570715664,-0.48841715,-9.605537,1.8531121,-0.020240642,0.01065297,0.0042611877,-0.01436521,0.0047884034,-0.023942016
1570715664,-0.5506664,-9.548077,1.8339585,-0.023436533,0.0,0.0031958907,-0.047884032,0.009576807,0.009576807
1570715664,-0.51235914,-9.41879,1.9632454,-0.0042611877,0.0010652969,0.0021305939,-0.033518825,0.19632454,0.090979666
1570715664,-0.5267244,-9.509769,1.8674773,0.0063917814,0.0010652969,-0.0021305939,0.033518825,0.14844051,0.0
1570715664,-0.45968673,-9.634268,1.9249382,0.009587673,0.0,-0.0031958907,0.01436521,-0.019153614,0.047884032
1570715664,-0.4357447,-9.662998,1.8291701,-0.0010652969,-0.0063917814,-0.0010652969,0.038307227,-0.033518825,-0.009576807
1570715664,-0.56982,-9.56723,1.8387469,-0.009587673,-0.0010652969,0.0031958907,-0.095768064,-0.0047884034,-0.019153614
1570715664,-0.5506664,-9.605537,1.8674773,-0.005326485,-0.0074570784,0.0042611877,-0.10055647,0.01436521,-0.0047884034
1570715664,-0.5410896,-9.615114,1.8148049,0.0,0.0021305939,0.01384886,-0.1388637,0.0,0.01436521
1570715664,-0.50278234,-9.562442,1.8291701,-0.005326485,0.011718267,0.017044751,-0.01436521,0.06703765,-0.023942016
1570715664,-0.48362875,-9.595961,1.9201498,-0.009587673,0.023436533,-0.0021305939,0.0,0.04309563,0.047884032
1570715664,-0.46926352,-9.533711,1.8387469,0.0021305939,0.0085223755,-0.0042611877,0.0,0.095768064,0.019153614
1570715664,-0.44532153,-9.524135,1.8962077,0.011718267,0.012783563,0.0010652969,0.05267244,0.08619126,0.047884032
1570715664,-0.37349546,-9.615114,1.9057846,0.01065297,-0.0074570784,-0.0021305939,0.095768064,-0.02873042,0.076614454
1570715664,-0.46447513,-9.701305,1.8531121,0.012783563,-0.0074570784,-0.0042611877,0.019153614,-0.08619126,-0.019153614
1570715664,-0.45010993,-9.586384,1.8626889,0.0021305939,-0.0085223755,-0.0010652969,-0.038307227,0.0,0.023942016
1570715664,-0.46447513,-9.562442,1.910573,0.0021305939,-0.0085223755,0.0,0.019153614,0.047884032,0.02873042
1570715664,-0.545878,-9.533711,1.8339585,0.0042611877,-0.01384886,0.0,-0.05746084,0.076614454,-0.04309563
1570715664,-0.521936,-9.639056,1.9488802,0.01065297,-0.011718267,-0.0042611877,-0.033518825,-0.023942016,0.062249243
1570715664,-0.48362875,-9.5385,1.8483237,0.018110048,-0.009587673,-0.012783563,0.0,0.07182605,-0.038307227
1570715664,-0.47884035,-9.524135,1.934515,0.014914157,-0.012783563,-0.009587673,0.0,0.08619126,0.038307227
1570715664,-0.51714754,-9.528923,1.9488802,0.02130594,-0.02769772,0.0010652969,-0.038307227,0.076614454,0.047884032
1570715664,-0.4357447,-9.543288,1.8626889,0.035154797,-0.034089502,-0.0010652969,0.033518825,0.062249243,-0.04309563
1570715664,-0.5363012,-9.639056,1.9536686,0.02450183,-0.02769772,-0.01065297,-0.062249243,-0.02873042,0.038307227
1570715664,-0.48841715,-9.619903,1.9057846,0.017044751,-0.020240642,-0.0031958907,-0.019153614,-0.01436521,-0.01436521
1570715664,-0.58418524,-9.643845,1.9488802,0.01065297,-0.018110048,0.01065297,-0.11492168,-0.038307227,0.023942016
1570715664,-0.56982,-9.586384,1.8100165,-0.01065297,-0.005326485,-0.0010652969,-0.095768064,0.01436521,-0.110133275
1570715664,-0.49320555,-9.457097,1.9057846,-0.0042611877,0.0021305939,-0.005326485,-0.023942016,0.1436521,-0.01436521
1570715664,-0.4357447,-9.514558,1.9297266,0.019175345,-0.0010652969,-0.0031958907,0.02873042,0.08619126,0.0047884034
1570715664,-0.46447513,-9.643845,1.9153614,0.02769772,-0.0063917814,-0.0074570784,0.0,-0.038307227,-0.01436521
1570715664,-0.51714754,-9.720459,1.8339585,-0.0021305939,-0.0085223755,-0.0031958907,-0.047884032,-0.11492168,-0.095768064
1570715664,-0.59376204,-9.591172,1.8770541,-0.0042611877,-0.02450183,0.0063917814,-0.12449849,0.009576807,-0.05267244
1570715664,-0.5602432,-9.519346,1.910573,-0.0042611877,-0.018110048,0.0021305939,-0.1436521,0.06703765,0.0047884034
1570715665,-0.5363012,-9.610326,1.9009962,0.0,-0.0021305939,0.0,-0.033518825,0.062249243,-0.01436521
1570715665,-0.5363012,-9.572019,1.9153614,0.0042611877,-0.0085223755,0.0031958907,-0.06703765,0.02873042,-0.009576807
1570715665,-0.48841715,-9.591172,1.9393034,0.0,-0.01065297,-0.0021305939,-0.019153614,0.009576807,0.0047884034
1570715665,-0.49799395,-9.586384,1.9536686,0.0010652969,-0.0085223755,-0.009587673,-0.02873042,0.01436521,0.023942016
1570715665,-0.5315128,-9.543288,1.9009962,0.0074570784,0.0063917814,-0.005326485,-0.04309563,0.009576807,-0.023942016
1570715665,-0.5315128,-9.500193,1.9153614,0.0085223755,-0.0010652969,-0.0010652969,-0.02873042,0.062249243,-0.023942016
1570715665,-0.5363012,-9.643845,1.9201498,0.005326485,-0.01384886,0.0042611877,-0.02873042,-0.047884032,0.0
1570715665,-0.5363012,-9.615114,1.958457,0.0063917814,0.0010652969,-0.005326485,-0.019153614,-0.047884032,0.0
1570715665,-0.49799395,-9.600749,2.0159178,-0.0031958907,-0.0063917814,0.0042611877,-0.047884032,-0.038307227,0.01436521
1570715665,-0.3878607,-9.509769,1.8914193,-0.009587673,0.0,0.0085223755,0.033518825,0.110133275,-0.009576807
1570715665,-0.4261679,-9.56723,1.9153614,-0.0063917814,0.0031958907,0.0010652969,0.02873042,0.033518825,0.0047884034
1570715665,-0.46447513,-9.533711,2.0015526,0.0074570784,-0.005326485,-0.0063917814,0.023942016,0.023942016,0.0
1570715665,-0.4261679,-9.548077,1.9153614,0.012783563,0.0010652969,-0.009587673,0.04309563,0.076614454,0.0
1570715665,-0.4309563,-9.65821,1.9488802,0.014914157,-0.0010652969,-0.0074570784,0.033518825,-0.05267244,0.009576807
1570715665,-0.49799395,-9.600749,1.8770541,0.0031958907,0.0,0.0010652969,-0.04309563,-0.023942016,-0.076614454
1570715665,-0.5506664,-9.552865,1.910573,-0.01384886,-0.011718267,0.0,-0.04309563,0.038307227,-0.0047884034
1570715665,-0.45010993,-9.56723,1.9919758,-0.005326485,0.0031958907,0.0021305939,-0.10055647,0.019153614,0.047884032
1570715665,-0.46926352,-9.557653,1.934515,0.005326485,0.0074570784,0.0010652969,0.047884032,0.047884032,0.0047884034
1570715665,-0.46447513,-9.572019,1.934515,0.0021305939,-0.0010652969,-0.0063917814,0.0,0.02873042,0.0
1570715665,-0.48841715,-9.591172,1.9297266,-0.0063917814,0.0,-0.0063917814,0.01436521,0.009576807,0.076614454
1570715665,-0.5315128,-9.481039,1.8866309,-0.0042611877,0.0063917814,-0.0010652969,-0.062249243,0.11971009,-0.04309563
1570715665,-0.51235914,-9.524135,1.9632454,0.0042611877,-0.0021305939,0.0021305939,-0.04309563,0.076614454,0.02873042
1570715665,-0.49320555,-9.615114,1.8770541,0.0031958907,0.0,-0.0031958907,-0.023942016,-0.009576807,-0.05267244
1570715665,-0.5506664,-9.634268,1.9057846,0.0,0.0042611877,-0.0042611877,-0.08140286,-0.02873042,-0.023942016
1570715665,-0.5363012,-9.610326,1.9440918,-0.0063917814,-0.005326485,0.0042611877,-0.06703765,-0.0047884034,0.009576807
1570715665,-0.51235914,-9.485827,1.934515,-0.009587673,0.0042611877,0.0010652969,-0.04309563,0.11492168,0.0
1570715665,-0.47884035,-9.572019,1.9297266,-0.0074570784,0.012783563,-0.0031958907,-0.009576807,0.02873042,0.0
1570715665,-0.4309563,-9.605537,1.8962077,0.0031958907,0.005326485,-0.0010652969,0.038307227,0.0,-0.02873042
1570715665,-0.46926352,-9.557653,1.9297266,0.0010652969,0.0085223755,-0.0074570784,0.0,0.04309563,0.0
1570715665,-0.45968673,-9.591172,1.910573,0.005326485,0.0021305939,-0.0063917814,0.0047884034,0.009576807,-0.019153614
1570715665,-0.50278234,-9.576807,1.958457,0.005326485,0.0021305939,0.0,-0.033518825,0.023942016,0.023942016
1570715665,-0.51714754,-9.557653,1.9153614,0.0010652969,0.0,0.0,-0.047884032,0.04309563,-0.01436521
1570715665,-0.46447513,-9.562442,1.9488802,0.0031958907,-0.0085223755,0.0042611877,0.0,0.038307227,0.01436521
1570715666,-0.47884035,-9.581595,1.8818425,0.009587673,-0.0042611877,0.0,-0.009576807,0.019153614,-0.05267244
1570715666,-0.50278234,-9.586384,2.0159178,0.0021305939,0.0,-0.0042611877,-0.033518825,0.01436521,0.076614454
1570715666,-0.51235914,-9.615114,1.9440918,0.009587673,-0.022371236,-0.0010652969,-0.04309563,-0.009576807,0.0
1570715666,-0.5363012,-9.591172,1.9009962,0.0031958907,-0.0063917814,-0.0010652969,-0.06703765,0.009576807,-0.038307227
1570715666,-0.5363012,-9.581595,1.8818425,0.0010652969,-0.0063917814,0.0,-0.06703765,0.019153614,-0.05746084
1570715666,-0.48841715,-9.543288,1.9297266,0.0021305939,-0.017044751,0.0021305939,0.0047884034,0.023942016,-0.04309563
1570715666,-0.5554548,-9.619903,1.9297266,-0.0042611877,-0.0085223755,0.0,-0.019153614,-0.009576807,0.0047884034
1570715666,-0.47405192,-9.610326,1.9440918,0.0010652969,-0.014914157,-0.0010652969,-0.01436521,-0.01436521,-0.01436521
1570715666,-0.5554548,-9.591172,1.910573,-0.0085223755,-0.0074570784,0.0,-0.08619126,0.009576807,-0.02873042
1570715666,-0.46926352,-9.572019,1.9153614,-0.0063917814,-0.0042611877,0.0,-0.0047884034,0.06703765,-0.023942016
1570715666,-0.40701428,-9.548077,1.9728222,-0.0042611877,-0.01384886,0.0042611877,-0.01436521,0.038307227,-0.0047884034
1570715666,-0.5267244,-9.562442,1.8914193,0.0031958907,-0.012783563,-0.0042611877,-0.01436521,0.10534488,-0.023942016
1570715666,-0.5267244,-9.591172,1.958457,0.011718267,-0.018110048,-0.0010652969,-0.06703765,0.01436521,0.047884032
1570715666,-0.521936,-9.562442,1.958457,0.019175345,0.0010652969,-0.0010652969,-0.05746084,0.023942016,-0.01436521
1570715666,-0.50278234,-9.653421,1.958457,0.011718267,0.01384886,-0.011718267,-0.04309563,0.04309563,-0.038307227
1570715666,-0.5410896,-9.557653,1.958457,0.0021305939,0.023436533,-0.018110048,0.0,0.04309563,-0.009576807
1570715666,-0.48841715,-9.595961,1.9488802,0.012783563,0.01384886,-0.009587673,-0.076614454,0.047884032,0.02873042
1570715666,-0.46447513,-9.610326,1.9632454,0.0085223755,0.011718267,-0.0074570784,0.04309563,0.0047884034,0.0
1570715666,-0.45489833,-9.5385,2.0398598,0.0042611877,0.0031958907,-0.0074570784,0.0,0.019153614,0.0047884034
1570715666,-0.46926352,-9.524135,1.982399,0.0021305939,-0.012783563,-0.0063917814,-0.0047884034,0.05267244,0.07182605
1570715666,-0.48362875,-9.586384,1.9249382,0.0085223755,0.0,-0.005326485,-0.038307227,0.023942016,-0.033518825
