time,ax,ay,az,gx,gy,gz,la_x,la_y,la_z,fox,foy,foz
1570715098,7.854782,13.332718,4.3742065,0.2828064,0.7207794,-0.41697693,5.9593115,4.9001226,1.5566392
1570715098,8.878296,11.894989,3.2854462,-0.6823273,2.2675476,0.1412201,6.9233007,3.0920448,0.54128313
1570715098,6.4368134,9.141663,1.9692383,-1.4120331,3.0728912,1.1468353,4.8675437,0.5994215,-1.3504367
1570715098,8.171417,10.778091,2.8251648,-0.6226654,2.2707367,1.8669586,5.5368843,1.9938297,-1.0962229
1570715098,6.139328,7.587219,0.75956726,0.65670776,2.3644867,1.3779907,3.6890757,-0.41859722,-3.0449605
1570715098,5.9819183,9.256577,0.3615265,0.7472534,1.8180084,1.4483032,3.8064084,1.2324467,-3.5880005
1570715098,5.0846863,3.640976,-1.1312561,0.44366455,1.2012177,2.5828094,1.9811122,-4.3225555,-4.953332
1570715098,10.578186,5.1062317,2.0135193,0.5672302,0.1860199,3.5543365,5.236353,-4.0931716,-1.1801507
1570715098,7.4262085,6.7977448,3.1363983,0.5001221,-0.60653687,2.191864,2.7149534,-0.42106533,-0.2983315
1570715098,5.9717407,5.3456573,2.3774414,0.13259888,-0.9143982,1.5175476,0.93163204,-2.6813073,-0.6728387
1570715098,4.4729614,3.937271,0.51116943,0.22528076,-1.2254639,1.6293945,-1.3723006,-2.8287053,-2.4027054
1570715098,5.499481,3.2028503,1.1270752,0.41062927,-0.9602051,2.5167694,-0.8686805,-3.5420713,-1.3793612
1570715098,8.473679,8.434769,3.079544,0.6162262,-1.4651489,0.80488586,2.6696696,3.2373648,0.045390606
1570715099,5.985504,6.4380035,1.0055695,1.0966644,-1.0677948,0.77719116,-1.041718,-0.45486498,-0.9375987
1570715099,6.214752,8.543106,0.5482788,0.9113159,-0.9612732,0.13482666,-0.58341885,2.5819416,-0.77002525
1570715099,10.945694,10.322006,-1.6412201,-0.07725525,0.3106537,-1.296875,4.0936346,4.127457,-2.7014987
1570715099,12.756302,6.080673,-2.47081,-0.95610046,-1.0539551,-1.6675873,5.1920466,0.2345705,-2.9681633
1570715099,8.63649,4.7644653,-1.9746246,-1.5995178,-2.009491,-2.6625519,2.628018,-2.5381079,-4.0917706
1570715099,4.973358,6.273407,2.497757,-1.65065,-0.5010834,-3.2622986,-0.42773676,-1.0867758,1.2815074
1570715099,5.94899,9.492416,3.2914276,0.3339386,-1.9722137,-2.2939758,0.28520966,1.4647398,2.4194078
1570715099,9.082397,10.010162,-2.4917603,0.61943054,-0.26245117,-3.0865326,4.442906,1.7669907,-3.2894776
1570715099,6.004654,4.440048,-0.4519043,0.27960205,0.28507996,-4.9517975,2.5907743,-4.027788,-1.248804
1570715099,0.90800476,-1.5071564,-0.2926941,0.36376953,0.53115845,-5.5206604,-1.186022,-10.576265,-0.7983427
1570715099,-2.261917,-0.76374817,-0.9756317,0.92836,0.14979553,-4.6961365,-2.6904821,-10.063308,-1.1637983
1570715099,-2.8215637,6.447586,-4.8883667,0.6854706,-0.6352997,-2.3728027,-2.7898278,-3.3458605,-4.887254
1570715099,0.71287537,19.612106,4.387375,1.0519257,-3.4476013,-0.89634705,1.0833817,10.396486,1.7299622
1570715099,-10.195709,8.203735,3.0496216,2.7073517,1.1085358,0.5321808,-9.915335,-0.47177124,4.310825
1570715099,-0.1993103,6.8983,-3.6140442,0.92196655,0.64834595,0.9135437,0.52412724,-2.407178,-2.8804812
1570715099,-1.7609406,8.847168,2.1481934,1.7550049,0.49067688,1.01474,-1.534138,-0.6212568,4.112394
1570715099,-1.241394,8.850174,-3.6427765,1.2617798,0.18814087,0.85494995,-0.9969846,-0.28862572,-1.7673398
1570715099,-0.68174744,7.696762,-2.5462341,0.82395935,-0.11972046,1.0445709,-0.7564621,-1.3239498,-0.42909265
1570715099,-0.5105591,6.5924377,-1.9895782,0.6684265,-0.17297363,0.92419434,-0.7873721,-2.3048286,0.3805859
1570715099,-0.6476288,5.147537,-3.031662,-0.06767273,-0.9197235,0.3106079,-1.2125056,-3.604391,-0.019284248
1570715099,-0.60154724,5.1535187,-3.352478,-0.11880493,-0.94636536,0.30314636,-1.1322579,-3.6157694,-0.5842645
1570715099,3.5942993,6.958145,-4.616028,-1.1755371,-0.1665802,0.18276978,2.4060965,-2.0679321,-2.3731973
1570715099,3.5942993,6.958145,-4.616028,-1.1755371,-0.1665802,0.18276978,2.4060965,-2.0679321,-2.3731973
1570715099,2.1559753,7.012024,-1.0935516,-1.6112366,0.69415283,-0.4862213,1.9058247,-1.601161,0.26185107
1570715099,-2.2493591,2.3576965,0.0574646,-0.30308533,2.9482422,-0.93788147,-2.387271,-6.2441025,0.9404793
1570715099,-2.402588,2.2397766,0.33459473,-0.2743225,3.0142975,-0.96025085,-2.387271,-6.2441025,0.9404793
1570715099,-7.973297,9.550476,-12.488159,-1.6154938,-0.35620117,-1.0806274,-7.769651,0.033438683,-11.570087
1570715099,-7.2095337,15.9088745,-0.18315125,-1.6346741,-1.6994934,-1.296875,-7.3241525,6.280011,-1.3899229
1570715099,1.035492,10.013153,-2.3391418,1.1169128,-0.6161194,-1.3490753,2.1041198,1.3111744,-1.7390823
1570715099,1.035492,10.013153,-2.3391418,1.1169128,-0.6161194,-1.3490753,2.1041198,1.3111744,-1.7390823
1570715099,-1.893219,15.865784,2.3128052,-0.7387848,-3.140808,-1.1317596,-0.044842243,7.0142813,2.9136329
1570715099,-1.6717529,15.729904,2.5276794,-0.73132324,-3.1280212,-1.0795746,-0.044842243,7.0142813,2.9136329
1570715099,-0.8230133,12.7114105,3.5960846,-1.7252197,-0.25180054,0.091156006,1.2579637,3.5110588,3.652262
1570715100,-0.81762695,14.378372,0.6871338,-2.3750305,1.0595398,0.6131439,1.3661757,5.281233,1.2710639
1570715100,-0.1945343,13.005905,-3.3040009,-3.671463,1.1745758,0.90182495,1.4660512,4.1861267,-3.1924176
1570715100,-2.0260925,9.445129,-2.3301544,-4.846451,1.0020142,1.14151,-0.120908976,0.57963085,-4.042246
1570715100,-0.017959595,12.261307,-5.6239777,-1.6591797,2.0491638,0.32019043,1.8976184,4.6207256,-7.345088
1570715100,-0.39982605,4.6615143,-2.82695,0.3371277,-0.48083496,-0.434021,1.1136456,-3.192152,-5.815095
1570715100,1.3317719,2.0308838,-2.6910858,0.3115692,-0.67471313,-0.5735626,2.9770074,-6.4881,-5.019283
1570715100,2.372055,1.0588379,-1.7076569,1.2063904,-0.056869507,-0.49687195,4.143032,-7.512868,-4.158145
1570715100,3.7565002,2.0644073,-2.410965,2.6093445,0.4885559,0.18702698,5.6202784,-6.6555395,-4.011175
1570715100,0.015563965,2.6856995,0.43515015,3.004547,-0.80148315,0.24243164,1.8154176,-6.068511,-0.5756737
1570715100,-0.40821838,12.953827,4.320343,3.9036407,-2.646515,0.36706543,0.9673904,3.8388853,4.809474
1570715100,-0.32261658,19.612701,-3.5470123,3.9696808,-4.443619,0.825119,1.0128195,10.843178,-2.5223927
1570715100,-6.6199646,18.021149,-4.3496704,2.5571442,2.1184082,1.3385773,-5.7664356,8.812739,2.0829148
1570715100,-7.286148,18.018158,-7.373535,2.2961578,2.0875092,1.5047607,-5.6607127,9.2455635,-3.2201304
1570715100,1.2114716,15.496475,-0.5117645,0.26150513,0.14447021,1.6049042,1.1702067,6.6812954,2.0682106
1570715100,1.2114716,15.496475,-0.5117645,0.26150513,0.14447021,1.6049042,1.1702067,6.6812954,2.0682106
1570715100,-2.8221588,7.7620087,-0.03831482,-0.045303345,-2.4366608,0.87838745,-2.959004,-0.9306116,2.5557559
1570715100,-3.7134094,5.3426666,1.3485413,-0.23490906,-2.3770142,0.74842834,-3.664228,-3.222064,4.1136656
1570715100,-5.6084137,0.30107117,0.6081238,-1.0306702,-1.8060303,0.5002136,-5.7836523,-8.436146,3.1245065
1570715100,-2.3588867,-2.3445282,1.7621307,-1.8008575,1.5836487,0.002746582,-2.7881615,-11.391609,3.8056784
1570715100,-2.1535797,-2.257141,1.7016754,-1.8179016,1.6827087,-0.044128418,-2.3571794,-11.136158,3.494051
1570715100,1.4101868,2.1470032,-0.97802734,-1.7230835,1.7689972,-1.3011475,1.4987313,-6.808056,-0.17076844
1570715100,1.4101868,2.1470032,-0.97802734,-1.7230835,1.7689972,-1.3011475,1.4987313,-6.808056,-0.17076844
1570715100,0.7757263,7.578247,-0.18614197,-0.48738098,0.8113251,-0.7088623,1.8165455,-1.830759,-1.1922647
1570715100,0.1550293,17.59259,2.6300354,1.2245026,-1.3074799,0.26585388,-0.41747615,5.1396675,2.4165416
1570715100,-7.8954773,15.126572,3.759491,0.8633728,-0.70240784,-2.1000977,-5.6177907,9.757537,5.54858
1570715100,-8.119934,12.922104,3.0382385,0.8868103,-0.7439575,-1.9339142,-7.050309,5.2323885,4.3217063
1570715100,-3.3405151,13.033432,1.4891968,-0.52679443,-2.5634308,0.89224243,-4.2758646,-0.1341343,0.2866143
1570715100,0.54408264,19.612701,2.0338745,-0.19976807,-2.8318787,-1.1797028,2.2659144,10.751927,2.8520668
1570715100,-5.909485,14.781204,5.233719,-1.6272125,-1.1924286,-0.46385193,-4.6224666,5.834016,5.291818
1570715100,0.23703003,15.221741,4.7333374,-3.4711914,1.7722015,1.6954498,0.5856118,5.953168,4.306684
1570715100,2.277481,8.431183,-19.612701,-5.937271,1.7167969,0.62805176,5.671877,2.712798,-14.970914
1570715100,3.6278076,14.851227,0.964859,-5.468567,-0.7109375,0.2818451,0.09234661,4.623251,-14.923345
1570715100,0.7080841,5.1960144,-8.019974,2.2109375,-0.20599365,-1.0369568,1.541823,-3.3239527,-10.6599045
1570715100,3.4620209,3.4093475,-2.1924896,1.7155914,-0.54156494,-0.62576294,4.259344,-4.871192,-4.981245
1570715101,3.1525726,0.61650085,0.66378784,1.3491364,-0.48616028,-0.2891388,4.150167,-7.8035336,-1.5604979
1570715101,2.4959564,0.17897034,0.37409973,1.8508759,-0.19534302,-0.18154907,3.648838,-8.519029,-0.8932948
1570715101,0.8750763,0.02394104,-1.3419495,2.1875,-1.7666168,-0.04626465,2.1634045,-8.789658,-2.4740965
1570715101,1.4574738,3.7193909,2.197876,2.50708,-2.6603699,-0.08354187,2.3533773,-5.196535,1.6030121
1570715101,0.18255615,19.612701,5.7371063,2.9012299,-3.047058,1.889328,0.5059483,10.895711,3.0826998
1570715101,0.19213867,19.612701,8.052292,2.8160095,-2.5304108,1.8009033,1.0545704,10.886861,7.978817
1570715101,-11.698669,19.612701,-4.3771973,0.94966125,1.1468811,0.81874084,-13.399111,10.818654,-3.5428915
1570715101,-6.621765,14.64653,-1.8956146,1.4130554,1.4526215,-0.015365601,-5.8401365,6.247218,1.2147942
1570715101,-4.2048187,14.039597,-5.5689087,0.78666687,1.253418,0.3414917,-4.6306343,5.170212,-1.8557143
1570715101,-3.2369537,4.268265,-1.1587982,-0.19869995,-0.81533813,0.7654724,-2.8932147,-4.2817106,1.4044712
1570715101,-3.7570953,3.4973297,-1.6065063,-0.34144592,-0.8835144,0.72817993,-3.5494347,-5.0992403,0.8822856
1570715101,-2.6862946,-1.8513184,0.34176636,-1.7870026,0.55885315,-0.05052185,-2.6456027,-10.596042,2.155419
1570715101,-0.90560913,-3.0771484,1.3868408,-1.9915314,1.2906952,-0.52775574,-0.8130515,-11.8105345,2.499142
1570715101,-0.8648987,-3.04422,1.493988,-1.9617157,1.2811127,-0.55758667,-0.8130515,-11.8105345,2.499142
1570715101,-0.23223877,-2.059616,1.7142487,-1.3587646,1.542099,-0.6055298,-0.034977823,-10.902242,2.801714
1570715101,1.2060852,7.377136,-1.6968842,0.9933319,2.1066895,0.11885071,1.7542068,-0.9381962,-2.2121203
1570715101,1.2060852,7.377136,-1.6968842,0.9933319,2.1066895,0.11885071,1.7542068,-0.9381962,-2.2121203
1570715101,-6.2752075,19.606125,1.7555542,1.6846924,1.5048218,-2.2950287,-5.365915,10.977984,3.3806098
1570715101,-6.8025208,18.942322,1.1480255,1.646347,1.1937561,-2.3589478,-5.365915,10.977984,3.3806098
1570715101,-4.4717712,19.612701,-2.6096802,-1.1702118,-3.5700989,-0.44573975,-3.7424474,7.143317,-1.3037882
1570715101,-4.4717712,19.612701,-2.6096802,-1.1702118,-3.5700989,-0.44573975,-3.7424474,7.143317,-1.3037882
1570715101,-1.5927429,15.598221,4.878189,-3.1143188,-4.5139313,-0.029220581,0.16179442,6.917529,4.9349394
1570715101,3.9228973,19.573196,-4.7638702,-3.5702515,-2.3365326,0.35321045,5.2693286,10.674746,-4.583393
1570715101,3.9228973,19.573196,-4.7638702,-3.5702515,-2.3365326,0.35321045,5.2693286,10.674746,-4.583393
1570715101,3.9228973,19.573196,-4.7638702,-3.5702515,-2.3365326,0.35321045,5.2693286,10.674746,-4.583393
1570715101,3.9228973,19.573196,-4.7638702,-3.5702515,-2.3365326,0.35321045,5.2693286,10.674746,-4.583393
1570715101,3.9228973,19.573196,-4.7638702,-3.5702515,-2.3365326,0.35321045,5.2693286,10.674746,-4.583393
1570715101,3.9228973,19.573196,-4.7638702,-3.5702515,-2.3365326,0.35321045,5.2693286,10.674746,-4.583393
1570715101,3.9228973,19.573196,-4.7638702,-3.5702515,-2.3365326,0.35321045,5.2693286,10.674746,-4.583393
1570715101,3.9228973,19.573196,-4.7638702,-3.5702515,-2.3365326,0.35321045,5.2693286,10.674746,-4.583393
1570715101,3.9228973,19.573196,-4.7638702,-3.5702515,-2.3365326,0.35321045,5.2693286,10.674746,-4.583393
1570715101,3.9228973,19.573196,-4.7638702,-3.5702515,-2.3365326,0.35321045,5.2693286,10.674746,-4.583393
1570715101,0.6069336,19.612106,-5.759247,3.668213,-5.7602844,2.0459137,0.70394343,11.076906,-6.0802484
1570715102,-2.1924896,19.612701,11.886612,2.968338,-0.877121,1.5910492,-0.12451127,11.040339,15.725809
1570715102,-7.222107,15.079285,-3.9199066,0.06335449,0.491745,0.5790558,-7.5124626,6.629348,-2.4199762
1570715102,-2.811386,13.630188,0.08319092,0.9123688,-0.55540466,-0.68115234,-2.5761728,5.0757246,1.4940751
1570715102,-2.6270447,13.439255,1.1599884,0.78240967,-0.5404968,-0.64601135,-2.5761728,5.0757246,1.4940751
1570715102,-3.0292664,9.0937805,-3.6140442,0.3605652,-0.031295776,0.4938202,-1.9350599,1.455348,-0.09975767
1570715102,-2.5282745,0.94810486,-0.9582825,-0.97846985,-0.9154663,0.56733704,-2.5386958,-7.6255484,0.8782773
1570715102,-1.6382294,0.38127136,0.27174377,-1.4450531,-0.47657776,0.22538757,-1.6104857,-8.1645775,1.5866325
1570715102,-1.6855164,-1.1522064,0.5279236,-1.68367,0.19985962,-0.12615967,-1.7393582,-9.498541,1.7977369
1570715102,-0.5273285,-1.1378479,2.526474,-1.4003143,0.4086609,-0.19540405,-0.81340355,-9.9781065,2.7272887
1570715102,0.8158264,-0.54707336,3.245346,-0.57792664,1.7594147,-0.12295532,1.0069824,-9.079894,3.7500558
1570715102,1.2994537,-0.13227844,3.4775848,-0.35849,2.8278809,0.32870483,1.3053068,-8.677734,3.6961226
1570715102,-3.731369,18.613129,-17.451935,0.9794922,1.7636719,1.0339203,-3.3952925,9.660224,-17.824507
1570715102,-0.7398071,19.612701,13.807953,0.4681549,0.712265,0.5513458,-1.2926089,11.148667,13.38686
1570715102,-3.250122,5.012863,1.9411011,1.6804352,2.1322632,-0.95173645,-3.5233445,-1.6480179,4.2059536
1570715102,-2.5013428,3.115448,0.35673523,1.535553,1.4547424,-0.8196411,-3.180065,-5.145625,1.8291237
1570715102,-4.6064453,19.612701,-1.7328033,0.4042511,-1.6398468,-1.8987579,-4.069553,11.208288,0.34525526
1570715102,-4.830902,16.87613,-2.9400787,-1.6059113,-3.475296,-1.8497467,-3.9725366,8.846165,-1.7706755
1570715102,-0.8822632,16.13153,0.541687,-3.1217804,-4.584244,-0.8878174,0.06115055,7.451743,1.3505983
1570715102,2.9149475,12.49234,-3.4608154,-6.9450226,0.51838684,0.005935669,4.8830066,4.358966,-4.8918266
1570715102,2.9149475,12.49234,-3.4608154,-6.9450226,0.51838684,0.005935669,4.8830066,4.358966,-4.8918266
1570715102,-0.024536133,15.224136,9.994003,-6.4816284,4.83696,0.57585144,1.6451638,6.675393,6.754708
1570715114,-0.024536133,15.224136,9.994003,-6.4816284,4.83696,0.57585144,1.6451638,6.675393,6.754708
1570715114,-0.024536133,15.224136,9.994003,-6.4816284,4.83696,0.57585144,1.6451638,6.675393,6.754708
1570715114,-0.024536133,15.224136,9.994003,-6.4816284,4.83696,0.57585144,1.6451638,6.675393,6.754708
1570715114,-0.024536133,15.224136,9.994003,-6.4816284,4.83696,0.57585144,1.6451638,6.675393,6.754708
1570715114,-0.024536133,15.224136,9.994003,-6.4816284,4.83696,0.57585144,1.6451638,6.675393,6.754708
1570715114,-0.024536133,15.224136,9.994003,-6.4816284,4.83696,0.57585144,1.6451638,6.675393,6.754708
1570715114,-0.024536133,15.224136,9.994003,-6.4816284,4.83696,0.57585144,1.6451638,6.675393,6.754708
1570715114,-0.024536133,15.224136,9.994003,-6.4816284,4.83696,0.57585144,1.6451638,6.675393,6.754708
1570715114,-0.024536133,15.224136,9.994003,-6.4816284,4.83696,0.57585144,1.6451638,6.675393,6.754708
1570715114,-0.024536133,15.224136,9.994003,-6.4816284,4.83696,0.57585144,1.6451638,6.675393,6.754708
1570715114,-0.024536133,15.224136,9.994003,-6.4816284,4.83696,0.57585144,1.6451638,6.675393,6.754708
1570715114,-0.024536133,15.224136,9.994003,-6.4816284,4.83696,0.57585144,1.6451638,6.675393,6.754708
1570715114,-0.024536133,15.224136,9.994003,-6.4816284,4.83696,0.57585144,1.6451638,6.675393,6.754708
1570715114,-0.024536133,15.224136,9.994003,-6.4816284,4.83696,0.57585144,1.6451638,6.675393,6.754708
1570715114,-0.024536133,15.224136,9.994003,-6.4816284,4.83696,0.57585144,1.6451638,6.675393,6.754708
1570715114,-0.024536133,15.224136,9.994003,-6.4816284,4.83696,0.57585144,1.6451638,6.675393,6.754708
1570715114,-0.024536133,15.224136,9.994003,-6.4816284,4.83696,0.57585144,1.6451638,6.675393,6.754708
1570715114,-0.024536133,15.224136,9.994003,-6.4816284,4.83696,0.57585144,1.6451638,6.675393,6.754708
1570715114,-0.024536133,15.224136,9.994003,-6.4816284,4.83696,0.57585144,1.6451638,6.675393,6.754708
1570715114,-0.024536133,15.224136,9.994003,-6.4816284,4.83696,0.57585144,1.6451638,6.675393,6.754708
1570715114,-0.024536133,15.224136,9.994003,-6.4816284,4.83696,0.57585144,1.6451638,6.675393,6.754708
1570715114,-0.024536133,15.224136,9.994003,-6.4816284,4.83696,0.57585144,1.6451638,6.675393,6.754708
1570715114,-0.024536133,15.224136,9.994003,-6.4816284,4.83696,0.57585144,1.6451638,6.675393,6.754708
1570715114,-0.024536133,15.224136,9.994003,-6.4816284,4.83696,0.57585144,1.6451638,6.675393,6.754708
1570715114,-0.024536133,15.224136,9.994003,-6.4816284,4.83696,0.57585144,1.6451638,6.675393,6.754708
1570715114,-0.024536133,15.224136,9.994003,-6.4816284,4.83696,0.57585144,1.6451638,6.675393,6.754708
1570715114,-0.024536133,15.224136,9.994003,-6.4816284,4.83696,0.57585144,1.6451638,6.675393,6.754708
1570715114,-0.024536133,15.224136,9.994003,-6.4816284,4.83696,0.57585144,1.6451638,6.675393,6.754708
1570715114,-0.024536133,15.224136,9.994003,-6.4816284,4.83696,0.57585144,1.6451638,6.675393,6.754708
1570715114,-0.024536133,15.224136,9.994003,-6.4816284,4.83696,0.57585144,1.6451638,6.675393,6.754708
1570715114,-0.024536133,15.224136,9.994003,-6.4816284,4.83696,0.57585144,1.6451638,6.675393,6.754708
1570715114,-0.024536133,15.224136,9.994003,-6.4816284,4.83696,0.57585144,1.6451638,6.675393,6.754708
1570715114,-0.024536133,15.224136,9.994003,-6.4816284,4.83696,0.57585144,1.6451638,6.675393,6.754708
1570715114,-0.024536133,15.224136,9.994003,-6.4816284,4.83696,0.57585144,1.6451638,6.675393,6.754708
1570715114,-0.024536133,15.224136,9.994003,-6.4816284,4.83696,0.57585144,1.6451638,6.675393,6.754708
1570715114,-0.024536133,15.224136,9.994003,-6.4816284,4.83696,0.57585144,1.6451638,6.675393,6.754708
1570715114,-0.024536133,15.224136,9.994003,-6.4816284,4.83696,0.57585144,1.6451638,6.675393,6.754708
1570715114,-0.024536133,15.224136,9.994003,-6.4816284,4.83696,0.57585144,1.6451638,6.675393,6.754708
1570715114,-0.024536133,15.224136,9.994003,-6.4816284,4.83696,0.57585144,1.6451638,6.675393,6.754708
1570715114,-0.024536133,15.224136,9.994003,-6.4816284,4.83696,0.57585144,1.6451638,6.675393,6.754708
1570715114,-0.024536133,15.224136,9.994003,-6.4816284,4.83696,0.57585144,1.6451638,6.675393,6.754708
1570715114,-0.024536133,15.224136,9.994003,-6.4816284,4.83696,0.57585144,1.6451638,6.675393,6.754708
1570715114,-0.024536133,15.224136,9.994003,-6.4816284,4.83696,0.57585144,1.6451638,6.675393,6.754708
1570715114,-0.024536133,15.224136,9.994003,-6.4816284,4.83696,0.57585144,1.6451638,6.675393,6.754708
1570715114,-0.024536133,15.224136,9.994003,-6.4816284,4.83696,0.57585144,1.6451638,6.675393,6.754708
1570715114,-0.024536133,15.224136,9.994003,-6.4816284,4.83696,0.57585144,1.6451638,6.675393,6.754708
1570715114,-0.024536133,15.224136,9.994003,-6.4816284,4.83696,0.57585144,1.6451638,6.675393,6.754708
1570715114,-0.024536133,15.224136,9.994003,-6.4816284,4.83696,0.57585144,1.6451638,6.675393,6.754708
1570715114,-0.024536133,15.224136,9.994003,-6.4816284,4.83696,0.57585144,1.6451638,6.675393,6.754708
1570715114,-0.024536133,15.224136,9.994003,-6.4816284,4.83696,0.57585144,1.6451638,6.675393,6.754708
1570715114,-0.024536133,15.224136,9.994003,-6.4816284,4.83696,0.57585144,1.6451638,6.675393,6.754708
1570715114,-0.024536133,15.224136,9.994003,-6.4816284,4.83696,0.57585144,1.6451638,6.675393,6.754708
1570715114,-0.024536133,15.224136,9.994003,-6.4816284,4.83696,0.57585144,1.6451638,6.675393,6.754708
1570715114,-0.024536133,15.224136,9.994003,-6.4816284,4.83696,0.57585144,1.6451638,6.675393,6.754708
1570715114,-0.024536133,15.224136,9.994003,-6.4816284,4.83696,0.57585144,1.6451638,6.675393,6.754708
1570715114,-0.024536133,15.224136,9.994003,-6.4816284,4.83696,0.57585144,1.6451638,6.675393,6.754708
1570715114,-0.024536133,15.224136,9.994003,-6.4816284,4.83696,0.57585144,1.6451638,6.675393,6.754708
1570715114,-0.024536133,15.224136,9.994003,-6.4816284,4.83696,0.57585144,1.6451638,6.675393,6.754708
1570715114,-0.024536133,15.224136,9.994003,-6.4816284,4.83696,0.57585144,1.6451638,6.675393,6.754708
1570715114,-0.024536133,15.224136,9.994003,-6.4816284,4.83696,0.57585144,1.6451638,6.675393,6.754708
1570715114,-0.024536133,15.224136,9.994003,-6.4816284,4.83696,0.57585144,1.6451638,6.675393,6.754708
1570715114,-0.024536133,15.224136,9.994003,-6.4816284,4.83696,0.57585144,1.6451638,6.675393,6.754708
1570715114,-0.024536133,15.224136,9.994003,-6.4816284,4.83696,0.57585144,1.6451638,6.675393,6.754708
1570715114,-0.024536133,15.224136,9.994003,-6.4816284,4.83696,0.57585144,1.6451638,6.675393,6.754708
1570715114,-0.024536133,15.224136,9.994003,-6.4816284,4.83696,0.57585144,1.6451638,6.675393,6.754708
1570715114,-0.024536133,15.224136,9.994003,-6.4816284,4.83696,0.57585144,1.6451638,6.675393,6.754708
1570715114,-0.024536133,15.224136,9.994003,-6.4816284,4.83696,0.57585144,1.6451638,6.675393,6.754708
1570715114,-0.024536133,15.224136,9.994003,-6.4816284,4.83696,0.57585144,1.6451638,6.675393,6.754708
1570715114,-0.024536133,15.224136,9.994003,-6.4816284,4.83696,0.57585144,1.6451638,6.675393,6.754708
1570715114,-0.024536133,15.224136,9.994003,-6.4816284,4.83696,0.57585144,1.6451638,6.675393,6.754708
1570715114,-0.024536133,15.224136,9.994003,-6.4816284,4.83696,0.57585144,1.6451638,6.675393,6.754708
1570715114,-0.024536133,15.224136,9.994003,-6.4816284,4.83696,0.57585144,1.6451638,6.675393,6.754708
1570715114,-0.024536133,15.224136,9.994003,-6.4816284,4.83696,0.57585144,1.6451638,6.675393,6.754708
1570715114,-0.024536133,15.224136,9.994003,-6.4816284,4.83696,0.57585144,1.6451638,6.675393,6.754708
1570715114,-0.024536133,15.224136,9.994003,-6.4816284,4.83696,0.57585144,1.6451638,6.675393,6.754708
1570715114,-0.024536133,15.224136,9.994003,-6.4816284,4.83696,0.57585144,1.6451638,6.675393,6.754708
1570715114,-0.024536133,15.224136,9.994003,-6.4816284,4.83696,0.57585144,1.6451638,6.675393,6.754708
1570715114,-0.024536133,15.224136,9.994003,-6.4816284,4.83696,0.57585144,1.6451638,6.675393,6.754708
1570715114,-0.024536133,15.224136,9.994003,-6.4816284,4.83696,0.57585144,1.6451638,6.675393,6.754708
1570715114,-0.024536133,15.224136,9.994003,-6.4816284,4.83696,0.57585144,1.6451638,6.675393,6.754708
1570715114,-0.024536133,15.224136,9.994003,-6.4816284,4.83696,0.57585144,1.6451638,6.675393,6.754708
1570715114,-0.024536133,15.224136,9.994003,-6.4816284,4.83696,0.57585144,1.6451638,6.675393,6.754708
1570715114,-0.024536133,15.224136,9.994003,-6.4816284,4.83696,0.57585144,1.6451638,6.675393,6.754708
1570715114,-0.024536133,15.224136,9.994003,-6.4816284,4.83696,0.57585144,1.6451638,6.675393,6.754708
1570715114,-0.024536133,15.224136,9.994003,-6.4816284,4.83696,0.57585144,1.6451638,6.675393,6.754708
1570715114,-0.024536133,15.224136,9.994003,-6.4816284,4.83696,0.57585144,1.6451638,6.675393,6.754708
1570715114,-0.024536133,15.224136,9.994003,-6.4816284,4.83696,0.57585144,1.6451638,6.675393,6.754708
1570715114,-0.024536133,15.224136,9.994003,-6.4816284,4.83696,0.57585144,1.6451638,6.675393,6.754708
1570715114,-0.024536133,15.224136,9.994003,-6.4816284,4.83696,0.57585144,1.6451638,6.675393,6.754708
1570715114,-0.024536133,15.224136,9.994003,-6.4816284,4.83696,0.57585144,1.6451638,6.675393,6.754708
1570715114,-0.024536133,15.224136,9.994003,-6.4816284,4.83696,0.57585144,1.6451638,6.675393,6.754708
1570715114,-0.024536133,15.224136,9.994003,-6.4816284,4.83696,0.57585144,1.6451638,6.675393,6.754708
1570715114,-0.024536133,15.224136,9.994003,-6.4816284,4.83696,0.57585144,1.6451638,6.675393,6.754708
1570715114,-0.024536133,15.224136,9.994003,-6.4816284,4.83696,0.57585144,1.6451638,6.675393,6.754708
1570715114,-0.024536133,15.224136,9.994003,-6.4816284,4.83696,0.57585144,1.6451638,6.675393,6.754708
1570715114,-0.024536133,15.224136,9.994003,-6.4816284,4.83696,0.57585144,1.6451638,6.675393,6.754708
1570715114,-0.024536133,15.224136,9.994003,-6.4816284,4.83696,0.57585144,1.6451638,6.675393,6.754708
1570715114,-0.024536133,15.224136,9.994003,-6.4816284,4.83696,0.57585144,1.6451638,6.675393,6.754708
1570715114,-0.024536133,15.224136,9.994003,-6.4816284,4.83696,0.57585144,1.6451638,6.675393,6.754708
1570715114,-0.024536133,15.224136,9.994003,-6.4816284,4.83696,0.57585144,1.6451638,6.675393,6.754708
1570715114,-0.024536133,15.224136,9.994003,-6.4816284,4.83696,0.57585144,1.6451638,6.675393,6.754708
1570715114,-0.024536133,15.224136,9.994003,-6.4816284,4.83696,0.57585144,1.6451638,6.675393,6.754708
1570715114,-0.024536133,15.224136,9.994003,-6.4816284,4.83696,0.57585144,1.6451638,6.675393,6.754708
1570715114,-0.024536133,15.224136,9.994003,-6.4816284,4.83696,0.57585144,1.6451638,6.675393,6.754708
1570715114,-0.024536133,15.224136,9.994003,-6.4816284,4.83696,0.57585144,1.6451638,6.675393,6.754708
1570715114,-0.024536133,15.224136,9.994003,-6.4816284,4.83696,0.57585144,1.6451638,6.675393,6.754708
1570715114,-0.024536133,15.224136,9.994003,-6.4816284,4.83696,0.57585144,1.6451638,6.675393,6.754708
1570715114,-0.024536133,15.224136,9.994003,-6.4816284,4.83696,0.57585144,1.6451638,6.675393,6.754708
1570715114,-0.024536133,15.224136,9.994003,-6.4816284,4.83696,0.57585144,1.6451638,6.675393,6.754708
1570715114,-0.024536133,15.224136,9.994003,-6.4816284,4.83696,0.57585144,1.6451638,6.675393,6.754708
1570715114,-0.024536133,15.224136,9.994003,-6.4816284,4.83696,0.57585144,1.6451638,6.675393,6.754708
1570715114,-0.024536133,15.224136,9.994003,-6.4816284,4.83696,0.57585144,1.6451638,6.675393,6.754708
1570715114,-0.024536133,15.224136,9.994003,-6.4816284,4.83696,0.57585144,1.6451638,6.675393,6.754708
1570715114,-0.024536133,15.224136,9.994003,-6.4816284,4.83696,0.57585144,1.6451638,6.675393,6.754708
1570715114,-0.024536133,15.224136,9.994003,-6.4816284,4.83696,0.57585144,1.6451638,6.675393,6.754708
1570715114,-0.024536133,15.224136,9.994003,-6.4816284,4.83696,0.57585144,1.6451638,6.675393,6.754708
1570715114,-0.024536133,15.224136,9.994003,-6.4816284,4.83696,0.57585144,1.6451638,6.675393,6.754708
1570715114,-0.024536133,15.224136,9.994003,-6.4816284,4.83696,0.57585144,1.6451638,6.675393,6.754708
1570715114,-0.024536133,15.224136,9.994003,-6.4816284,4.83696,0.57585144,1.6451638,6.675393,6.754708
1570715114,-0.024536133,15.224136,9.994003,-6.4816284,4.83696,0.57585144,1.6451638,6.675393,6.754708
1570715114,-0.024536133,15.224136,9.994003,-6.4816284,4.83696,0.57585144,1.6451638,6.675393,6.754708
1570715114,-0.024536133,15.224136,9.994003,-6.4816284,4.83696,0.57585144,1.6451638,6.675393,6.754708
1570715114,-0.024536133,15.224136,9.994003,-6.4816284,4.83696,0.57585144,1.6451638,6.675393,6.754708
1570715114,-0.024536133,15.224136,9.994003,-6.4816284,4.83696,0.57585144,1.6451638,6.675393,6.754708
1570715114,-0.024536133,15.224136,9.994003,-6.4816284,4.83696,0.57585144,1.6451638,6.675393,6.754708
1570715114,-0.024536133,15.224136,9.994003,-6.4816284,4.83696,0.57585144,1.6451638,6.675393,6.754708
1570715114,-0.024536133,15.224136,9.994003,-6.4816284,4.83696,0.57585144,1.6451638,6.675393,6.754708
1570715114,-0.024536133,15.224136,9.994003,-6.4816284,4.83696,0.57585144,1.6451638,6.675393,6.754708
1570715114,-0.024536133,15.224136,9.994003,-6.4816284,4.83696,0.57585144,1.6451638,6.675393,6.754708
1570715114,-0.024536133,15.224136,9.994003,-6.4816284,4.83696,0.57585144,1.6451638,6.675393,6.754708
1570715114,-0.024536133,15.224136,9.994003,-6.4816284,4.83696,0.57585144,1.6451638,6.675393,6.754708
1570715114,-0.024536133,15.224136,9.994003,-6.4816284,4.83696,0.57585144,1.6451638,6.675393,6.754708
1570715114,-0.024536133,15.224136,9.994003,-6.4816284,4.83696,0.57585144,1.6451638,6.675393,6.754708
1570715114,-0.024536133,15.224136,9.994003,-6.4816284,4.83696,0.57585144,1.6451638,6.675393,6.754708
1570715114,-0.024536133,15.224136,9.994003,-6.4816284,4.83696,0.57585144,1.6451638,6.675393,6.754708
1570715114,-0.024536133,15.224136,9.994003,-6.4816284,4.83696,0.57585144,1.6451638,6.675393,6.754708
1570715114,-0.024536133,15.224136,9.994003,-6.4816284,4.83696,0.57585144,1.6451638,6.675393,6.754708
1570715114,-0.024536133,15.224136,9.994003,-6.4816284,4.83696,0.57585144,1.6451638,6.675393,6.754708
1570715114,-0.024536133,15.224136,9.994003,-6.4816284,4.83696,0.57585144,1.6451638,6.675393,6.754708
1570715114,-0.024536133,15.224136,9.994003,-6.4816284,4.83696,0.57585144,1.6451638,6.675393,6.754708
1570715114,-0.024536133,15.224136,9.994003,-6.4816284,4.83696,0.57585144,1.6451638,6.675393,6.754708
1570715114,-0.024536133,15.224136,9.994003,-6.4816284,4.83696,0.57585144,1.6451638,6.675393,6.754708
1570715114,-0.024536133,15.224136,9.994003,-6.4816284,4.83696,0.57585144,1.6451638,6.675393,6.754708
1570715114,-0.024536133,15.224136,9.994003,-6.4816284,4.83696,0.57585144,1.6451638,6.675393,6.754708
1570715114,-0.024536133,15.224136,9.994003,-6.4816284,4.83696,0.57585144,1.6451638,6.675393,6.754708
1570715114,-0.024536133,15.224136,9.994003,-6.4816284,4.83696,0.57585144,1.6451638,6.675393,6.754708
1570715114,-0.024536133,15.224136,9.994003,-6.4816284,4.83696,0.57585144,1.6451638,6.675393,6.754708
1570715114,-0.024536133,15.224136,9.994003,-6.4816284,4.83696,0.57585144,1.6451638,6.675393,6.754708
1570715114,-0.024536133,15.224136,9.994003,-6.4816284,4.83696,0.57585144,1.6451638,6.675393,6.754708
1570715114,-0.024536133,15.224136,9.994003,-6.4816284,4.83696,0.57585144,1.6451638,6.675393,6.754708
1570715114,-0.024536133,15.224136,9.994003,-6.4816284,4.83696,0.57585144,1.6451638,6.675393,6.754708
1570715114,-0.024536133,15.224136,9.994003,-6.4816284,4.83696,0.57585144,1.6451638,6.675393,6.754708
1570715114,-0.024536133,15.224136,9.994003,-6.4816284,4.83696,0.57585144,1.6451638,6.675393,6.754708
1570715114,-0.024536133,15.224136,9.994003,-6.4816284,4.83696,0.57585144,1.6451638,6.675393,6.754708
1570715114,-0.024536133,15.224136,9.994003,-6.4816284,4.83696,0.57585144,1.6451638,6.675393,6.754708
1570715114,-0.024536133,15.224136,9.994003,-6.4816284,4.83696,0.57585144,1.6451638,6.675393,6.754708
1570715114,-0.024536133,15.224136,9.994003,-6.4816284,4.83696,0.57585144,1.6451638,6.675393,6.754708
1570715114,-0.024536133,15.224136,9.994003,-6.4816284,4.83696,0.57585144,1.6451638,6.675393,6.754708
1570715114,-0.024536133,15.224136,9.994003,-6.4816284,4.83696,0.57585144,1.6451638,6.675393,6.754708
1570715114,-0.024536133,15.224136,9.994003,-6.4816284,4.83696,0.57585144,1.6451638,6.675393,6.754708
1570715114,-0.024536133,15.224136,9.994003,-6.4816284,4.83696,0.57585144,1.6451638,6.675393,6.754708
1570715114,-0.024536133,15.224136,9.994003,-6.4816284,4.83696,0.57585144,1.6451638,6.675393,6.754708
1570715114,-0.024536133,15.224136,9.994003,-6.4816284,4.83696,0.57585144,1.6451638,6.675393,6.754708
1570715114,-0.024536133,15.224136,9.994003,-6.4816284,4.83696,0.57585144,1.6451638,6.675393,6.754708
1570715114,-0.024536133,15.224136,9.994003,-6.4816284,4.83696,0.57585144,1.6451638,6.675393,6.754708
1570715114,-0.024536133,15.224136,9.994003,-6.4816284,4.83696,0.57585144,1.6451638,6.675393,6.754708
1570715114,-0.024536133,15.224136,9.994003,-6.4816284,4.83696,0.57585144,1.6451638,6.675393,6.754708
1570715114,-0.024536133,15.224136,9.994003,-6.4816284,4.83696,0.57585144,1.6451638,6.675393,6.754708
1570715114,-0.024536133,15.224136,9.994003,-6.4816284,4.83696,0.57585144,1.6451638,6.675393,6.754708
1570715114,-0.024536133,15.224136,9.994003,-6.4816284,4.83696,0.57585144,1.6451638,6.675393,6.754708
1570715114,-0.024536133,15.224136,9.994003,-6.4816284,4.83696,0.57585144,1.6451638,6.675393,6.754708
1570715114,-0.024536133,15.224136,9.994003,-6.4816284,4.83696,0.57585144,1.6451638,6.675393,6.754708
1570715114,-0.024536133,15.224136,9.994003,-6.4816284,4.83696,0.57585144,1.6451638,6.675393,6.754708
1570715114,-0.024536133,15.224136,9.994003,-6.4816284,4.83696,0.57585144,1.6451638,6.675393,6.754708
1570715114,-0.024536133,15.224136,9.994003,-6.4816284,4.83696,0.57585144,1.6451638,6.675393,6.754708
1570715114,-0.024536133,15.224136,9.994003,-6.4816284,4.83696,0.57585144,1.6451638,6.675393,6.754708
1570715114,-0.024536133,15.224136,9.994003,-6.4816284,4.83696,0.57585144,1.6451638,6.675393,6.754708
1570715114,-0.024536133,15.224136,9.994003,-6.4816284,4.83696,0.57585144,1.6451638,6.675393,6.754708
1570715114,-0.024536133,15.224136,9.994003,-6.4816284,4.83696,0.57585144,1.6451638,6.675393,6.754708
1570715114,-0.024536133,15.224136,9.994003,-6.4816284,4.83696,0.57585144,1.6451638,6.675393,6.754708
1570715114,-0.024536133,15.224136,9.994003,-6.4816284,4.83696,0.57585144,1.6451638,6.675393,6.754708
1570715114,-0.024536133,15.224136,9.994003,-6.4816284,4.83696,0.57585144,1.6451638,6.675393,6.754708
1570715114,-0.024536133,15.224136,9.994003,-6.4816284,4.83696,0.57585144,1.6451638,6.675393,6.754708
1570715114,-0.024536133,15.224136,9.994003,-6.4816284,4.83696,0.57585144,1.6451638,6.675393,6.754708
1570715114,-0.024536133,15.224136,9.994003,-6.4816284,4.83696,0.57585144,1.6451638,6.675393,6.754708
1570715114,-0.024536133,15.224136,9.994003,-6.4816284,4.83696,0.57585144,1.6451638,6.675393,6.754708
1570715114,-0.024536133,15.224136,9.994003,-6.4816284,4.83696,0.57585144,1.6451638,6.675393,6.754708
1570715114,-0.024536133,15.224136,9.994003,-6.4816284,4.83696,0.57585144,1.6451638,6.675393,6.754708
1570715114,-0.024536133,15.224136,9.994003,-6.4816284,4.83696,0.57585144,1.6451638,6.675393,6.754708
1570715114,-0.024536133,15.224136,9.994003,-6.4816284,4.83696,0.57585144,1.6451638,6.675393,6.754708
1570715114,-0.024536133,15.224136,9.994003,-6.4816284,4.83696,0.57585144,1.6451638,6.675393,6.754708
1570715114,-0.024536133,15.224136,9.994003,-6.4816284,4.83696,0.57585144,1.6451638,6.675393,6.754708
1570715114,-0.024536133,15.224136,9.994003,-6.4816284,4.83696,0.57585144,1.6451638,6.675393,6.754708
1570715114,-0.024536133,15.224136,9.994003,-6.4816284,4.83696,0.57585144,1.6451638,6.675393,6.754708
1570715114,-0.024536133,15.224136,9.994003,-6.4816284,4.83696,0.57585144,1.6451638,6.675393,6.754708
1570715114,-0.024536133,15.224136,9.994003,-6.4816284,4.83696,0.57585144,1.6451638,6.675393,6.754708
1570715114,-0.024536133,15.224136,9.994003,-6.4816284,4.83696,0.57585144,1.6451638,6.675393,6.754708
1570715114,-0.024536133,15.224136,9.994003,-6.4816284,4.83696,0.57585144,1.6451638,6.675393,6.754708
1570715114,-0.024536133,15.224136,9.994003,-6.4816284,4.83696,0.57585144,1.6451638,6.675393,6.754708
1570715114,-0.024536133,15.224136,9.994003,-6.4816284,4.83696,0.57585144,1.6451638,6.675393,6.754708
1570715114,-0.024536133,15.224136,9.994003,-6.4816284,4.83696,0.57585144,1.6451638,6.675393,6.754708
1570715114,-0.024536133,15.224136,9.994003,-6.4816284,4.83696,0.57585144,1.6451638,6.675393,6.754708
1570715114,-0.024536133,15.224136,9.994003,-6.4816284,4.83696,0.57585144,1.6451638,6.675393,6.754708
1570715114,-0.024536133,15.224136,9.994003,-6.4816284,4.83696,0.57585144,1.6451638,6.675393,6.754708
1570715114,-0.024536133,15.224136,9.994003,-6.4816284,4.83696,0.57585144,1.6451638,6.675393,6.754708
1570715114,-0.024536133,15.224136,9.994003,-6.4816284,4.83696,0.57585144,1.6451638,6.675393,6.754708
1570715114,-0.024536133,15.224136,9.994003,-6.4816284,4.83696,0.57585144,1.6451638,6.675393,6.754708
1570715114,-0.024536133,15.224136,9.994003,-6.4816284,4.83696,0.57585144,1.6451638,6.675393,6.754708
1570715114,-0.024536133,15.224136,9.994003,-6.4816284,4.83696,0.57585144,1.6451638,6.675393,6.754708
1570715114,-0.024536133,15.224136,9.994003,-6.4816284,4.83696,0.57585144,1.6451638,6.675393,6.754708
1570715114,-0.024536133,15.224136,9.994003,-6.4816284,4.83696,0.57585144,1.6451638,6.675393,6.754708
1570715114,-0.024536133,15.224136,9.994003,-6.4816284,4.83696,0.57585144,1.6451638,6.675393,6.754708
1570715114,-0.024536133,15.224136,9.994003,-6.4816284,4.83696,0.57585144,1.6451638,6.675393,6.754708
1570715114,-0.024536133,15.224136,9.994003,-6.4816284,4.83696,0.57585144,1.6451638,6.675393,6.754708
1570715114,-0.024536133,15.224136,9.994003,-6.4816284,4.83696,0.57585144,1.6451638,6.675393,6.754708
1570715114,-0.024536133,15.224136,9.994003,-6.4816284,4.83696,0.57585144,1.6451638,6.675393,6.754708
1570715114,-0.024536133,15.224136,9.994003,-6.4816284,4.83696,0.57585144,1.6451638,6.675393,6.754708
1570715114,-0.024536133,15.224136,9.994003,-6.4816284,4.83696,0.57585144,1.6451638,6.675393,6.754708
1570715114,-0.024536133,15.224136,9.994003,-6.4816284,4.83696,0.57585144,1.6451638,6.675393,6.754708
1570715114,-0.024536133,15.224136,9.994003,-6.4816284,4.83696,0.57585144,1.6451638,6.675393,6.754708
1570715114,-0.024536133,15.224136,9.994003,-6.4816284,4.83696,0.57585144,1.6451638,6.675393,6.754708
1570715114,-0.024536133,15.224136,9.994003,-6.4816284,4.83696,0.57585144,1.6451638,6.675393,6.754708
1570715114,-0.024536133,15.224136,9.994003,-6.4816284,4.83696,0.57585144,1.6451638,6.675393,6.754708
1570715114,-0.024536133,15.224136,9.994003,-6.4816284,4.83696,0.57585144,1.6451638,6.675393,6.754708
1570715114,-0.024536133,15.224136,9.994003,-6.4816284,4.83696,0.57585144,1.6451638,6.675393,6.754708
1570715114,-0.024536133,15.224136,9.994003,-6.4816284,4.83696,0.57585144,1.6451638,6.675393,6.754708
1570715114,-0.024536133,15.224136,9.994003,-6.4816284,4.83696,0.57585144,1.6451638,6.675393,6.754708
1570715114,-0.024536133,15.224136,9.994003,-6.4816284,4.83696,0.57585144,1.6451638,6.675393,6.754708
1570715114,-0.024536133,15.224136,9.994003,-6.4816284,4.83696,0.57585144,1.6451638,6.675393,6.754708
1570715114,-0.024536133,15.224136,9.994003,-6.4816284,4.83696,0.57585144,1.6451638,6.675393,6.754708
1570715114,-0.024536133,15.224136,9.994003,-6.4816284,4.83696,0.57585144,1.6451638,6.675393,6.754708
1570715114,-0.024536133,15.224136,9.994003,-6.4816284,4.83696,0.57585144,1.6451638,6.675393,6.754708
1570715114,-0.024536133,15.224136,9.994003,-6.4816284,4.83696,0.57585144,1.6451638,6.675393,6.754708
1570715114,-0.024536133,15.224136,9.994003,-6.4816284,4.83696,0.57585144,1.6451638,6.675393,6.754708
1570715114,-0.024536133,15.224136,9.994003,-6.4816284,4.83696,0.57585144,1.6451638,6.675393,6.754708
1570715114,-0.024536133,15.224136,9.994003,-6.4816284,4.83696,0.57585144,1.6451638,6.675393,6.754708
1570715114,-0.024536133,15.224136,9.994003,-6.4816284,4.83696,0.57585144,1.6451638,6.675393,6.754708
1570715114,-0.024536133,15.224136,9.994003,-6.4816284,4.83696,0.57585144,1.6451638,6.675393,6.754708
1570715114,-0.024536133,15.224136,9.994003,-6.4816284,4.83696,0.57585144,1.6451638,6.675393,6.754708
1570715114,-0.024536133,15.224136,9.994003,-6.4816284,4.83696,0.57585144,1.6451638,6.675393,6.754708
1570715114,-0.024536133,15.224136,9.994003,-6.4816284,4.83696,0.57585144,1.6451638,6.675393,6.754708
1570715114,-0.024536133,15.224136,9.994003,-6.4816284,4.83696,0.57585144,1.6451638,6.675393,6.754708
1570715114,-0.024536133,15.224136,9.994003,-6.4816284,4.83696,0.57585144,1.6451638,6.675393,6.754708
1570715114,-0.024536133,15.224136,9.994003,-6.4816284,4.83696,0.57585144,1.6451638,6.675393,6.754708
1570715114,-0.024536133,15.224136,9.994003,-6.4816284,4.83696,0.57585144,1.6451638,6.675393,6.754708
1570715114,-0.024536133,15.224136,9.994003,-6.4816284,4.83696,0.57585144,1.6451638,6.675393,6.754708
1570715114,-0.024536133,15.224136,9.994003,-6.4816284,4.83696,0.57585144,1.6451638,6.675393,6.754708
1570715114,-0.024536133,15.224136,9.994003,-6.4816284,4.83696,0.57585144,1.6451638,6.675393,6.754708
1570715114,-0.024536133,15.224136,9.994003,-6.4816284,4.83696,0.57585144,1.6451638,6.675393,6.754708
1570715114,-0.024536133,15.224136,9.994003,-6.4816284,4.83696,0.57585144,1.6451638,6.675393,6.754708
1570715114,-0.024536133,15.224136,9.994003,-6.4816284,4.83696,0.57585144,1.6451638,6.675393,6.754708
1570715114,-0.024536133,15.224136,9.994003,-6.4816284,4.83696,0.57585144,1.6451638,6.675393,6.754708
1570715114,-0.024536133,15.224136,9.994003,-6.4816284,4.83696,0.57585144,1.6451638,6.675393,6.754708
1570715114,-0.024536133,15.224136,9.994003,-6.4816284,4.83696,0.57585144,1.6451638,6.675393,6.754708
1570715114,-0.024536133,15.224136,9.994003,-6.4816284,4.83696,0.57585144,1.6451638,6.675393,6.754708
1570715114,-0.024536133,15.224136,9.994003,-6.4816284,4.83696,0.57585144,1.6451638,6.675393,6.754708
1570715114,-0.024536133,15.224136,9.994003,-6.4816284,4.83696,0.57585144,1.6451638,6.675393,6.754708
1570715114,-0.024536133,15.224136,9.994003,-6.4816284,4.83696,0.57585144,1.6451638,6.675393,6.754708
1570715114,-0.024536133,15.224136,9.994003,-6.4816284,4.83696,0.57585144,1.6451638,6.675393,6.754708
1570715114,-0.024536133,15.224136,9.994003,-6.4816284,4.83696,0.57585144,1.6451638,6.675393,6.754708
1570715114,-0.024536133,15.224136,9.994003,-6.4816284,4.83696,0.57585144,1.6451638,6.675393,6.754708
1570715114,-0.024536133,15.224136,9.994003,-6.4816284,4.83696,0.57585144,1.6451638,6.675393,6.754708
1570715114,-0.024536133,15.224136,9.994003,-6.4816284,4.83696,0.57585144,1.6451638,6.675393,6.754708
1570715114,-0.024536133,15.224136,9.994003,-6.4816284,4.83696,0.57585144,1.6451638,6.675393,6.754708
1570715114,-0.024536133,15.224136,9.994003,-6.4816284,4.83696,0.57585144,1.6451638,6.675393,6.754708
1570715114,-0.024536133,15.224136,9.994003,-6.4816284,4.83696,0.57585144,1.6451638,6.675393,6.754708
1570715114,-0.024536133,15.224136,9.994003,-6.4816284,4.83696,0.57585144,1.6451638,6.675393,6.754708
1570715114,-0.024536133,15.224136,9.994003,-6.4816284,4.83696,0.57585144,1.6451638,6.675393,6.754708
1570715114,-0.024536133,15.224136,9.994003,-6.4816284,4.83696,0.57585144,1.6451638,6.675393,6.754708
1570715114,-0.024536133,15.224136,9.994003,-6.4816284,4.83696,0.57585144,1.6451638,6.675393,6.754708
1570715114,-0.024536133,15.224136,9.994003,-6.4816284,4.83696,0.57585144,1.6451638,6.675393,6.754708
1570715114,-0.024536133,15.224136,9.994003,-6.4816284,4.83696,0.57585144,1.6451638,6.675393,6.754708
1570715114,-0.024536133,15.224136,9.994003,-6.4816284,4.83696,0.57585144,1.6451638,6.675393,6.754708
1570715114,-0.024536133,15.224136,9.994003,-6.4816284,4.83696,0.57585144,1.6451638,6.675393,6.754708
1570715114,-0.024536133,15.224136,9.994003,-6.4816284,4.83696,0.57585144,1.6451638,6.675393,6.754708
1570715114,-0.024536133,15.224136,9.994003,-6.4816284,4.83696,0.57585144,1.6451638,6.675393,6.754708
1570715114,-0.024536133,15.224136,9.994003,-6.4816284,4.83696,0.57585144,1.6451638,6.675393,6.754708
1570715114,-0.024536133,15.224136,9.994003,-6.4816284,4.83696,0.57585144,1.6451638,6.675393,6.754708
1570715114,-0.024536133,15.224136,9.994003,-6.4816284,4.83696,0.57585144,1.6451638,6.675393,6.754708
1570715114,-0.024536133,15.224136,9.994003,-6.4816284,4.83696,0.57585144,1.6451638,6.675393,6.754708
1570715114,-0.024536133,15.224136,9.994003,-6.4816284,4.83696,0.57585144,1.6451638,6.675393,6.754708
1570715114,-0.024536133,15.224136,9.994003,-6.4816284,4.83696,0.57585144,1.6451638,6.675393,6.754708
1570715114,-0.024536133,15.224136,9.994003,-6.4816284,4.83696,0.57585144,1.6451638,6.675393,6.754708
1570715114,-0.024536133,15.224136,9.994003,-6.4816284,4.83696,0.57585144,1.6451638,6.675393,6.754708
1570715114,-0.024536133,15.224136,9.994003,-6.4816284,4.83696,0.57585144,1.6451638,6.675393,6.754708
1570715114,-0.024536133,15.224136,9.994003,-6.4816284,4.83696,0.57585144,1.6451638,6.675393,6.754708
1570715114,-0.024536133,15.224136,9.994003,-6.4816284,4.83696,0.57585144,1.6451638,6.675393,6.754708
1570715114,-0.024536133,15.224136,9.994003,-6.4816284,4.83696,0.57585144,1.6451638,6.675393,6.754708
1570715114,-0.024536133,15.224136,9.994003,-6.4816284,4.83696,0.57585144,1.6451638,6.675393,6.754708
1570715114,-0.024536133,15.224136,9.994003,-6.4816284,4.83696,0.57585144,1.6451638,6.675393,6.754708
1570715114,-0.024536133,15.224136,9.994003,-6.4816284,4.83696,0.57585144,1.6451638,6.675393,6.754708
1570715114,-0.024536133,15.224136,9.994003,-6.4816284,4.83696,0.57585144,1.6451638,6.675393,6.754708
1570715114,-0.024536133,15.224136,9.994003,-6.4816284,4.83696,0.57585144,1.6451638,6.675393,6.754708
1570715114,-0.024536133,15.224136,9.994003,-6.4816284,4.83696,0.57585144,1.6451638,6.675393,6.754708
1570715114,-0.024536133,15.224136,9.994003,-6.4816284,4.83696,0.57585144,1.6451638,6.675393,6.754708
1570715114,-0.024536133,15.224136,9.994003,-6.4816284,4.83696,0.57585144,1.6451638,6.675393,6.754708
1570715114,-0.024536133,15.224136,9.994003,-6.4816284,4.83696,0.57585144,1.6451638,6.675393,6.754708
1570715114,-0.024536133,15.224136,9.994003,-6.4816284,4.83696,0.57585144,1.6451638,6.675393,6.754708
1570715114,-0.024536133,15.224136,9.994003,-6.4816284,4.83696,0.57585144,1.6451638,6.675393,6.754708
1570715114,-0.024536133,15.224136,9.994003,-6.4816284,4.83696,0.57585144,1.6451638,6.675393,6.754708
1570715114,-0.024536133,15.224136,9.994003,-6.4816284,4.83696,0.57585144,1.6451638,6.675393,6.754708
1570715114,-0.024536133,15.224136,9.994003,-6.4816284,4.83696,0.57585144,1.6451638,6.675393,6.754708
1570715114,-0.024536133,15.224136,9.994003,-6.4816284,4.83696,0.57585144,1.6451638,6.675393,6.754708
1570715114,-0.024536133,15.224136,9.994003,-6.4816284,4.83696,0.57585144,1.6451638,6.675393,6.754708
1570715114,-0.024536133,15.224136,9.994003,-6.4816284,4.83696,0.57585144,1.6451638,6.675393,6.754708
1570715114,-0.024536133,15.224136,9.994003,-6.4816284,4.83696,0.57585144,1.6451638,6.675393,6.754708
1570715114,-0.024536133,15.224136,9.994003,-6.4816284,4.83696,0.57585144,1.6451638,6.675393,6.754708
1570715114,-0.024536133,15.224136,9.994003,-6.4816284,4.83696,0.57585144,1.6451638,6.675393,6.754708
1570715114,-0.024536133,15.224136,9.994003,-6.4816284,4.83696,0.57585144,1.6451638,6.675393,6.754708
1570715114,-0.024536133,15.224136,9.994003,-6.4816284,4.83696,0.57585144,1.6451638,6.675393,6.754708
1570715114,-0.024536133,15.224136,9.994003,-6.4816284,4.83696,0.57585144,1.6451638,6.675393,6.754708
1570715114,-0.024536133,15.224136,9.994003,-6.4816284,4.83696,0.57585144,1.6451638,6.675393,6.754708
1570715114,-0.024536133,15.224136,9.994003,-6.4816284,4.83696,0.57585144,1.6451638,6.675393,6.754708
1570715114,-0.024536133,15.224136,9.994003,-6.4816284,4.83696,0.57585144,1.6451638,6.675393,6.754708
1570715114,-0.024536133,15.224136,9.994003,-6.4816284,4.83696,0.57585144,1.6451638,6.675393,6.754708
1570715114,-0.024536133,15.224136,9.994003,-6.4816284,4.83696,0.57585144,1.6451638,6.675393,6.754708
1570715114,-0.024536133,15.224136,9.994003,-6.4816284,4.83696,0.57585144,1.6451638,6.675393,6.754708
1570715114,-0.024536133,15.224136,9.994003,-6.4816284,4.83696,0.57585144,1.6451638,6.675393,6.754708
1570715114,-0.024536133,15.224136,9.994003,-6.4816284,4.83696,0.57585144,1.6451638,6.675393,6.754708
1570715114,-0.024536133,15.224136,9.994003,-6.4816284,4.83696,0.57585144,1.6451638,6.675393,6.754708
1570715114,-0.024536133,15.224136,9.994003,-6.4816284,4.83696,0.57585144,1.6451638,6.675393,6.754708
1570715114,-0.024536133,15.224136,9.994003,-6.4816284,4.83696,0.57585144,1.6451638,6.675393,6.754708
1570715114,-0.024536133,15.224136,9.994003,-6.4816284,4.83696,0.57585144,1.6451638,6.675393,6.754708
1570715114,-0.024536133,15.224136,9.994003,-6.4816284,4.83696,0.57585144,1.6451638,6.675393,6.754708
1570715114,-0.024536133,15.224136,9.994003,-6.4816284,4.83696,0.57585144,1.6451638,6.675393,6.754708
1570715114,-0.024536133,15.224136,9.994003,-6.4816284,4.83696,0.57585144,1.6451638,6.675393,6.754708
1570715114,-0.024536133,15.224136,9.994003,-6.4816284,4.83696,0.57585144,1.6451638,6.675393,6.754708
1570715114,-0.024536133,15.224136,9.994003,-6.4816284,4.83696,0.57585144,1.6451638,6.675393,6.754708
1570715114,-0.024536133,15.224136,9.994003,-6.4816284,4.83696,0.57585144,1.6451638,6.675393,6.754708
1570715114,-0.024536133,15.224136,9.994003,-6.4816284,4.83696,0.57585144,1.6451638,6.675393,6.754708
1570715114,-0.024536133,15.224136,9.994003,-6.4816284,4.83696,0.57585144,1.6451638,6.675393,6.754708
1570715114,-0.024536133,15.224136,9.994003,-6.4816284,4.83696,0.57585144,1.6451638,6.675393,6.754708
1570715114,-0.024536133,15.224136,9.994003,-6.4816284,4.83696,0.57585144,1.6451638,6.675393,6.754708
1570715114,-0.024536133,15.224136,9.994003,-6.4816284,4.83696,0.57585144,1.6451638,6.675393,6.754708
1570715114,-0.024536133,15.224136,9.994003,-6.4816284,4.83696,0.57585144,1.6451638,6.675393,6.754708
1570715114,-0.024536133,15.224136,9.994003,-6.4816284,4.83696,0.57585144,1.6451638,6.675393,6.754708
1570715114,-0.024536133,15.224136,9.994003,-6.4816284,4.83696,0.57585144,1.6451638,6.675393,6.754708
1570715114,-0.024536133,15.224136,9.994003,-6.4816284,4.83696,0.57585144,1.6451638,6.675393,6.754708
1570715114,-0.024536133,15.224136,9.994003,-6.4816284,4.83696,0.57585144,1.6451638,6.675393,6.754708
1570715114,-0.024536133,15.224136,9.994003,-6.4816284,4.83696,0.57585144,1.6451638,6.675393,6.754708
1570715114,-0.024536133,15.224136,9.994003,-6.4816284,4.83696,0.57585144,1.6451638,6.675393,6.754708
1570715114,-0.024536133,15.224136,9.994003,-6.4816284,4.83696,0.57585144,1.6451638,6.675393,6.754708
1570715114,-0.024536133,15.224136,9.994003,-6.4816284,4.83696,0.57585144,1.6451638,6.675393,6.754708
1570715114,-0.024536133,15.224136,9.994003,-6.4816284,4.83696,0.57585144,1.6451638,6.675393,6.754708
1570715114,-0.024536133,15.224136,9.994003,-6.4816284,4.83696,0.57585144,1.6451638,6.675393,6.754708
1570715114,-0.024536133,15.224136,9.994003,-6.4816284,4.83696,0.57585144,1.6451638,6.675393,6.754708
1570715114,-0.024536133,15.224136,9.994003,-6.4816284,4.83696,0.57585144,1.6451638,6.675393,6.754708
1570715114,-0.024536133,15.224136,9.994003,-6.4816284,4.83696,0.57585144,1.6451638,6.675393,6.754708
1570715114,-0.024536133,15.224136,9.994003,-6.4816284,4.83696,0.57585144,1.6451638,6.675393,6.754708
1570715114,-0.024536133,15.224136,9.994003,-6.4816284,4.83696,0.57585144,1.6451638,6.675393,6.754708
1570715114,-0.024536133,15.224136,9.994003,-6.4816284,4.83696,0.57585144,1.6451638,6.675393,6.754708
1570715114,-0.024536133,15.224136,9.994003,-6.4816284,4.83696,0.57585144,1.6451638,6.675393,6.754708
1570715114,-0.024536133,15.224136,9.994003,-6.4816284,4.83696,0.57585144,1.6451638,6.675393,6.754708
1570715114,-0.024536133,15.224136,9.994003,-6.4816284,4.83696,0.57585144,1.6451638,6.675393,6.754708
1570715114,-0.024536133,15.224136,9.994003,-6.4816284,4.83696,0.57585144,1.6451638,6.675393,6.754708
1570715114,-0.024536133,15.224136,9.994003,-6.4816284,4.83696,0.57585144,1.6451638,6.675393,6.754708
1570715114,-0.024536133,15.224136,9.994003,-6.4816284,4.83696,0.57585144,1.6451638,6.675393,6.754708
1570715114,-0.024536133,15.224136,9.994003,-6.4816284,4.83696,0.57585144,1.6451638,6.675393,6.754708
1570715114,-0.024536133,15.224136,9.994003,-6.4816284,4.83696,0.57585144,1.6451638,6.675393,6.754708
1570715114,-0.024536133,15.224136,9.994003,-6.4816284,4.83696,0.57585144,1.6451638,6.675393,6.754708
1570715114,-0.024536133,15.224136,9.994003,-6.4816284,4.83696,0.57585144,1.6451638,6.675393,6.754708
1570715114,-0.024536133,15.224136,9.994003,-6.4816284,4.83696,0.57585144,1.6451638,6.675393,6.754708
1570715114,-0.024536133,15.224136,9.994003,-6.4816284,4.83696,0.57585144,1.6451638,6.675393,6.754708
1570715114,-0.024536133,15.224136,9.994003,-6.4816284,4.83696,0.57585144,1.6451638,6.675393,6.754708
1570715114,-0.024536133,15.224136,9.994003,-6.4816284,4.83696,0.57585144,1.6451638,6.675393,6.754708
1570715114,-0.024536133,15.224136,9.994003,-6.4816284,4.83696,0.57585144,1.6451638,6.675393,6.754708
1570715114,-0.024536133,15.224136,9.994003,-6.4816284,4.83696,0.57585144,1.6451638,6.675393,6.754708
1570715114,-0.024536133,15.224136,9.994003,-6.4816284,4.83696,0.57585144,1.6451638,6.675393,6.754708
1570715114,-0.024536133,15.224136,9.994003,-6.4816284,4.83696,0.57585144,1.6451638,6.675393,6.754708
1570715114,-0.024536133,15.224136,9.994003,-6.4816284,4.83696,0.57585144,1.6451638,6.675393,6.754708
1570715114,-0.024536133,15.224136,9.994003,-6.4816284,4.83696,0.57585144,1.6451638,6.675393,6.754708
1570715114,-0.024536133,15.224136,9.994003,-6.4816284,4.83696,0.57585144,1.6451638,6.675393,6.754708
1570715114,-0.024536133,15.224136,9.994003,-6.4816284,4.83696,0.57585144,1.6451638,6.675393,6.754708
1570715114,-0.024536133,15.224136,9.994003,-6.4816284,4.83696,0.57585144,1.6451638,6.675393,6.754708
1570715114,-0.024536133,15.224136,9.994003,-6.4816284,4.83696,0.57585144,1.6451638,6.675393,6.754708
1570715114,-0.024536133,15.224136,9.994003,-6.4816284,4.83696,0.57585144,1.6451638,6.675393,6.754708
1570715114,-0.024536133,15.224136,9.994003,-6.4816284,4.83696,0.57585144,1.6451638,6.675393,6.754708
1570715114,-0.024536133,15.224136,9.994003,-6.4816284,4.83696,0.57585144,1.6451638,6.675393,6.754708
1570715114,-0.024536133,15.224136,9.994003,-6.4816284,4.83696,0.57585144,1.6451638,6.675393,6.754708
1570715114,-0.024536133,15.224136,9.994003,-6.4816284,4.83696,0.57585144,1.6451638,6.675393,6.754708
1570715114,-0.024536133,15.224136,9.994003,-6.4816284,4.83696,0.57585144,1.6451638,6.675393,6.754708
1570715114,-0.024536133,15.224136,9.994003,-6.4816284,4.83696,0.57585144,1.6451638,6.675393,6.754708
1570715114,-0.024536133,15.224136,9.994003,-6.4816284,4.83696,0.57585144,1.6451638,6.675393,6.754708
1570715114,-0.024536133,15.224136,9.994003,-6.4816284,4.83696,0.57585144,1.6451638,6.675393,6.754708
1570715114,-0.024536133,15.224136,9.994003,-6.4816284,4.83696,0.57585144,1.6451638,6.675393,6.754708
1570715114,-0.024536133,15.224136,9.994003,-6.4816284,4.83696,0.57585144,1.6451638,6.675393,6.754708
1570715114,-0.024536133,15.224136,9.994003,-6.4816284,4.83696,0.57585144,1.6451638,6.675393,6.754708
1570715114,-0.024536133,15.224136,9.994003,-6.4816284,4.83696,0.57585144,1.6451638,6.675393,6.754708
1570715114,-0.024536133,15.224136,9.994003,-6.4816284,4.83696,0.57585144,1.6451638,6.675393,6.754708
1570715114,-0.024536133,15.224136,9.994003,-6.4816284,4.83696,0.57585144,1.6451638,6.675393,6.754708
1570715114,-0.024536133,15.224136,9.994003,-6.4816284,4.83696,0.57585144,1.6451638,6.675393,6.754708
1570715114,-0.024536133,15.224136,9.994003,-6.4816284,4.83696,0.57585144,1.6451638,6.675393,6.754708
1570715114,-0.024536133,15.224136,9.994003,-6.4816284,4.83696,0.57585144,1.6451638,6.675393,6.754708
1570715114,-0.024536133,15.224136,9.994003,-6.4816284,4.83696,0.57585144,1.6451638,6.675393,6.754708
1570715114,-0.024536133,15.224136,9.994003,-6.4816284,4.83696,0.57585144,1.6451638,6.675393,6.754708
1570715114,-0.024536133,15.224136,9.994003,-6.4816284,4.83696,0.57585144,1.6451638,6.675393,6.754708
1570715114,-0.024536133,15.224136,9.994003,-6.4816284,4.83696,0.57585144,1.6451638,6.675393,6.754708
1570715114,-0.024536133,15.224136,9.994003,-6.4816284,4.83696,0.57585144,1.6451638,6.675393,6.754708
1570715114,-0.024536133,15.224136,9.994003,-6.4816284,4.83696,0.57585144,1.6451638,6.675393,6.754708
1570715114,-0.024536133,15.224136,9.994003,-6.4816284,4.83696,0.57585144,1.6451638,6.675393,6.754708
1570715114,-0.024536133,15.224136,9.994003,-6.4816284,4.83696,0.57585144,1.6451638,6.675393,6.754708
1570715114,-0.024536133,15.224136,9.994003,-6.4816284,4.83696,0.57585144,1.6451638,6.675393,6.754708
1570715114,-0.024536133,15.224136,9.994003,-6.4816284,4.83696,0.57585144,1.6451638,6.675393,6.754708
1570715114,-0.024536133,15.224136,9.994003,-6.4816284,4.83696,0.57585144,1.6451638,6.675393,6.754708
1570715114,-0.024536133,15.224136,9.994003,-6.4816284,4.83696,0.57585144,1.6451638,6.675393,6.754708
1570715114,-0.47045898,3.0502167,0.7523804,-6.4816284,4.83696,0.57585144,8.974468,-1.2615995,-10.775332
1570715114,-2.0021515,17.421402,7.226898,-0.19337463,1.1607361,0.053878784,5.3409705,2.3456893,4.9530206
1570715114,-2.0021515,17.421402,7.226898,0.7142334,1.0041351,-0.93362427,5.3409705,2.3456893,4.9530206
1570715114,-2.2337952,12.980759,0.35554504,-9.2332,6.625534,0.7175293,-0.069325924,5.5232506,-3.441293
1570715114,10.601532,8.20253,-8.607758,1.1115723,-3.9141846,0.6578827,13.101517,1.1423411,-15.1920185
1570715114,5.964554,6.4858856,1.8411407,1.2383423,-3.9163208,-0.27635193,9.400296,-0.25407076,-2.7151773
1570715115,1.4179688,-0.40582275,-0.26037598,1.9573975,0.7836304,0.114593506,3.5885358,-7.4767113,-2.1939704
1570715115,1.3479309,-0.68414307,-0.8631134,2.0095978,0.67604065,0.14228821,3.5885358,-7.4767113,-2.1939704
1570715115,2.9945526,0.06285095,1.9321136,2.2215881,-1.2371826,0.42352295,4.8642883,-7.36566,0.49731815
1570715115,2.9945526,0.06285095,1.9321136,2.2215881,-1.2371826,0.42352295,4.8642883,-7.36566,0.49731815
1570715115,-2.6581573,19.580383,-9.54509,4.083664,-4.5054016,2.8224945,-1.2584949,11.993312,-9.106082
1570715115,-2.2499542,19.612701,-9.800659,3.9526367,-4.846298,3.1122437,-1.2584949,11.993312,-9.106082
1570715115,-19.612701,17.861938,-4.604645,1.9797668,0.98176575,-0.67689514,-19.015312,10.889688,-2.6976647
1570715115,-19.612701,17.861938,-4.604645,1.9797668,0.98176575,-0.67689514,-19.015312,10.889688,-2.6976647
1570715115,0.09037781,12.020096,-4.301178,0.9826813,-0.48190308,0.6152649,-0.48518693,4.323286,-2.0939279
1570715115,4.8255157,13.1770935,4.815338,1.296936,-2.9213562,0.6344452,4.6893735,5.2774415,6.1452417
1570715115,-4.087494,2.1523895,1.6855164,-0.5491638,-1.7793884,0.871994,-3.5256658,-5.2564616,3.5860531
1570715115,-2.7994232,-2.7533264,1.3347626,-1.6655579,-0.038757324,0.46826172,-3.2922904,-10.062985,3.1939857
1570715115,-2.9987335,-4.24971,1.9764099,-1.8413391,0.3149109,0.27119446,-2.817375,-11.770291,3.7256584
1570715115,-3.007721,-4.4143066,2.1332397,-2.2993927,1.542099,-0.15278625,-2.7573617,-12.196723,3.38929
1570715115,0.18435669,0.99539185,-0.7841034,-1.0349274,2.6606293,-0.105911255,0.14951883,-7.0773087,0.046369463
1570715115,0.18435669,0.99539185,-0.7841034,-1.0349274,2.6606293,-0.105911255,0.14951883,-7.0773087,0.046369463
1570715115,1.4694366,8.464706,8.827423,1.5738983,1.6933746,0.06239319,1.6128154,1.1970558,1.7662747
1570715115,1.4694366,8.464706,8.827423,1.5738983,1.6933746,0.06239319,1.6416141,0.9364381,8.167924
1570715115,-6.8372345,14.435837,4.766861,0.058029175,0.82943726,-0.7770386,-6.7851667,7.086086,5.673322
1570715115,-6.8372345,14.435837,4.766861,0.058029175,0.82943726,-0.7770386,-6.7851667,7.086086,5.673322
1570715115,0.45610046,19.612701,0.33638,-0.5022888,-5.096634,-1.484375,1.5397928,11.920712,1.419463
1570715115,0.45610046,19.612701,0.33638,-0.5022888,-5.096634,-1.484375,1.5397928,11.920712,1.419463
1570715115,1.2324219,16.989258,0.20709229,-7.0909576,-0.384964,0.743103,2.8923333,9.360693,-5.0174184
1570715115,0.9223633,16.989258,0.20709229,-7.0909576,-0.384964,0.743103,2.8923333,9.360693,-5.0174184
1570715115,-0.91996765,6.329071,-19.612701,-0.52467346,6.41568,2.33461,0.8401915,-0.6651931,-22.665743
1570715115,-0.91996765,6.329071,-19.612701,-0.52467346,6.41568,2.33461,0.8401915,-0.6651931,-22.665743
1570715115,5.3037567,5.9992676,-3.6242218,0.6769562,-2.6997833,-0.47875977,8.58606,-0.04447174,-6.6767454
1570715115,1.5245056,1.324585,0.6105194,0.5640259,-0.08029175,-0.8366852,2.9967058,-5.668498,-2.2780464
1570715115,2.8712463,-0.8822632,-0.7050934,1.8743134,-1.1764526,-0.22628784,4.5166445,-8.265096,-3.04357
1570715115,1.5215149,0.26455688,2.198471,2.0564728,-1.9008331,0.10180664,3.2023776,-7.4552345,0.09464204
1570715115,1.5215149,0.26455688,2.198471,2.0564728,-1.9008331,0.10180664,2.7798243,-6.9670916,0.48848486
1570715115,-0.806839,8.095993,3.4015656,3.5137482,-1.3490295,0.82725525,0.55163646,0.13676739,2.3337002
1570715115,2.8383331,19.612701,-1.2054749,2.4303741,-0.85261536,1.5931854,2.843903,11.8268585,-2.4580083
1570715115,2.7018585,19.612701,-0.3262024,2.2546082,-0.640625,1.3268585,3.2918859,11.8098545,-0.56320256
1570715116,-2.1960754,16.882706,-5.779602,1.7304993,0.11891174,0.99876404,-2.3741152,9.343044,-4.4598465
1570715116,-1.5053558,15.306137,-6.6816254,1.5802917,-0.3157196,0.79849243,-1.2819237,7.685754,-5.716839
1570715116,-0.44352722,8.016983,1.4329224,1.4790955,-2.5921936,-0.3637085,0.4248158,0.49221706,3.2260885
1570715116,-1.2384033,7.3986816,0.86790466,1.4790955,-2.5921936,-0.3637085,0.4248158,0.49221706,3.2260885
1570715116,-3.7565002,-3.020279,0.628479,-1.2607574,0.014511108,0.091156006,-3.4023252,-10.752424,2.1740785
1570715116,-3.367447,-3.1567535,0.61950684,-1.3470459,0.15725708,0.06985474,-3.4023252,-10.752424,2.1740785
1570715116,-0.0909729,-3.9312744,3.0909119,-2.2972717,0.73568726,-0.48194885,0.30183566,-11.678493,3.1277602
1570715116,-0.0909729,-3.9312744,3.0909119,-2.2972717,0.73568726,-0.48194885,0.30183566,-11.678493,3.1277602
1570715116,3.5093079,7.079651,-4.553772,1.1605835,3.6502533,0.24562073,4.106128,-0.9896369,-1.9983118
1570715116,3.351883,7.079651,-4.553772,1.1605835,3.6502533,0.24562073,4.106128,-0.9896369,-1.9983118
1570715116,-10.208878,19.611511,10.995377,0.8314209,0.5332947,-0.945343,-8.397346,11.935543,12.351748
1570715116,-10.208878,19.611511,10.995377,0.8314209,0.5332947,-0.945343,-8.397346,11.935543,12.351748
1570715116,1.3634949,3.0412292,3.0448303,0.76750183,-1.0933685,-1.5610657,2.2642784,-5.1505656,4.1570272
1570715116,1.3634949,3.0412292,3.0448303,0.76750183,-1.0933685,-1.5610657,2.2642784,-5.1505656,4.1570272
1570715116,-4.597473,15.600021,3.6625366,-2.6498718,-3.9301605,-0.67796326,-2.5707865,8.334162,3.649297
1570715116,-4.692032,14.86261,3.69664,-2.8714447,-3.6862183,-0.44467163,-2.5707865,8.334162,3.649297
1570715116,4.510071,16.299728,-9.380478,-6.633957,3.3040466,0.69729614,6.350008,9.10063,-11.71352
1570715116,3.47818,15.452774,-8.272568,-7.1367645,3.9219055,0.6078186,6.350008,9.10063,-11.71352
1570715116,9.560638,8.687363,-16.781555,0.8367462,0.5705719,1.3769379,11.845323,1.3966894,-20.216522
1570715116,9.925156,9.143463,-14.979919,0.8367462,0.5705719,1.3769379,11.845323,1.3966894,-20.216522
1570715116,1.4766235,-0.69970703,1.9279327,0.5246124,-0.6864319,-0.4393463,3.6265504,-7.5989146,-0.45940638
1570715116,1.4855957,-0.8170166,1.7304077,0.611969,-0.5074768,-0.40844727,3.6297977,-7.928852,-0.6674323
1570715116,2.324173,-2.5785522,-0.83317566,1.3512573,0.0113220215,-0.051589966,4.405912,-9.672825,-3.061002
1570715116,0.4159851,2.4145508,1.6280518,2.2940216,-1.0070801,0.58117676,2.2791846,-5.0055146,-0.010876417
1570715116,0.49739075,2.771881,1.5849609,2.3728485,-0.9836426,0.6131439,2.2791846,-5.0055146,-0.010876417
1570715116,-2.688095,19.599533,-7.9014587,4.1880646,-4.8207245,2.1087646,-0.7544751,12.084214,-5.910344
1570715116,3.0406342,19.612701,4.78421,2.7797852,-5.30542,2.414505,4.0120835,11.901131,0.75355035
1570715116,-5.755661,19.612701,4.2940063,2.6892395,0.07203674,-0.8388214,-3.9589515,11.786213,5.4886756
1570715116,-2.5875397,13.869614,-1.7328033,0.7238159,0.22862244,0.7090149,-3.1731365,6.736559,0.13653654
1570715116,-2.5875397,13.869614,-1.7328033,0.7238159,0.22862244,0.7090149,-3.1731365,6.736559,0.13653654
1570715116,-0.4524994,7.7781677,0.5961609,0.9645691,-1.6387787,0.5907593,0.31040323,0.29378605,1.5432615
1570715116,-2.526474,5.517441,1.3904266,0.69718933,-1.8518372,0.58117676,-2.0049605,-2.151967,2.6958342
1570715116,-3.0137024,-2.8329468,0.952301,-1.3438568,0.10292053,0.114593506,-2.7982976,-10.578632,2.003502
1570715116,-3.0137024,-2.8329468,0.952301,-1.3438568,0.10292053,0.114593506,-2.7982976,-10.578632,2.003502
1570715117,-2.0374603,-2.5031433,1.1803436,-1.5718231,1.2491455,-0.2859497,-1.7298043,-10.297506,1.4721495
1570715117,-2.0374603,-2.5031433,1.1803436,-1.5718231,1.2491455,-0.2859497,-1.7298043,-10.297506,1.4721495
1570715117,2.4337006,10.06044,-12.263702,1.4418182,3.4073792,0.12950134,2.6735952,2.2234492,-10.436206
1570715117,2.4337006,10.06044,-12.263702,1.4418182,3.4073792,0.12950134,2.6735952,2.2234492,-10.436206
1570715117,2.1236572,19.612701,19.561829,1.0263519,4.281967,-1.6665344,3.8124263,11.931416,19.845259
1570715117,-13.312363,17.429794,1.4933777,1.1126404,3.8292236,-0.7770386,-15.5347805,11.605046,2.0253596
1570715117,4.2545013,17.704529,4.802765,-0.42878723,-6.470825,-1.5919647,5.130756,7.58889,2.5982118
1570715117,4.2545013,17.704529,4.802765,-0.42878723,-6.470825,-1.5919647,5.130756,7.58889,2.5982118
1570715117,-1.3191986,16.62294,3.1124573,-3.4296417,-3.1802216,0.5098114,0.439281,9.381903,3.2036974
1570715117,-1.3126221,16.298523,3.1244354,-3.511673,-3.000183,0.6216583,0.3769654,8.776376,2.5788703
1570715117,-6.850403,14.726135,-1.1959076,-7.4531403,7.852722,1.6890564,-4.5941334,7.0517683,-4.885166
1570715117,-6.850403,14.726135,-1.1959076,-7.4531403,7.852722,1.6890564,-4.5941334,7.0517683,-4.885166
1570715117,6.0854645,9.1805725,-13.939041,1.0785522,0.72717285,1.1915741,7.726693,1.7753539,-18.191225
1570715117,2.537857,1.7423859,0.6458435,0.40211487,-0.09840393,-0.5831604,4.2437005,-4.879369,-1.7351279
1570715117,2.537857,1.7423859,0.6458435,0.40211487,-0.09840393,-0.5831604,4.2437005,-4.879369,-1.7351279
1570715117,2.0033417,-1.1797485,-0.29867554,1.4386139,-0.30613708,-0.20285034,3.8589506,-8.346727,-2.5258417
1570715117,0.6374512,0.6183014,0.62368774,2.0830994,-1.597229,-0.0814209,2.7701821,-7.2902117,-1.6355125
1570715117,0.6374512,0.6183014,0.62368774,2.0830994,-1.597229,-0.0814209,2.7701821,-7.2902117,-1.6355125
1570715117,-0.64463806,19.606125,-6.5756683,3.8354645,-3.8982086,2.2270203,-0.29068124,12.020906,-5.987744
1570715117,-0.07362366,19.612701,-6.8097076,3.6788635,-3.91951,2.3761444,0.90700877,11.992319,-7.1941705
1570715117,1.91716,19.612701,8.505997,2.855423,-1.2851105,1.4504395,2.78152,11.846075,8.014839
1570715117,-14.815323,19.612701,-5.0499725,1.568573,2.7916565,0.5183258,-13.8374,11.76556,-4.05361
1570715117,6.3188934,14.301163,3.9755707,1.8061371,-3.347458,0.74842834,6.571186,6.720939,4.7039833
1570715117,6.3188934,14.301163,3.9755707,1.8061371,-3.347458,0.74842834,6.571186,6.720939,4.7039833
1570715117,-5.755661,0.5009918,2.7898407,-0.17312622,-1.8220062,0.55773926,-5.496124,-6.5059133,3.9722729
1570715117,-5.755661,-0.056259155,2.8646698,-0.22853088,-1.6888428,0.5236511,-5.561943,-7.628568,4.4176984
1570715117,-3.3351288,-3.8295288,-0.06703186,-1.8317413,0.49494934,-0.043060303,-3.4234278,-11.592836,1.1939923
1570715117,-2.6581573,-3.8211517,0.07901001,-2.3388062,1.1191864,-0.28274536,-2.5093174,-11.5827675,1.163769
1570715117,-1.0510559,-0.72125244,1.506546,-0.9933777,1.6060181,-0.27742004,-0.9532794,-9.164333,1.4323435
1570715117,-1.0510559,-0.72125244,1.506546,-0.9933777,1.6060181,-0.27742004,-0.9532794,-9.164333,1.4323435
1570715117,-0.9924011,8.798096,-10.685928,1.1659088,3.3157654,0.22006226,0.6432154,-0.8858261,-9.012261
1570715117,-1.8800507,19.32959,-2.9167328,0.34140015,2.319748,0.30847168,-1.8881594,11.00272,-6.324941
1570715117,-12.655746,19.612701,5.3821716,1.5408783,3.4819489,-1.3054047,-12.123979,11.875771,7.0154033
1570715118,-2.237976,4.2586823,-0.9104004,0.47029114,0.8954773,-1.1850281,-1.579684,-2.531886,-0.15252125
1570715118,3.2381592,15.370773,7.1730347,-0.22319031,-6.213028,-2.460144,5.151989,7.3229384,7.465747
1570715118,-1.162384,19.609116,11.71962,-0.9923248,-6.1586914,-1.6537476,1.4441385,11.905647,12.169611
1570715118,-0.14065552,15.143326,-1.8596954,-4.2978363,-1.1647339,1.3460388,0.89702666,7.3961782,-2.265173
1570715118,0.9104004,15.177444,-2.9406738,-4.632324,-0.6502075,1.3822632,0.89702666,7.3961782,-2.265173
1570715118,-4.885376,13.940247,2.8987732,-8.289383,8.446075,1.3385773,-2.7074685,6.4634547,-1.454757
1570715118,8.674194,7.7506256,-7.823654,1.3448792,-3.0481262,0.7047577,11.078409,0.62315226,-11.544702
1570715118,6.064514,6.2003784,-1.1629791,1.0039825,-3.701126,-0.24865723,8.491417,-0.7712593,-4.444283
1570715118,2.4325104,2.600708,2.1703491,0.66630554,-0.17297363,-0.55758667,4.600599,-3.9962735,-0.25722075
1570715118,2.9071655,-1.2653351,-1.3634949,1.6804352,-1.0614014,-0.0664978,4.992346,-8.499817,-3.395127
1570715118,2.8042145,-1.3838501,-1.4574738,1.6772308,-1.1732635,-0.072891235,4.992346,-8.499817,-3.395127
1570715118,3.0023346,7.140106,4.4286804,3.2975006,-2.17247,0.18063354,4.7981677,-0.46704817,2.960565
1570715118,3.0142975,7.7859497,4.489731,3.4690094,-2.39299,0.20620728,4.7981677,-0.46704817,2.960565
1570715118,-2.331955,19.612106,-6.296753,3.9782104,-6.1235504,3.275238,-3.2834392,12.027321,-7.9701753
1570715118,8.458115,19.612701,13.198639,3.5574188,-3.0108337,0.7473602,8.220574,11.81255,11.168522
1570715118,-6.1489105,17.72667,-5.8610077,0.0068969727,0.57270813,1.7636261,-6.8509107,9.822214,-5.46322
1570715118,0.5817871,12.447449,-0.6661835,1.071106,-0.40733337,0.05493164,1.0364345,4.5992274,-0.18174994
1570715118,2.2403717,12.640793,2.5037384,1.359787,-1.0145416,-0.06542969,2.540243,4.550772,3.4373693
1570715118,-3.0801392,6.6840057,2.8227692,0.9326172,-1.8369141,0.29356384,-1.9925936,-0.89286137,4.127341
1570715118,-3.47818,-3.329132,0.1837616,-1.1819305,-0.18894958,0.6141968,-2.9731045,-11.023616,1.3851227
1570715118,-3.47818,-3.329132,0.1837616,-1.1819305,-0.18894958,0.6141968,-2.9731045,-11.023616,1.3851227
1570715118,-0.8313904,-4.7584686,0.76194763,-2.0980682,0.5119934,0.067718506,-0.42947128,-12.581436,1.2509921
1570715118,-0.43574524,-3.406952,1.1743622,-1.6591797,1.0318451,-0.40205383,0.037432075,-11.090836,1.6731071
1570715118,1.7441711,1.4059906,-0.8643036,0.091049194,2.4880524,0.09222412,2.1167855,-6.748984,-0.46592584
1570715118,1.8746643,8.644272,-12.044632,1.5036011,3.9559937,0.12844849,2.3741424,0.7380843,-10.5779085
1570715118,0.17358398,16.037567,12.634201,0.77175903,2.6702118,-0.4350891,0.33153635,3.6531982,11.172079
1570715118,-16.120163,16.054321,0.2531891,0.7600403,2.7298737,-0.6374817,-16.740366,8.84869,0.70881015
1570715118,1.0630188,2.2068481,-1.7663269,-0.21786499,-0.9804535,-1.3565369,1.9997298,-5.359116,-1.0674224
1570715118,0.16400146,13.466187,6.6935883,-1.1595612,-4.7099304,-2.1171417,1.8218379,5.056695,6.048074
1570715118,-0.838562,16.127945,2.012329,-3.1239166,-2.3098907,0.26159668,1.148354,8.599048,1.2859114
1570715118,-0.838562,16.127945,2.012329,-3.1239166,-2.3098907,0.26159668,1.148354,8.599048,1.2859114
1570715118,-1.5316925,14.889542,11.842316,-6.1119843,13.358017,1.4408417,0.0962863,7.945463,9.40622
1570715118,-1.5316925,14.889542,11.842316,-6.1119843,13.358017,1.4408417,0.0962863,7.945463,9.40622
1570715119,8.230072,7.3974915,-4.9984894,1.010376,-3.7671814,-0.11656189,11.866953,0.894928,-8.54789
1570715119,7.268799,6.877945,-3.9342651,0.9326172,-3.7735748,-0.26890564,10.040525,-0.01738596,-7.0463953
1570715119,2.023697,1.1001282,2.5665894,1.4854889,-0.2603302,-0.19966125,4.155903,-5.482907,0.8905146
1570715119,3.2830505,-1.3874359,-0.6781616,1.9467468,-0.9090729,0.40647888,5.378081,-8.785927,-2.7893405
1570715119,0.41479492,-0.44352722,0.9900055,2.4527435,-1.1253204,0.569458,2.7219324,-7.678065,-0.73410094
1570715119,0.09875488,5.0888824,-0.30047607,3.0226593,-0.57670593,1.2640076,1.3274021,-2.7539868,-1.2225771
1570715119,0.25437927,19.612106,-6.9401855,3.4658203,-5.4588165,2.8043823,0.7542219,11.909689,-7.1248856
1570715119,0.25437927,19.612106,-6.9401855,3.4658203,-5.4588165,2.8043823,0.7542219,11.909689,-7.1248856
1570715119,-10.017334,19.612701,-4.6549225,1.805069,1.5325165,-0.22735596,-6.5859284,11.803925,-2.1052566
1570715119,1.2635345,13.324936,-0.7739258,0.83461,-2.6838074,0.9412384,1.3327134,5.320238,0.07849479
1570715119,1.2635345,13.324936,-0.7739258,0.83461,-2.6838074,0.9412384,1.3327134,5.320238,0.07849479
1570715119,0.12390137,9.668381,2.3229675,0.8410034,-1.5279999,0.26480103,0.7992363,2.381546,4.164544
1570715119,-5.5234222,0.07601929,0.42796326,-1.0679474,-0.8408966,0.33084106,-5.009882,-6.9694896,2.0267081
1570715119,-5.5234222,0.07601929,0.42796326,-1.0679474,-0.8408966,0.33084106,-5.009882,-6.9694896,2.0267081
1570715119,-1.625061,-2.364273,0.9929962,-2.3036652,1.5804443,-0.42123413,-1.5917596,-10.184565,1.6764653
1570715119,-1.625061,-2.364273,0.9929962,-2.3036652,1.5804443,-0.42123413,-1.5917596,-10.184565,1.6764653
1570715119,0.57699585,1.743576,-0.32022095,0.5288849,2.7011108,0.3383026,0.8325498,-6.110891,0.46049327
1570715119,0.57699585,1.743576,-0.32022095,0.5288849,2.7011108,0.3383026,0.8325498,-6.110891,0.46049327
1570715119,-0.46507263,3.937271,-0.8996277,1.0945282,3.2582397,0.27438354,-0.19570453,-3.718007,-1.4262946
1570715119,-2.8562775,19.612701,3.8648376,0.4308777,2.2313232,-1.9349823,-1.2561905,11.950238,4.845557
1570715119,-3.941452,11.587341,4.9559937,0.1581726,-0.8654022,-1.2382965,-4.5917163,6.503965,6.276382
1570715119,-3.941452,11.587341,4.9559937,0.1581726,-0.8654022,-1.2382965,-4.5917163,6.503965,6.276382
1570715119,2.4935608,8.934555,1.1174927,-0.037841797,-2.7424011,-1.7655945,3.067524,-0.6517606,1.3450606
1570715119,2.5330658,17.006607,0.6488342,-5.072281,-2.4334717,0.47677612,4.3182187,9.288088,-0.39021468
1570715119,2.5330658,17.006607,0.6488342,-5.072281,-2.4334717,0.47677612,4.3182187,9.288088,-0.39021468
1570715119,0.8547363,16.648682,9.450516,-5.29599,1.4888306,1.171341,2.3607545,8.979326,7.98017
1570715119,-5.73172,15.841232,0.67277527,-5.4930573,10.344376,2.144989,-4.5466075,8.542225,-2.6356244
1570715119,0.05986023,9.220673,-19.612701,-0.5715332,8.256454,1.7188873,0.5959486,3.4410448,-21.484386
1570715119,7.589615,9.034515,-6.2279205,1.486557,-2.5879364,-0.4862213,10.032025,2.5467505,-9.679522
1570715119,2.8096008,0.21247864,-0.10115051,1.2436676,-0.18682861,-0.49473572,4.6563997,-6.8076196,-2.351948
1570715119,2.4366913,-0.49560547,-0.5398865,1.6016083,-0.478714,-0.40951538,4.288234,-7.655481,-3.204978
1570715119,2.443283,-1.4389191,-0.18016052,1.8253021,-1.0688629,-0.0036468506,4.358451,-8.488898,-2.4124184
1570715119,0.5925598,-0.81222534,0.34954834,2.3984222,-0.5575409,0.42352295,2.5234947,-8.318636,-1.071651
1570715119,0.205307,5.8137207,1.0899658,3.509491,-0.68003845,0.70262146,1.2884977,-2.8305783,-0.1990565
1570715120,3.988739,19.612701,1.7399902,3.3710022,-4.1336365,2.5167694,4.573961,11.894197,0.5729186
1570715120,3.988739,19.612701,1.7399902,3.3710022,-4.1336365,2.5167694,4.573961,11.894197,0.5729186
1570715120,-7.4693146,19.612701,-3.5757446,2.2460785,2.0523682,0.67492676,-4.356056,11.855448,1.853367
1570715120,-0.22865295,14.396332,-4.0569763,1.2585907,-1.7602234,0.84643555,-0.47821766,6.6615343,-2.845891
1570715120,5.191223,13.259689,3.4518433,1.8125305,-3.5296173,0.21366882,5.7976623,5.8840647,5.295656
1570715120,-4.7578735,2.738968,1.2378082,-1.0338593,-0.70880127,0.59503174,-4.5306573,-4.845531,3.3355212
1570715120,-4.9200897,2.2673035,1.0330963,-1.1169586,-0.62039185,0.55773926,-4.5306573,-4.845531,3.3355212
1570715120,-4.126999,-2.637207,1.2389984,-1.6932678,-0.017440796,0.012329102,-4.087172,-10.283754,2.7773643
1570715120,-3.6631317,-3.7193909,0.12390137,-2.1907349,0.855011,-0.3083191,-3.5432708,-11.4787035,1.3668602
1570715120,-0.94511414,-4.1928406,1.790268,-2.5518646,2.068344,-0.31150818,-0.77279204,-11.981855,2.0799742
1570715120,1.1115112,-1.1456299,0.4554901,-1.5995178,2.4305267,-0.108047485,0.71317863,-9.854919,1.2365749
1570715120,1.704071,14.459183,4.0497894,1.0988007,3.1655579,0.39582825,1.7789987,6.3031225,2.9719958
1570715120,1.704071,14.459183,4.0497894,1.0988007,3.1655579,0.39582825,1.7789987,6.3031225,2.9719958
1570715120,-3.1567535,19.612701,11.411957,1.2021332,4.069977,-2.5624084,1.9728496,11.903801,13.597301
1570715120,-5.5168457,4.416107,-2.0781708,0.5288849,1.2310486,-0.5373535,-6.6867285,-1.0447912,-0.7715086
1570715120,-3.2662964,19.612701,11.540649,-1.4194946,-5.2510986,-2.4942322,-1.8026937,11.924119,11.612589
1570715120,-3.2662964,19.612701,11.540649,-1.4194946,-5.2510986,-2.4942322,-1.8026937,11.924119,11.612589
1570715120,-1.4628601,18.357544,2.82695,-2.9588013,-3.3804932,-0.17515564,0.30394316,10.725138,2.0167055
1570715120,3.0430298,17.672195,-11.261719,-3.753479,-2.662506,0.43736267,1.9502641,9.684146,-4.3483377
1570715120,2.4325104,6.8360443,-19.612701,-2.6743774,12.343887,1.3790588,4.891629,0.5591645,-21.290257
1570715120,2.4325104,6.8360443,-19.612701,-2.6743774,12.343887,1.3790588,4.891629,0.5591645,-21.290257
1570715120,3.047821,4.1042633,3.118454,0.5011902,-1.102951,-0.27848816,5.689957,-2.5385432,-0.7744765
1570715120,3.047821,4.1042633,3.118454,0.5011902,-1.102951,-0.27848816,5.689957,-2.5385432,-0.7744765
1570715120,2.5240936,-0.8648987,-0.62727356,1.9392853,-0.2635193,-0.024963379,4.7373886,-7.910755,-3.011563
1570715120,2.4019775,-0.13825989,0.9906006,2.2130585,-1.9328003,0.0048675537,4.918796,-7.4841866,-1.4669411
1570715120,0.43154907,3.767273,2.819168,2.9065552,-1.597229,0.53430176,2.4747784,-4.127728,0.98186123
1570715120,2.7976227,7.371155,3.3590698,3.7885895,-1.8720703,1.0189972,4.125327,-0.7197056,2.1056087
1570715120,-1.4269409,19.612701,-5.632965,3.5052338,-5.483322,3.1271667,-0.51449764,11.991784,-7.5084367
1570715120,6.8575897,19.612701,14.811722,3.4892426,-2.8947296,1.221405,7.4711223,11.789261,13.95577
1570715120,-19.612701,17.912811,0.80085754,2.3259735,1.3556824,-1.3075409,-18.121231,10.879401,3.1827378
1570715120,-1.9907837,12.779648,-3.8995514,0.7110443,1.3386383,0.42459106,-1.9226297,4.979682,-0.8436903
1570715120,1.1887207,13.06636,1.4323273,0.116622925,-0.08456421,0.95402527,2.280262,5.3078995,3.718635
1570715120,0.070632935,9.133881,0.9463043,1.1392822,-1.9391785,1.0520325,0.754449,1.6192822,2.78526
1570715121,-4.964981,0.49499512,-0.17358398,-0.014404297,-1.4203949,0.885849,-4.984152,-6.510329,1.6718131
1570715121,-1.5520477,-3.408142,1.0468597,-1.7198944,1.2598114,-0.3679657,-1.6048467,-11.217066,1.8282473
1570715121,-1.5520477,-3.408142,1.0468597,-1.7198944,1.2598114,-0.3679657,-1.6048467,-11.217066,1.8282473
1570715121,-3.1238403,-2.7694855,1.6771393,-0.67274475,0.9764404,-0.52775574,-3.0010018,-10.757242,2.475803
1570715121,-0.17477417,-0.5740051,-1.4449005,-0.01121521,1.8052216,-0.19433594,-0.2801283,-8.416997,-0.7403248
1570715121,1.9548645,19.612701,11.95903,-0.06767273,2.7788696,-0.7312317,0.75836563,6.628727,8.811667
1570715121,1.9548645,19.612701,11.95903,-0.06767273,2.7788696,-0.7312317,0.75836563,6.628727,8.811667
1570715121,-12.182297,18.518555,2.0626068,0.5139618,2.974884,-0.9357605,-12.376237,11.3485565,2.5527377
1570715121,0.68174744,3.6469727,-0.94810486,0.39146423,0.17323303,-1.0060577,1.371326,-3.6990952,-0.028078854
1570715121,-0.5686188,19.612701,7.179016,-2.2344208,-6.07135,-0.6289673,1.1710823,11.91979,7.455802
1570715121,-0.5686188,19.612701,7.179016,-2.2344208,-6.07135,-0.6289673,1.1710823,11.91979,7.455802
1570715121,1.233017,16.697159,0.881073,-6.206787,4.28302,1.6389923,2.289188,9.194954,-0.660558
1570715121,1.8213959,16.652863,-0.18734741,-6.316513,4.5599976,1.6570892,2.289188,9.194954,-0.660558
1570715121,-4.115631,15.8125,1.8674774,-6.089615,11.913513,1.4142151,-2.600534,8.697197,-0.756896
1570715121,5.8053436,5.6461334,-1.3024445,0.9336853,-2.4324036,-0.7663727,9.243189,0.028541565,-5.216273
1570715121,5.8053436,5.6461334,-1.3024445,0.9336853,-2.4324036,-0.7663727,9.243189,0.028541565,-5.216273
1570715121,3.257904,-0.21907043,-0.29029846,0.92836,0.04966736,-0.59913635,5.162981,-7.4273086,-3.1015058
1570715121,1.1959076,-0.69252014,-0.6033325,2.076706,-1.1732635,-0.051589966,3.2080653,-7.9700685,-2.5700316
1570715121,1.0025787,-0.6356659,-0.4980011,2.094818,-1.2425079,-0.049453735,2.9580202,-7.968652,-2.4122615
1570715121,1.9512787,5.1212006,3.2674866,2.7659302,-0.85154724,0.1337738,3.5056403,-2.6131582,2.0806737
1570715121,2.1529846,5.8059387,3.703827,2.8650055,-0.9335785,0.12950134,3.5056403,-2.6131582,2.0806737
1570715121,0.6793518,19.612701,11.476013,2.7989655,-1.0028229,0.45761108,2.2398255,11.888007,12.477997
1570715121,0.6793518,19.612701,11.476013,2.7989655,-1.0028229,0.45761108,2.2398255,11.888007,12.477997
1570715121,-15.7724,15.377365,-6.4146576,1.0998688,1.4813843,1.1138153,-15.633873,7.5360727,-5.272475
1570715121,1.0498505,13.080719,3.0807343,0.94859314,-1.737854,0.6845093,0.35272563,5.0253778,3.1465392
1570715121,2.82695,11.22821,4.9553986,1.725174,-2.2172241,0.63230896,3.983324,4.1917043,6.617827
1570715121,-3.0304565,-0.050872803,0.5171509,-0.54704285,-1.0816498,0.5928955,-2.4213588,-7.667952,2.0492911
1570715121,-3.0304565,-0.050872803,0.5171509,-0.54704285,-1.0816498,0.5928955,-2.4213588,-7.667952,2.0492911
1570715121,-1.6202698,-3.269287,0.9062042,-2.1044617,-0.4414215,-0.05052185,-1.0276484,-11.0085745,1.672972
1570715121,-1.3784637,-3.229782,1.1270752,-2.1385498,-0.35301208,-0.061172485,-1.0276484,-11.0085745,1.672972
1570715121,2.2960358,1.6029205,2.1918945,-0.53318787,2.562622,0.4821167,2.601605,-6.385002,2.2542238
1570715121,2.2960358,1.6029205,2.1918945,-0.53318787,2.562622,0.4821167,2.601605,-6.385002,2.2542238
1570715121,-1.138443,19.612701,10.805038,0.47668457,0.3340912,-0.06542969,-0.9076019,10.89868,9.88841
1570715121,-0.917572,19.612701,14.141357,0.3616333,0.5109253,-0.26783752,-0.9076019,10.89868,9.88841
1570715122,-4.841675,12.674896,8.664017,0.11236572,2.5679474,-0.5373535,-7.02307,8.138634,11.501759
1570715122,1.3569183,2.308014,1.9015961,0.069747925,0.89868164,-1.1328278,2.2516468,-6.235199,1.27016
1570715122,-2.4815826,17.490234,2.4768066,-1.8967285,-6.615692,-1.4502869,-0.6745597,10.047789,2.5979776
1570715122,-2.4815826,17.490234,2.4768066,-1.8967285,-6.615692,-1.4502869,-0.6745597,10.047789,2.5979776
1570715122,1.256958,15.902283,0.71406555,-3.9793243,-3.2143097,0.8485565,2.1015282,7.6416106,3.1443138
1570715122,1.3461456,14.524429,0.1663971,-5.787079,0.6930847,1.1734619,2.895555,7.063234,-2.0951285
1570715122,-1.5532379,12.255325,11.07019,-5.074417,12.905273,1.4685516,-0.33850408,5.9050517,10.447884
1570715122,9.795883,7.0144196,-6.491272,1.5600586,-4.1485443,-0.60339355,14.330765,0.68209076,-11.401316
1570715122,8.226471,6.5798645,-5.096054,1.6047974,-4.333893,-0.7738342,11.404068,-0.31424952,-8.212898
1570715122,2.079956,-0.13287354,2.01651,1.5845642,0.52796936,0.3915558,4.3454003,-7.247169,0.04717207
1570715122,1.1815338,-1.1348572,0.18136597,1.9233093,-0.7439575,0.45654297,3.4130375,-8.4002,-1.4111497
1570715122,1.1815338,-1.1348572,0.18136597,1.9233093,-0.7439575,0.45654297,3.4130375,-8.4002,-1.4111497
1570715122,1.5957336,6.463745,0.50697327,2.8522186,-0.5341034,1.284256,2.667079,-1.7816176,-0.75151217
1570715122,1.6855164,7.7901306,0.032318115,2.9907074,-0.82917786,1.3630829,3.347837,-0.6521177,-0.11806691
1570715122,1.430542,19.612701,-5.324707,2.918274,-3.887558,3.421173,1.7645185,11.9761,-5.589841
1570715122,-0.10952759,19.612701,10.371689,3.0919037,-1.4736633,1.0680084,1.7125349,11.8772545,13.305105
1570715122,-1.8399506,13.846268,-4.3113556,0.59599304,0.50878906,0.95402527,-2.0626614,6.589595,-2.5522337
1570715122,1.7627258,12.954422,-0.5602417,0.19544983,-1.4725952,0.6674652,-0.017592192,4.7996426,-1.7545974
1570715122,-1.6286621,7.1736298,1.3575134,0.59706116,-1.0603485,0.54496765,-0.97850156,-0.12534428,3.4076514
1570715122,-3.5787354,5.222946,-0.5488739,0.2838745,-0.7578125,0.489563,-2.9272962,-2.1221142,1.4769382
1570715122,-4.1958313,-2.9167328,-1.2036896,-1.2511749,0.8358307,0.053878784,-4.2646327,-10.539793,0.09673607
1570715122,-3.9001617,-3.1699219,-1.2036896,-1.328949,0.89974976,0.018722534,-3.6145284,-10.991728,-0.012811542
1570715122,0.04548645,-1.4850006,2.944275,-1.2554321,2.1482391,-0.164505,0.06008184,-9.699781,3.0392847
1570715122,0.04548645,-1.4850006,2.944275,-1.2554321,2.1482391,-0.164505,0.06008184,-9.699781,3.0392847
1570715122,2.4792023,2.458847,2.5282745,0.44578552,2.7064362,-0.17622375,2.615053,-5.1942825,2.6928408
1570715122,-0.020355225,10.037094,2.3229675,1.1616516,2.6158905,-0.3093872,0.22270615,3.8740845,2.519166
1570715122,-0.020355225,10.037094,2.3229675,1.1616516,2.6158905,-0.3093872,0.22270615,3.8740845,2.519166
1570715122,-1.5556335,11.538254,7.863159,0.52142334,0.2637787,-0.48727417,-3.3031027,5.691553,9.63749
1570715122,0.557251,5.3690033,3.723587,0.787735,0.55140686,-1.0103302,0.7126494,-0.42125893,5.569071
1570715122,-4.114441,19.612701,-0.21548462,-0.5065613,-4.3892975,-1.7741241,-2.621557,12.022305,0.6419655
1570715122,-4.114441,19.612701,-0.21548462,-0.5065613,-4.3892975,-1.7741241,-2.621557,12.022305,0.6419655
1570715122,1.8333588,16.846802,3.06398,-5.505844,-1.1828461,0.60887146,3.3537877,9.434919,0.5953696
1570715122,1.8333588,16.846802,3.06398,-5.505844,-1.1828461,0.60887146,3.3537877,9.434919,0.5953696
1570715123,4.0809174,7.7937317,-19.612701,-1.6421356,10.627747,1.7039642,5.337163,1.5669184,-21.61695
1570715123,4.0809174,7.7937317,-19.612701,-1.6421356,10.627747,1.7039642,5.337163,1.5669184,-21.61695
1570715123,7.1652527,6.992264,-7.521988,1.4801636,-2.8393402,0.2903595,10.865445,0.5467653,-11.746052
1570715123,2.1625671,-1.2599487,-0.09875488,1.8348999,0.5609894,0.19767761,3.9552255,-8.244415,-1.5990493
1570715123,2.2631226,-1.498764,-0.1592102,1.8402252,0.45339966,0.20939636,4.15758,-8.752154,-1.8201332
1570715123,1.5197144,-1.2132568,0.7338257,1.8636627,-1.261673,0.3052826,3.392098,-8.692135,-0.6729301
1570715123,0.8032532,-0.034118652,1.0235138,1.9520721,-0.9090729,0.5683899,2.494319,-7.587645,0.12992382
1570715123,0.46806335,2.1457977,1.2527618,2.1587372,-0.3157196,0.82299805,1.9914782,-5.856832,0.5282065
1570715123,-0.6093292,19.612701,-10.879257,3.7438507,-3.681961,2.7585754,-0.07983613,12.018739,-10.335574
1570715123,-4.6076355,19.612701,-0.07720947,2.0809631,1.4451599,0.45335388,-3.37304,11.92911,2.1150842
1570715123,-6.280594,19.612701,-2.1643524,1.884964,1.6401062,0.36386108,-3.37304,11.92911,2.1150842
1570715123,-1.9183502,13.597275,-3.1651306,0.016494751,-1.2829742,0.6898346,-2.3529515,6.0889344,-1.8479855
1570715123,-0.36332703,13.096283,2.1697388,-0.28178406,-3.0225525,0.87945557,-0.33833024,5.209987,2.0814466
1570715123,-0.22146606,10.797256,1.7663269,0.78666687,-1.2169342,0.24243164,0.2747176,3.4475636,3.7838216
1570715123,-5.518036,1.4550781,-1.7537537,-1.0157471,-0.99749756,0.15614319,-4.970775,-5.529261,-0.59726226
1570715123,-4.182068,-0.3028717,-1.9351196,-2.1406708,0.04220581,-0.055847168,-4.056102,-7.863493,-0.78191113
1570715123,-2.7988281,-0.3423767,-1.3191986,-2.6775665,0.6888275,-0.26997375,-2.6051228,-8.187219,-0.73771673
1570715123,0.6434479,0.72843933,0.46746826,-1.5899353,0.9487457,-0.60020447,1.0001266,-7.082675,0.37909618
1570715123,1.0779877,0.32800293,1.6765442,0.94433594,1.715744,-0.004714966,1.6267676,-7.323304,1.7392503
1570715123,1.0779877,0.32800293,1.6765442,0.94433594,1.715744,-0.004714966,1.6267676,-7.323304,1.7392503
1570715123,-1.051651,6.1333466,2.7186127,0.73127747,1.3162689,-0.10272217,-0.50078976,-2.7921133,2.6906672
1570715123,-0.9510956,9.118317,3.2549133,0.67800903,1.2054749,-0.13041687,-0.61472917,-0.7700062,3.4496753
1570715123,-5.541382,10.193909,3.248932,0.35098267,0.0688324,-0.3083191,-7.79899,4.250775,4.3923473
1570715123,-0.2232666,4.735138,1.984787,0.29345703,0.04434204,-0.65452576,0.7632215,-2.7347178,2.7409778
1570715123,1.1360474,15.281586,-1.4526825,0.52249146,-1.3650055,-1.7506866,2.6196976,7.099218,-0.21348655
1570715123,1.3341675,17.385498,4.8410797,-3.8035583,-2.5474548,0.014465332,3.1651273,9.755316,4.6457386
1570715123,1.3341675,17.385498,4.8410797,-3.8035583,-2.5474548,0.014465332,3.1651273,9.755316,4.6457386
1570715123,1.3946228,17.544708,-5.519226,-5.1617584,-0.63316345,0.7228546,3.0649548,10.138659,-7.0819607
1570715123,1.5316925,8.369537,-19.612701,-1.5185547,10.55423,1.633667,3.3951652,1.6043262,-21.747566
1570715123,1.5316925,8.369537,-19.612701,-1.5185547,10.55423,1.633667,3.3951652,1.6043262,-21.747566
1570715123,1.9099731,2.277481,3.0603943,0.79733276,-0.27844238,-0.21884155,3.9576302,-4.7326283,0.55158734
1570715123,1.9099731,2.277481,3.0603943,0.79733276,-0.27844238,-0.21884155,3.9576302,-4.7326283,0.55158734
1570715123,1.9590607,-1.0731964,-0.27592468,1.4918823,0.045410156,-0.06542969,3.914664,-8.220449,-2.443002
1570715124,2.474411,-1.4472961,-0.38606262,1.4151764,-1.4172058,-0.09526062,4.449307,-8.778412,-2.2957926
1570715124,1.0301056,-0.620697,0.93074036,1.502533,-1.3809814,-0.09739685,3.0454168,-7.970617,-0.88120055
1570715124,0.57640076,10.383652,4.5364075,3.6831207,-0.9112091,0.8400421,2.4576788,2.0954018,3.8043594
1570715124,0.0,12.838303,4.0420074,3.6831207,-0.9112091,0.8400421,2.4576788,2.0954018,3.8043594
1570715124,2.2002716,19.612701,8.923187,2.4474182,-2.0190735,0.9380493,3.216719,11.904029,9.275947
1570715124,-8.999802,13.338699,-3.0543976,0.8356781,0.1860199,1.1660156,-11.982187,4.769078,-0.92901343
1570715124,-8.999802,13.338699,-3.0543976,0.8356781,0.1860199,1.1660156,-11.982187,4.769078,-0.92901343
1570715124,-2.070984,12.059601,-0.056869507,0.66630554,-0.9484863,-0.2710266,-1.1203209,4.4824743,-0.3018608
1570715124,-3.7062225,4.1653137,-0.7463989,0.42874146,-1.0518188,0.25094604,-2.0094168,-2.4925241,0.41702843
1570715124,-4.282028,3.43927,-0.786499,0.34033203,-0.9857788,0.2584076,-3.0554464,-4.0036726,0.31018066
1570715124,-4.3311157,-0.30645752,-1.6980896,-0.83039856,-0.75141907,0.44482422,-3.4702165,-7.9687414,-0.73473287
1570715124,-2.4067688,-1.877655,0.17237854,-1.5750122,-0.8579407,0.36706543,-1.6472237,-9.584627,0.8688533
1570715124,-0.13348389,-2.5210876,0.69252014,-1.7433319,0.5141144,0.044281006,0.62351704,-10.248159,0.9319769
1570715124,0.67037964,0.24958801,2.700653,0.10916138,2.0470276,0.046417236,1.5165622,-7.3846235,2.8425
1570715124,-2.6264343,2.9544525,-1.0343018,1.104126,3.1357422,0.06985474,-1.0934391,-5.0417104,-1.8493644
1570715124,-3.4009705,3.5715485,-0.7583618,1.0519257,2.9759521,0.11352539,-2.2937703,-4.2839036,-0.46281964
1570715124,-3.5978851,15.482101,7.085037,-0.23597717,1.2257233,-0.84947205,-5.088778,10.656769,7.1723733
1570715124,1.0534515,3.680481,3.9228973,0.4628296,0.16790771,-1.7453613,2.301435,-4.4347258,3.516572
1570715124,1.0744019,4.28981,4.578903,0.56936646,-0.011062622,-1.7826385,2.4044895,-3.5864763,4.766812
1570715124,-1.9099731,14.505264,2.2912445,-2.9619904,-3.8619843,0.0634613,-1.1448348,7.4538555,2.7490563
1570715124,-1.9099731,14.505264,2.2912445,-2.9619904,-3.8619843,0.0634613,-1.1448348,7.4538555,2.7490563
1570715124,-0.006576538,13.556564,4.483139,-3.9782562,-2.342926,0.5406952,2.1501458,6.040587,3.6426113
1570715124,1.5825653,14.5256195,-0.89064026,-5.5899963,1.9223938,0.7473602,3.3949423,7.500158,-3.5057564
1570715124,-2.3337555,11.170746,6.338043,-5.821167,10.442383,1.0275269,-0.52378106,4.128189,3.7105725
1570715124,4.7901917,6.205765,-4.3035736,1.6665802,-4.234833,-0.27209473,7.5699973,-0.6693783,-7.2961273
1570715124,4.0252533,5.7526703,-3.1214447,1.5760345,-4.078232,-0.3040619,7.5699973,-0.6693783,-7.2961273
1570715124,1.5765839,0.62667847,2.020111,1.4982758,-0.18682861,0.22750854,4.1006904,-5.8063116,0.73836637
1570715124,1.2994537,-1.6304474,1.051651,1.6069336,-0.5202484,0.42991638,3.4242496,-8.601242,-0.8754009
1570715124,-1.5658112,0.34835815,-0.36810303,2.0319672,-0.4733734,0.45973206,0.28627396,-7.118929,-1.5714786
1570715124,-1.5658112,0.34835815,-0.36810303,2.0319672,-0.4733734,0.45973206,0.28627396,-7.118929,-1.5714786
1570715124,0.43455505,9.555862,4.171295,2.6849823,-0.37750244,0.7154083,1.9585259,-0.24944878,2.1793132
1570715124,2.0105286,19.612701,-5.8963165,3.4200134,-5.511017,2.3292847,2.528658,12.053378,-9.01301
1570715124,-0.79248047,19.612701,5.094269,3.1387787,-0.46166992,0.47039795,0.21405059,11.94071,7.2474923
1570715124,-3.6739044,16.493652,-3.3770142,0.69932556,0.7101288,0.89224243,-3.2413018,8.929392,-2.479934
1570715125,-0.92715454,13.767258,-0.46507263,0.5203552,0.22543335,0.27438354,-0.28780633,6.135775,0.28220904
1570715125,1.7567444,13.265076,2.9011688,0.26895142,-1.0518188,0.6408386,2.195463,5.4528356,3.9559479
1570715125,-4.7878113,5.1301727,-1.0953522,0.2785492,-1.3319855,0.79956055,-4.0779185,-2.3189878,0.3998655
1570715125,-4.0779266,-1.1013336,-0.58477783,-0.71855164,-1.437439,0.47358704,-3.6490152,-8.243215,1.1981754
1570715125,-0.596756,-3.2070312,0.80145264,-1.9744873,0.35113525,0.065597534,-0.2336883,-10.792431,1.421811
1570715125,-0.841568,-3.4500427,0.9510956,-2.0288239,0.5908203,-0.0079193115,-0.19560564,-10.996414,1.5999432
1570715125,-0.6643982,-1.3557129,2.5073242,-1.0040436,2.2185364,-0.28807068,0.036113262,-9.212736,2.9865184
1570715125,-0.6027374,-0.39804077,1.067215,-0.40322876,2.4305267,0.0357666,-0.15218914,-8.114969,1.22537
1570715125,0.07182312,5.9992676,1.6849213,0.66630554,1.8968353,0.3915558,0.4058065,-1.56143,0.6385082
1570715125,-0.15861511,9.233246,6.681015,0.8377991,1.4366455,0.24880981,0.38736835,0.13287449,6.709341
1570715125,-11.3832245,19.612701,2.8927917,0.5555115,0.9412842,-1.3352356,-10.448846,11.9867325,3.6983864
1570715125,-3.1196442,8.494629,2.3074188,0.29985046,0.22436523,-1.0689087,-3.5418894,3.653295,4.076624
1570715125,-0.008972168,8.018188,2.8916016,0.26895142,-0.27204895,-1.2393646,0.4470632,-0.8466182,3.0431266
1570715125,-0.9906006,14.892532,-2.1176758,-2.3910065,-6.7147675,-0.6055298,0.5578556,7.51031,-2.131579
1570715125,0.3609314,13.814545,-0.27653503,-3.0802307,-6.536865,-0.25611877,1.4464937,6.623021,-1.2304194
1570715125,-0.383667,15.670044,7.41185,-4.385193,-3.0246887,0.44482422,2.2471638,7.933661,5.3663335
1570715125,-0.48602295,15.729309,7.6476746,-4.1636047,1.0488892,1.2853241,0.6923343,8.393809,6.891563
1570715125,-0.48602295,15.729309,7.6476746,-4.1636047,1.0488892,1.2853241,0.6923343,8.393809,6.891563
1570715125,-0.48602295,15.729309,7.6476746,-4.1636047,1.0488892,1.2853241,0.6923343,8.393809,6.891563
1570715125,-0.48602295,15.729309,7.6476746,-4.1636047,1.0488892,1.2853241,0.6923343,8.393809,6.891563
1570715125,-0.48602295,15.729309,7.6476746,-4.1636047,1.0488892,1.2853241,0.6923343,8.393809,6.891563
1570715125,-0.48602295,15.729309,7.6476746,-4.1636047,1.0488892,1.2853241,0.6923343,8.393809,6.891563
1570715125,-0.48602295,15.729309,7.6476746,-4.1636047,1.0488892,1.2853241,0.6923343,8.393809,6.891563
1570715125,0.56144714,3.2220001,1.913559,1.9989471,-1.1253204,0.3329773,2.7082427,-9.786829,-0.63355494
1570715125,0.56144714,3.2220001,1.913559,1.9989471,-1.1253204,0.3329773,2.7082427,-9.786829,-0.63355494
1570715125,1.8309631,19.612701,-8.661026,3.5829926,-6.965103,2.191864,0.034227967,12.072722,-7.3578887
1570715125,0.9684601,19.612701,7.858368,1.9616547,-3.1748962,0.7825165,2.3555574,11.914502,7.394762
1570715125,-13.45961,19.612701,-3.5595856,1.5217133,0.04006958,1.0413666,-18.478653,11.305243,-3.4221988
1570715125,-3.3620605,15.77121,-2.5821533,1.9989471,0.9338379,-0.49473572,-4.2663045,8.113241,-1.1326072
1570715125,-3.6427765,15.656876,-2.937088,1.0146332,0.85606384,-0.44360352,-2.8479526,8.204152,-4.050108
1570715125,-2.0835571,6.486496,1.2108612,0.8601837,-1.9519653,0.6376343,-1.3533866,-0.6255746,2.335837
1570715125,-2.3110046,3.5607758,-0.0023956299,0.22207642,-0.9612732,0.67492676,-1.6469469,-2.7918344,2.4751778
1570715126,-2.4486694,-2.6910858,0.5123596,-1.202179,0.6376953,6.1035156E-4,-2.0945377,-10.229357,1.8068565
1570715126,-2.4486694,-2.6910858,0.5123596,-1.202179,0.6376953,6.1035156E-4,-2.0945377,-10.229357,1.8068565
1570715126,-2.4486694,-2.6910858,0.5123596,-1.202179,0.6376953,6.1035156E-4,-2.0945377,-10.229357,1.8068565
1570715126,-2.4486694,-2.6910858,0.5123596,-1.202179,0.6376953,6.1035156E-4,-2.0945377,-10.229357,1.8068565
1570715126,-2.4486694,-2.6910858,0.5123596,-1.202179,0.6376953,6.1035156E-4,-2.0945377,-10.229357,1.8068565
1570715126,-2.4486694,-2.6910858,0.5123596,-1.202179,0.6376953,6.1035156E-4,-2.0945377,-10.229357,1.8068565
1570715126,-2.4486694,-2.6910858,0.5123596,-1.202179,0.6376953,6.1035156E-4,-2.0945377,-10.229357,1.8068565
1570715126,-2.4486694,-2.6910858,0.5123596,-1.202179,0.6376953,6.1035156E-4,-2.0945377,-10.229357,1.8068565
1570715126,-2.4486694,-2.6910858,0.5123596,-1.202179,0.6376953,6.1035156E-4,-2.0945377,-10.229357,1.8068565
1570715126,0.41838074,16.590027,3.5093079,-1.2916565,2.99086,0.31166077,-2.0945377,-10.229357,1.8068565
1570715126,-1.7519531,19.612701,0.20051575,-0.88153076,-5.3490906,-1.359726,-1.1210481,11.878424,-0.09462015
1570715126,0.5381012,18.407227,9.92038,-5.757248,0.008117676,1.0999603,1.2608478,10.637331,6.306103
1570715126,0.5381012,18.407227,9.92038,-5.757248,0.008117676,1.0999603,1.2608478,10.637331,6.306103
1570715126,0.5285187,13.089096,-2.1338348,-5.825424,5.603958,1.4802551,4.2614436,7.3827953,-4.639046
1570715126,8.746613,9.200317,-6.2752075,1.0657654,-0.5095978,-0.19007874,11.0761385,3.4661765,-11.916456
1570715126,8.746613,9.200317,-6.2752075,1.0657654,-0.5095978,-0.19007874,11.0761385,3.4661765,-11.916456
1570715126,3.226181,0.37828064,-0.81222534,1.0838776,-0.109054565,-0.97091675,5.284935,-6.6276817,-3.5859659
1570715126,3.226181,0.37828064,-0.81222534,1.0838776,-0.109054565,-0.97091675,5.284935,-6.6276817,-3.5859659
1570715126,2.6725311,-0.60214233,0.10952759,1.3672485,-1.1679382,-0.42762756,4.8115587,-7.648728,-2.48937
1570715126,-0.25138855,0.41360474,1.1354523,2.1150513,-0.28269958,-0.056915283,2.6812496,-7.486989,-0.96995354
1570715126,-1.5436554,17.276566,-2.387619,4.5736847,-3.3176422,0.6940918,1.5637662,6.303395,-0.7831995
1570715126,-1.5436554,17.276566,-2.387619,4.5736847,-3.3176422,0.6940918,1.5637662,6.303395,-0.7831995
1570715126,3.7128143,19.612701,10.023926,3.7854004,-1.8720703,1.2554932,4.3052344,11.858229,10.189377
1570715126,-4.083313,19.612701,4.1766815,2.5443573,2.0129395,-0.6289673,3.7971392,11.822423,9.829351
1570715126,-0.7805023,13.054977,0.029327393,0.9081116,-0.024902344,0.46826172,0.76014984,6.067095,0.12419915
1570715126,-0.7805023,13.054977,0.029327393,0.9081116,-0.024902344,0.46826172,0.76014984,6.067095,0.12419915
1570715126,-3.1878815,4.5489807,0.6296692,0.9656372,-1.7921753,0.60035706,-1.948324,-2.199203,3.0658147
1570715126,-3.7134094,-1.663971,0.8547363,-0.57048035,-1.2339783,0.6909027,-3.1226578,-8.705101,2.0062857
1570715126,-3.4177246,-2.4307098,0.78590393,-0.9571686,-0.9282532,0.62379456,-2.8213575,-9.813854,2.3154736
1570715126,-3.4374695,-3.229187,0.27053833,-1.5888672,-0.17085266,0.52153015,-2.8429499,-10.998142,1.6429893
1570715126,-1.9806061,-2.8143768,1.0791931,-2.2131042,0.618515,0.13482666,-1.611208,-10.684108,1.6423843
1570715126,0.1370697,-0.4219818,0.68115234,-0.5108185,1.1777802,-0.11656189,-0.11815411,-8.6739235,1.150741
1570715126,2.4528656,5.9441986,-9.217682,1.3778992,3.4020538,0.1103363,3.293367,-2.7914548,-4.1601205
1570715127,-15.470139,19.612701,13.946823,0.27215576,4.3842316,-1.9498901,-3.6026433,11.898529,20.105171
1570715127,-18.531128,19.612701,10.126282,0.39678955,4.2851562,-1.8039551,-12.441998,11.890867,16.1399
1570715127,1.4550781,5.078705,1.3623047,0.1613617,-2.0371857,-1.582367,2.3148222,-4.597421,2.3999565
1570715127,1.8207855,5.078705,1.3623047,0.1613617,-2.0371857,-1.582367,2.3148222,-4.597421,2.3999565
1570715127,0.23223877,19.547455,5.8370667,-1.6879425,-6.799988,-1.2159271,2.6630738,11.965317,6.2262053
1570715127,0.15562439,16.01361,3.9390564,-2.9801025,-5.241501,0.2157898,2.3712265,9.199507,3.862124
1570715127,0.3034668,12.725784,1.9476776,-6.220642,1.2811127,1.2906494,2.7905407,5.347794,-3.3723829
1570715127,-2.7970276,11.352707,6.8288574,-4.4789276,14.102631,2.2333984,-1.3286172,5.4083486,8.415158
1570715127,9.3589325,7.8062897,-10.938507,1.3139801,-1.1711273,0.97213745,10.3299675,0.23833466,-18.01029
1570715127,9.3589325,7.8062897,-10.938507,1.3139801,-1.1711273,0.97213745,10.3299675,0.23833466,-18.01029
1570715127,2.7982178,-0.3657074,1.4095917,1.6442108,-0.65660095,-0.14320374,4.9774327,-7.744863,-0.7257781
1570715127,2.7982178,-0.3657074,1.4095917,1.6442108,-0.65660095,-0.14320374,4.9774327,-7.744863,-0.7257781
1570715127,0.7332306,-0.5704193,1.2952576,2.28656,-0.77911377,0.13482666,3.3841882,-7.9614453,-0.51355076
1570715127,-1.5263062,0.47166443,0.7445984,2.844757,-0.19322205,0.2956848,0.74117684,-7.206948,-0.3966546
1570715127,0.41539,7.2729797,1.6094971,3.290039,-0.37963867,0.90715027,1.8646117,-1.7033463,-0.081715286
1570715127,2.2248077,19.612701,-2.8921967,3.0162659,-4.686508,2.8171692,2.49835,11.892584,-6.802379
1570715127,5.3348846,19.612701,10.011948,2.838379,-2.3546448,1.0498962,5.6283474,11.795805,8.307196
1570715127,-16.669632,16.96112,1.7046661,1.744339,1.6315765,-0.9879608,-10.406621,11.253731,5.313299
1570715127,0.80384827,14.101852,-3.2602997,0.5246124,-0.7950897,0.22644043,0.41702348,6.887019,-3.1659184
1570715127,2.0500336,11.787857,3.7690735,0.83354187,-1.6153412,0.2914276,4.2815876,5.024,6.3659596
1570715127,2.0500336,11.787857,3.7690735,0.83354187,-1.6153412,0.2914276,4.2815876,5.024,6.3659596
1570715127,-3.767273,-2.151184,0.5524597,-0.9582367,-1.4310608,0.5140686,-3.050961,-9.70339,2.1989036
1570715127,-3.6613312,-2.3020325,0.47225952,-1.0306702,-1.3383789,0.50660706,-3.050961,-9.70339,2.1989036
1570715127,-1.1839294,-2.2493591,0.32081604,-2.3963318,1.3162689,0.048553467,-0.5569216,-10.338054,0.812354
1570715127,-1.1839294,-2.2493591,0.32081604,-2.3963318,1.3162689,0.048553467,-0.5569216,-10.338054,0.812354
1570715127,2.111084,6.648102,-7.103592,0.69718933,3.053711,0.25094604,3.4722142,-2.1358943,-5.3876896
1570715127,2.111084,6.648102,-7.103592,0.69718933,3.053711,0.25094604,3.4722142,-2.1358943,-5.3876896
1570715127,-2.8562775,19.572006,11.79982,1.1637726,2.0257263,-0.42762756,-2.668644,11.005627,11.226241
1570715127,-6.6103973,14.204193,3.1753082,1.0508575,1.0914917,-0.6481323,-7.7862444,7.0416884,4.3260155
1570715127,0.120910645,3.24234,-1.1959076,0.5054474,-1.1647339,-1.2841034,0.45641816,-3.760181,0.060404062
1570715127,-0.42497253,18.526932,7.349594,-0.7654114,-4.894226,-1.5887604,2.2903066,7.9327407,4.993218
1570715127,-1.6065063,19.612701,7.0856323,-1.4013824,-4.764267,-0.9410858,0.015323877,11.9061775,7.232473
1570715127,-0.35794067,15.932816,3.0502167,-3.1814423,-2.4345398,0.44056702,1.8526176,8.517099,2.8937774
1570715127,0.40342712,14.976334,-3.7229767,-3.8206024,-1.5109558,0.88371277,0.46529627,6.9486074,0.18106174
1570715128,-2.474411,12.223602,2.7072449,-7.018524,4.4204407,1.490921,0.57123923,5.601926,-0.8082042
1570715128,0.86849976,8.419815,-19.612701,-0.6972351,8.384293,1.7657471,2.00845,2.7505574,-16.713438
1570715128,3.550003,8.383301,-18.804657,0.34140015,1.6997528,1.5292664,4.203882,0.6597576,-22.567392
1570715128,1.8680725,3.0777435,-0.032318115,0.64819336,0.2052002,-0.516037,3.5523467,-3.4978552,-2.0480847
1570715128,1.821991,1.0013733,-1.1282654,0.85697937,0.72610474,-0.42762756,3.5578413,-5.511255,-3.424359
1570715128,1.948883,-0.6829529,0.4118042,1.9819031,-1.1785889,-0.018569946,4.047069,-8.415478,-2.3201206
1570715128,1.948883,-0.6829529,0.4118042,1.9819031,-1.1785889,-0.018569946,4.047069,-8.415478,-2.3201206
1570715128,1.648407,8.515579,4.600464,3.6895142,-1.4076233,0.64190674,2.622314,-0.015100956,2.4491682
1570715128,2.122467,19.612701,-4.854248,3.3763275,-3.8534698,2.5338135,2.314023,11.8124275,-6.3749933
1570715128,2.458847,19.612701,-3.6068573,3.3763275,-3.8534698,2.5338135,2.9156606,11.783822,-5.3303056
1570715128,-1.7854767,19.612701,7.261612,2.1608582,-0.12716675,-0.513916,2.2744775,11.6857195,8.899029
1570715128,-4.3706207,15.8771515,-4.094681,1.266037,0.84861755,1.0562897,-5.7352533,8.784477,-3.6701527
1570715128,-2.5953217,12.683289,-2.9616241,0.9603119,0.31384277,0.49809265,-2.0503998,5.343107,-2.8360345
1570715128,2.889206,13.782822,6.4146576,0.84207153,-1.2606049,1.030716,1.2102182,5.600561,5.688187
1570715128,-4.9158936,5.0816956,-0.23822021,0.50331116,-0.9697876,0.72073364,-4.158932,-1.755825,2.0155764
1570715128,-3.81456,-2.5091248,1.4718323,-0.53318787,-0.7897644,0.6525574,-4.639018,-8.890088,3.0467553
1570715128,-1.8842316,-3.918106,0.12988281,-1.6911316,1.1916199,-0.1325531,-1.9986112,-11.934865,1.0771214
1570715128,-0.96665955,-3.4967346,0.13287354,-1.859436,1.4355774,-0.64068604,-0.9601752,-11.44906,0.733368
1570715128,-1.2988586,-1.1366425,1.0845795,-1.1691589,0.7761688,-0.92510986,-0.7674257,-9.226652,1.326253
1570715128,2.778473,5.316925,2.977188,0.18693542,2.7075043,0.45228577,0.857016,-6.6741447,0.5542345
1570715128,0.33338928,19.455887,11.653183,0.33073425,4.3874207,-0.098464966,1.282609,11.654329,6.1010647
1570715128,-4.6381683,14.797363,0.9858093,1.5707092,1.8989563,-0.4425354,-6.006404,6.441804,2.5033233
1570715128,-0.38546753,2.0859528,-4.3430786,0.6162262,-1.1018829,-1.1338959,-1.4860529,-2.5969305,-0.9692856
1570715128,-2.2714996,19.60971,8.771164,-0.5022888,-2.9117737,-1.6452179,-0.73200953,11.780925,12.352477
1570715128,-2.8760376,19.612701,7.4573364,-0.5022888,-2.9117737,-1.6452179,-0.73200953,11.780925,12.352477
1570715128,3.1531677,17.620728,-7.9589233,-4.6472473,0.13168335,0.35108948,2.295556,9.348696,-0.32800138
1570715128,3.1531677,17.620728,-7.9589233,-4.6472473,0.13168335,0.35108948,2.295556,9.348696,-0.32800138
1570715128,5.332489,5.470154,-19.612701,-0.14224243,8.807205,1.3268585,7.0730076,0.46407413,-17.852009
1570715128,5.332489,5.470154,-19.612701,-0.14224243,8.807205,1.3268585,7.0730076,0.46407413,-17.852009
1570715128,1.8034363,1.5484467,1.0480652,0.39039612,-0.6459503,-0.28807068,4.145092,-5.1093707,-1.2332234
1570715128,1.8034363,1.5484467,1.0480652,0.39039612,-0.6459503,-0.28807068,4.145092,-5.1093707,-1.2332234
1570715128,1.3377533,-1.7537537,-1.2713165,1.5611267,-0.13569641,0.026184082,3.4345167,-9.328203,-3.1726258
1570715128,0.8265991,-1.1091156,-0.64463806,1.8391571,-0.8643341,0.24029541,3.0300872,-8.659407,-2.5260625
1570715128,-0.746994,0.50457764,0.106536865,2.0820312,-0.9346466,0.3851776,1.7124679,-7.9218836,-1.7692804
1570715129,1.5652161,19.612106,-4.5352173,3.6767426,-3.4806213,2.1247406,0.88445663,11.8349,-3.7734118
1570715129,2.3038177,19.612701,-4.46698,3.539322,-3.5200348,2.1726837,2.37026,11.810965,-4.609253
1570715129,1.6717529,19.612701,4.9960938,2.7329102,-2.8169556,1.5761414,3.1952996,11.711088,2.4047437
1570715129,-2.1990814,15.4539795,-0.73202515,0.06655884,-0.42651367,0.67385864,-3.2067575,7.725918,-1.0497055
1570715129,-2.1990814,15.4539795,-0.73202515,0.06655884,-0.42651367,0.67385864,-3.2067575,7.725918,-1.0497055
1570715129,-0.77812195,11.343124,0.07362366,0.36270142,-1.0731201,0.9114075,-0.12660268,4.731825,1.4270296
1570715129,-0.77812195,11.343124,0.07362366,0.36270142,-1.0731201,0.9114075,-0.12660268,4.731825,1.4270296
1570715129,-5.0116577,-0.73561096,-0.020355225,-0.25302124,-1.4885712,0.6940918,-4.9714775,-7.9922457,1.2342536
1570715129,-5.0116577,-0.73561096,-0.020355225,-0.25302124,-1.4885712,0.6940918,-4.9714775,-7.9922457,1.2342536
1570715129,-2.0805664,-1.7800903,0.41059875,-1.4631653,1.1149292,-0.21777344,-1.882334,-9.714576,0.96727467
1570715129,-0.9008179,-0.43814087,2.3535004,-0.5949707,1.0978851,-0.5927429,-0.8271917,-9.097105,2.9646533
1570715129,-0.9008179,-0.43814087,2.3535004,-0.5949707,1.0978851,-0.5927429,-0.8271917,-9.097105,2.9646533
1570715129,0.806839,-0.20170593,-1.9859924,-0.25727844,1.6422272,-0.20817566,0.70006543,-8.199741,-0.88885295
1570715129,-0.6793518,7.3777313,-4.0300446,0.87083435,1.8829803,0.04322815,0.9416081,-1.9872446,-3.4204936
1570715129,-3.997116,19.612701,12.664124,0.6300812,1.0115967,-1.0028687,-2.792954,11.741547,13.331051
1570715129,-5.0936584,19.41159,6.616974,0.9336853,1.5996246,-1.2361603,-4.9077253,11.717592,8.701134
1570715129,-0.65600586,4.991913,0.17178345,0.578949,0.008117676,-1.1924896,-0.25742483,-1.6024594,1.0885937
1570715129,-4.317337,17.509995,2.1470032,-1.5686188,-3.3879395,-1.039093,-1.9095032,10.975121,3.3292894
1570715129,-4.317337,17.509995,2.1470032,-1.5686188,-3.3879395,-1.039093,-1.9095032,10.975121,3.3292894
1570715129,-2.8287506,13.496109,4.061157,-3.576645,-1.6100159,0.42564392,-1.3696685,5.9157534,3.309744
1570715129,-0.45310974,16.812088,0.3537445,-3.8376465,0.74635315,0.41073608,0.8324164,8.615516,1.6270173
1570715129,-0.24420166,10.814011,-2.802414,-6.3687134,3.8238983,0.5630646,3.4798255,5.0027514,-5.9154177
1570715129,1.9339142,7.597992,-15.301941,-0.39897156,4.089142,1.030716,3.2077913,0.29118013,-17.463789
1570715129,3.110672,6.150711,0.03352356,0.39785767,-1.132782,-0.55332947,7.3444967,0.6300163,-3.850276
1570715129,1.9369049,3.8642426,-0.35853577,0.3840027,-0.23902893,-0.42123413,4.0884066,-2.388369,-2.6540086
1570715129,1.6448212,-0.8571167,-1.177948,1.1723022,0.88375854,-0.13148499,3.4865952,-8.249651,-3.7709727
1570715129,1.9494781,-1.3473358,-1.3581085,1.5611267,0.27549744,-0.15492249,4.042568,-8.496759,-3.591897
1570715129,-0.18016052,1.1809387,0.78170776,2.5635376,-1.8230743,-0.12402344,2.0644054,-7.3079734,-1.1664752
1570715129,0.3262024,4.084503,1.7411804,2.8010864,-1.7154846,-0.020690918,1.7858837,-4.803594,-0.16132045
1570715129,-3.257904,19.612701,-4.5334167,3.798172,-3.123764,1.2799988,-1.1476555,10.463554,-3.0908809
1570715129,2.1763306,19.612701,1.3209991,3.1025543,-4.1623993,2.399582,2.1648426,11.7372875,-2.6457732
1570715129,-12.54921,18.274948,-0.6069336,1.8487396,2.514679,-0.38607788,-4.982892,11.607125,5.077468
1570715129,-17.453735,12.673706,-6.8911133,0.20503235,2.0086823,1.3215332,-18.492739,5.0882654,-3.3985252
1570715130,1.1246796,13.084915,-0.13467407,0.99653625,-1.2638092,-0.258255,2.7578006,5.976553,2.4301083
1570715130,0.09037781,12.682678,1.3162079,0.25297546,0.13807678,0.5609436,-0.029751599,4.3460016,2.8738203
1570715130,-4.064163,3.4751892,1.1127014,0.52993774,-1.7186737,0.42778015,-3.712888,-3.5568428,2.5954804
1570715130,-3.5236664,0.7463989,0.47105408,0.31582642,-1.6100159,0.3894348,-2.9206696,-6.346835,2.1719508
1570715130,-2.4654236,-2.07518,-2.2858582,-2.1396027,0.7399597,0.23390198,-2.0746202,-10.069664,-1.4859743
1570715130,-2.4654236,-2.07518,-2.2858582,-2.1396027,0.7399597,0.23390198,-2.0746202,-10.069664,-1.4859743
1570715130,1.296463,2.771881,1.8477325,-1.1361237,1.3109436,-0.34986877,1.482656,-5.657059,2.0664814
1570715130,2.1236572,3.4117432,0.8601227,-0.028259277,2.9503784,-0.5724945,1.8492516,-4.5509176,2.55814
1570715130,-1.5927429,16.301514,3.4494476,0.8303528,1.0723114,-0.84840393,0.13465464,4.596517,2.4503713
1570715130,-1.5927429,16.301514,3.4494476,0.8303528,1.0723114,-0.84840393,0.13465464,4.596517,2.4503713
1570715130,-3.7924194,13.964783,1.9824066,0.9837494,-0.9112091,-1.4119263,-3.8309705,9.426396,2.0681405
1570715130,-0.814621,6.7696075,-2.0392609,1.0764313,-5.738983,-0.91871643,0.7769178,-2.9013114,-2.0333784
1570715130,-0.814621,6.7696075,-2.0392609,1.0764313,-5.738983,-0.91871643,0.7769178,-2.9013114,-2.0333784
1570715130,0.90919495,19.601929,7.1287384,-1.0242767,-4.255066,-0.27848816,3.0004215,11.827587,6.4835334
1570715130,-1.1121063,14.871582,3.9719849,-3.8898315,1.5783234,0.4309845,1.5759711,7.3836656,4.271614
1570715130,1.0151367,10.119095,0.41778564,-2.1566467,-0.5394287,0.5939636,2.7144973,2.9116426,-1.0958803
1570715130,1.0151367,10.119095,0.41778564,-2.1566467,-0.5394287,0.5939636,2.7144973,2.9116426,-1.0958803
1570715130,0.38067627,11.453262,-8.842987,-4.2978363,7.4223633,1.477066,-0.1300956,6.6418715,-6.277034
1570715130,0.38067627,11.453262,-8.842987,-4.2978363,7.4223633,1.477066,-0.1300956,6.6418715,-6.277034
1570715130,3.2854462,4.779419,-4.220978,2.5155945,-2.9021912,1.2597504,6.180976,-2.9889693,-9.010769
1570715130,-2.5989075,6.158478,-1.5119324,2.4282532,-3.2590485,1.3002319,-1.2078817,-2.0381365,-6.6652555
1570715130,-3.6577454,2.5109253,1.2611389,1.5206451,3.5277557,0.89224243,-3.2342465,-5.1622114,-2.4136927
1570715130,-3.5470123,11.674133,5.5844727,4.1912537,2.6009674,-0.08035278,-2.5080914,0.685843,4.55349
1570715130,0.881073,19.612701,5.7221375,4.495926,0.66645813,-1.18396,0.9903605,11.510347,6.1333127
1570715130,0.881073,19.612701,5.7221375,4.495926,0.66645813,-1.18396,0.9903605,11.510347,6.1333127
1570715130,-5.653305,18.97644,0.786499,-5.493164E-4,2.8822021,-0.45532227,-4.214346,11.16884,0.1813407
1570715130,-6.1261597,18.83339,1.3820496,-0.26474,3.180481,-0.39033508,-4.214346,11.16884,0.1813407
1570715130,-6.114197,14.247299,2.0973206,-1.8040466,5.255615,0.37345886,-4.8641157,7.7485237,3.2881851
1570715130,2.21344,8.73584,-3.9713745,-0.7494354,2.2718048,4.6195984,1.5603805,1.1144333,-3.1266315
1570715130,2.21344,8.73584,-3.9713745,-0.7494354,2.2718048,4.6195984,1.5603805,1.1144333,-3.1266315
1570715130,8.6388855,10.965439,1.2677307,0.08039856,0.56951904,6.381546,8.382972,2.65351,2.547986
1570715130,8.620926,10.853516,-2.3289642,-0.57899475,1.495224,5.613495,4.7904825,3.1176295,-1.0592566
1570715130,8.659821,5.5790863,-0.2639618,-1.5451965,2.8417206,0.3372345,6.0410867,-2.026752,-0.89798826
1570715130,7.587219,4.3700104,-0.6027374,-0.9220123,3.3051147,-2.7499084,4.5986843,-2.5843902,-1.1532874
1570715131,5.446808,-0.49978638,-0.8954315,-0.965683,3.020691,-3.6436615,3.7970688,-7.584181,-1.999074
1570715131,5.2870026,0.12509155,-2.9029694,-1.4226837,1.0893555,-4.2817535,4.1850505,-8.918268,-3.989036
1570715131,4.4801483,1.0289154,-2.4534607,-1.2618256,-1.5897827,-5.026367,4.132503,-7.70096,-5.484561
1570715131,1.0229187,4.1048584,2.360077,-1.8711548,-1.5961761,-4.3605804,2.5772123,-3.321474,-0.66199374
1570715131,0.6488342,3.4715881,2.1481934,-1.6357422,-1.0933685,-4.3115845,2.39001,-3.5642967,-0.52110934
1570715131,-1.6047211,5.964554,6.451172,-0.614151,-1.6345215,-5.0934906,0.3398111,-2.5935183,3.2210894
1570715131,-4.728546,11.589737,8.375519,0.12727356,-2.5740814,-3.47641,-1.2231512,4.9929767,7.056221
1570715131,-4.055771,12.045227,10.774506,0.6130371,-3.122696,-0.16236877,-0.6969719,6.105665,7.335275
1570715131,-3.6625366,12.814972,11.182724,0.65563965,-3.0843506,0.47784424,-0.61223197,5.8398166,7.0420003
1570715131,-3.1411896,14.54837,11.674133,0.5278168,-2.2470398,0.39901733,-0.7746978,7.137014,7.3979397
1570715131,-2.8778229,10.194504,8.255814,-0.25302124,-1.9999084,-0.0036468506,-0.76381755,4.4199605,4.027949
1570715131,-2.6150665,7.539337,7.0389557,-0.9124298,-1.9455719,0.2818451,-0.37372613,1.8607826,3.0077462
1570715131,-2.3505096,5.4486084,3.8337097,-2.987564,-1.8262634,0.9625397,-0.79246545,-0.36601067,-1.0349789
1570715131,-1.4706421,1.4478912,3.4889526,-4.499176,-1.7559662,1.473877,-0.4633007,-4.068197,-2.7798085
1570715131,-1.2204437,1.3790588,4.6345825,-4.833664,-1.6046906,1.908493,-0.8786941,-3.6909704,-2.8339548
1570715131,-2.2050629,0.24899292,2.494156,-4.150833,-2.1628876,2.272812,-2.0479743,-3.4494867,-4.55078
1570715131,-3.2549133,0.24241638,5.4719543,-2.9907532,-2.503769,3.1559296,-4.022882,-2.7965064,-2.8296852
1570715131,-3.4572296,1.4251556,8.038528,-2.1843414,-1.0582123,3.3838959,-5.188519,-1.7475495,-0.7920675
1570715131,-2.3816376,2.7413635,12.5522,1.709198,-2.2363892,1.7945099,-4.4613934,1.7689079,3.4689312
1570715131,-2.3816376,2.7413635,12.5522,1.709198,-2.2363892,1.7945099,-4.4613934,1.7689079,3.4689312
1570715131,-0.794281,2.3499146,11.900986,0.59173584,0.23822021,-0.2710266,-2.32569,0.411798,10.703419
1570715131,1.4024048,2.6910858,11.968018,-0.4181366,0.90719604,0.15614319,-0.050228,0.6708889,3.8770933
1570715131,1.4024048,2.6910858,11.968018,-0.4181366,0.90719604,0.15614319,-0.050228,0.6708889,3.8770933
1570715131,1.3048401,2.0218964,9.424774,-1.106308,-0.48083496,0.92633057,-0.57621574,0.072173595,1.0090733
1570715131,1.4011993,2.1404114,9.545685,-1.0583649,-0.6395569,0.91993713,-0.3736174,0.3370322,1.2222204
1570715131,3.2782593,0.94810486,9.193741,0.31263733,-2.1309357,0.6770477,1.0637999,-0.32018876,1.366457
1570715131,5.281616,1.8973999,9.115921,0.25404358,-1.7644806,0.8155365,2.3186452,0.06840694,0.92416525
1570715131,6.099228,3.0855255,8.364151,-0.2881775,-0.057922363,0.62698364,3.43803,1.4130759,0.78723574
1570715131,4.494522,1.7316132,7.7883453,-0.63012695,1.5996246,0.13482666,2.041998,0.5844637,0.0840044
1570715131,4.494522,1.7316132,7.7883453,-0.63012695,1.5996246,0.13482666,2.041998,0.5844637,0.0840044
1570715131,3.916916,1.916565,8.469482,-0.38511658,0.7367554,-0.5874176,2.2975192,1.2350714,-0.3787489
1570715131,4.264679,0.7170563,12.923309,0.2124939,-0.5170593,-1.1754456,2.6067579,-0.04944682,3.8314342
1570715131,4.4172974,0.8164215,14.072525,0.40104675,-0.27204895,-1.3032684,2.5480056,-0.38535523,5.4610205
1570715132,2.1715393,-0.6542206,13.77504,-0.5076294,0.4416809,-1.7048798,0.673023,-1.8245394,5.245508
1570715132,2.1715393,-0.6542206,13.77504,-0.5076294,0.4416809,-1.7048798,0.673023,-1.8245394,5.245508
1570715132,2.818573,-0.056259155,11.071991,0.35310364,-0.4094696,-1.6015472,1.3988012,-1.4704993,3.0188608
1570715132,2.818573,-0.056259155,11.071991,0.35310364,-0.4094696,-1.6015472,1.3988012,-1.4704993,3.0188608
1570715132,1.2431946,0.8044586,9.786896,-0.44477844,0.1625824,-1.1850281,8.313656E-4,-0.67657566,1.226305
1570715132,1.2431946,0.8044586,9.786896,-0.44477844,0.1625824,-1.1850281,8.313656E-4,-0.67657566,1.226305
1570715132,1.1468201,1.4167633,8.357559,-0.13796997,0.34580994,-0.6630554,-0.02600038,0.15376544,0.13296509
1570715132,1.1551971,1.9859924,6.767807,0.10597229,0.2137146,-0.5820923,-1.5580654E-4,0.42317712,-1.3731279
1570715132,1.1551971,1.9859924,6.767807,0.10597229,0.2137146,-0.5820923,-1.5580654E-4,0.42317712,-1.3731279
1570715132,0.032913208,1.1528015,9.5169525,-0.13264465,0.7399597,-0.516037,-0.77600527,-0.22303677,0.9155741
1570715132,0.17897034,1.3150177,9.317627,-0.080444336,0.747406,-0.49687195,-0.77600527,-0.22303677,0.9155741
1570715132,-0.22744751,1.9177551,9.559448,0.2785492,-0.52345276,-0.54800415,-0.93233824,0.46880317,0.6644707
1570715132,-0.22744751,1.9177551,9.559448,0.2785492,-0.52345276,-0.54800415,-0.93233824,0.46880317,0.6644707
1570715132,0.84095764,1.8986053,13.035233,-0.15075684,-0.33702087,-0.09100342,0.117185175,0.4601642,4.136924
1570715132,0.84095764,1.8986053,13.035233,-0.15075684,-0.33702087,-0.09100342,0.117185175,0.4601642,4.136924
1570715132,0.33699036,3.1292267,12.09671,0.24658203,-0.36045837,0.5140686,-0.6010898,1.4257613,3.6109724
1570715132,0.33699036,3.1292267,12.09671,0.24658203,-0.36045837,0.5140686,-0.6010898,1.4257613,3.6109724
1570715132,-0.49499512,0.25079346,14.17247,-0.70895386,0.47151184,0.42991638,-1.3189287,-1.0324669,5.4800653
1570715132,-0.8954315,0.23643494,13.159134,-0.6450348,0.62384033,0.40859985,-1.773836,-1.1121018,4.663207
1570715132,-0.7745209,0.6607971,10.077789,-0.47459412,0.2872162,0.48316956,-1.4960508,-0.42286074,1.4156818
1570715132,-0.76135254,0.6380615,10.017334,-0.48098755,0.24993896,0.4863739,-1.4960508,-0.42286074,1.4156818
1570715132,-0.462677,0.44651794,10.402206,-0.48312378,-0.025970459,0.47891235,-1.254209,-0.3441525,1.5122108
1570715132,0.6171112,0.92715454,8.89267,-0.27113342,0.62490845,0.4671936,0.018029213,0.08495504,0.40027332
1570715132,0.6171112,0.92715454,8.89267,-0.27113342,0.62490845,0.4671936,0.018029213,0.08495504,0.40027332
1570715132,-0.10952759,1.4449005,7.689575,-0.14649963,0.08482361,0.38090515,0.7633524,0.89898,-1.1964388
1570715132,0.41419983,1.1845245,9.173981,-0.01121521,0.057113647,0.3564148,0.2601479,0.8229147,0.30935097
1570715132,0.41419983,1.1845245,9.173981,-0.01121521,0.057113647,0.3564148,0.2601479,0.8229147,0.30935097
1570715132,0.86790466,1.3706818,7.881119,0.47242737,-0.2177124,0.15400696,0.3691368,0.6541757,-1.0406141
1570715132,0.86790466,1.3706818,7.881119,0.47242737,-0.2177124,0.15400696,0.3691368,0.6541757,-1.0406141
1570715132,2.4049683,1.8447266,11.040268,0.040985107,-0.16764832,-0.13360596,1.1041077,-0.26884538,1.5677643
1570715132,2.4049683,1.8447266,11.040268,0.040985107,-0.16764832,-0.13360596,1.1041077,-0.26884538,1.5677643
1570715132,2.5354614,1.1839294,12.45224,-0.0655365,-0.06752014,-0.27529907,1.5616668,-0.02482313,3.0592146
1570715133,1.8956146,0.86790466,9.9006195,-0.2839203,-0.77911377,-0.6790314,1.1715475,0.16400367,0.9461088
1570715133,1.8956146,0.86790466,9.9006195,-0.2839203,-0.77911377,-0.6790314,1.1715475,0.16400367,0.9461088
1570715133,1.2473755,-1.0498505,14.860214,-1.4557037,-0.62145996,-0.9080658,0.22092783,-1.3098428,4.3742247
1570715133,1.561615,-1.5873566,17.07425,-1.315094,0.79748535,-0.82922363,0.27745795,-2.056241,8.854389
1570715133,1.1204834,-1.1025238,11.573578,0.17840576,-0.43823242,-0.4883423,-0.19305074,-1.0659828,3.5857687
1570715133,1.1204834,-1.1025238,11.573578,0.17840576,-0.43823242,-0.4883423,-0.19305074,-1.0659828,3.5857687
1570715133,1.1761475,-0.25378418,8.434174,0.90065,-0.8121338,-0.24653625,0.11589503,-0.532382,-0.5162487
1570715133,0.754776,0.707489,8.481461,0.1347351,0.21690369,-0.1879425,-0.40661263,0.16166413,-0.5867958
1570715133,0.72184753,0.73083496,8.497025,0.107040405,0.24354553,-0.19540405,-0.47161365,0.18251991,-0.6033602
1570715133,0.9139862,0.62667847,8.338409,-0.34783936,0.6728363,-0.28701782,-0.118940234,0.19306892,-0.6301451
1570715133,0.9139862,0.62667847,8.338409,-0.34783936,0.6728363,-0.28701782,-0.118940234,0.19306892,-0.6301451
1570715133,0.77511597,0.44770813,9.676758,-0.31054688,0.39801025,-0.37861633,0.086411595,0.06968588,0.48326206
1570715133,2.229599,0.6877289,9.044693,-0.05595398,0.60147095,-0.20285034,0.8675555,0.61943054,0.0013446808
1570715133,2.229599,0.6877289,9.044693,-0.05595398,0.60147095,-0.20285034,0.8675555,0.61943054,0.0013446808
1570715133,1.4131775,1.4161682,10.085571,-0.09643555,0.36071777,0.11672974,0.66588473,1.2380127,0.7324085
