time,ax,ay,az,gx,gy,gz,la_x,la_y,la_z,fox,foy,foz
1570715098,-4.6591167,8.911219,8.528147,0.6594188,-0.5187996,0.17896989,-1.685518,1.2114661,3.7588966
1570715098,-4.697424,7.5848308,5.1235914,-0.1054644,-0.80323386,0.08202787,-2.135628,0.009576807,0.61770403
1570715098,-4.185065,7.536947,3.5003228,0.04900366,0.19068815,-0.07350549,-1.5610195,-0.110133275,-2.1404164
1570715098,-4.343082,8.073248,6.775591,0.64237404,0.975812,-0.05113425,-1.6041151,0.19153613,1.6136919
1570715098,-4.5154643,8.09719,8.978256,0.09587672,0.5944357,0.01065297,-1.7142484,0.23463176,4.2281604
1570715098,-4.453215,7.1347213,6.1004257,-0.5347791,0.50495076,-0.044742472,-1.4939818,-0.7757214,1.115698
1570715098,-3.7445314,7.3310456,4.5777135,-0.6871165,1.1547819,-0.14168449,-0.62728083,-0.46447513,-0.48362875
1570715098,-4.510676,7.053318,4.735731,-0.19814523,0.9715508,-0.089484945,-1.1923125,-0.6703765,-0.31124622
1570715098,-3.3327289,7.3549876,3.4332852,0.20240642,0.42931467,-0.022371236,0.08619126,-0.37349546,-1.5370775
1570715098,-3.7445314,6.9767036,3.6966474,0.01065297,0.74464256,0.05219955,-0.23942018,-0.7661445,-1.1923125
1570715098,-4.146757,7.723695,5.2002063,0.35367858,0.95131016,-0.01065297,-0.521936,-0.047884032,0.4405331
1570715098,-3.2848446,8.901642,6.8905125,0.36752746,0.8362581,0.05219955,0.45968673,1.0630256,2.3415294
1570715098,-4.4244847,7.541735,3.8402996,-0.14488038,1.3039235,0.21518998,-0.5650316,-0.31603462,-0.5793968
1570715098,-4.807557,6.555324,3.098097,0.4548818,0.80323386,0.1725781,-0.842759,-1.3503298,-1.1348516
1570715098,-3.8881836,6.8186865,2.5809495,0.57206446,0.65089643,0.30893612,0.0047884034,-1.8243817,-1.4317327
1570715098,-4.2042184,7.905654,3.8498764,0.92254716,1.1388024,0.3898987,-0.05746084,-0.37828386,-0.4261679
1570715098,-5.899313,8.590396,5.568913,1.4360203,0.16085984,0.5880439,-1.5227122,0.3878607,2.1883004
1570715098,-4.1419687,8.101978,1.6232687,1.287944,-0.6594188,0.43570644,-0.3878607,-0.4357447,-1.4077905
1570715098,-2.4851813,6.1100025,-1.163582,1.09406,-0.005326485,0.3472868,1.0247183,-1.9728222,-3.821146
1570715098,-1.8722657,6.967127,0.90979666,1.0237503,0.742512,0.39948636,1.7190368,-2.4420857,-2.384625
1570715098,-2.681506,7.680599,5.2624555,1.0280116,-0.29828313,0.9033718,1.0055647,-1.067814,2.9975405
1570715098,-3.145981,5.7508726,1.5945383,0.43570644,-0.36965802,0.80323386,0.10534488,-3.8833952,0.40701428
1570715098,-3.9600096,7.833828,1.2449849,0.8479764,-0.18855755,0.7297284,-0.5650316,-0.91937345,-1.0773908
1570715098,-3.394978,8.121132,1.4460979,0.46233886,-0.122509144,0.5688686,-0.6560113,-0.8331822,0.2681506
1570715098,-2.7964275,13.024457,1.0821792,-0.034089502,0.5880439,-0.2056023,-0.545878,2.633622,-0.6607997
1570715098,-2.3175871,16.725893,3.6870706,-0.18536167,0.15446806,-0.044742472,0.58418524,7.3071036,1.8195933
1570715098,-3.4524388,14.188039,2.7341783,-0.28869548,-0.70629185,-0.12783563,-0.5650316,5.281609,2.1739352
1570715098,-3.8163576,9.150639,1.6711528,-0.59656626,-1.2613115,-0.022371236,-1.5945383,0.58897364,2.72939
1570715098,-3.2321723,8.939949,1.6089035,-0.47831833,-1.191002,0.2077329,-0.6751649,-0.6751649,-0.05746084
1570715098,-2.432509,7.9966335,1.9632454,-0.28869548,0.07563608,0.18110047,0.30166942,-0.2825158,-0.51235914
1570715098,-2.1978772,9.131485,2.9496565,-0.3419603,-0.06178722,0.14807628,0.21068975,-0.2825158,0.7565677
1570715099,-2.1787236,9.165004,2.3894134,-0.4495553,-0.26845482,0.2109288,0.47884035,0.18674773,0.11492168
1570715099,-1.6136919,9.198523,3.1842883,-0.42079228,-0.24501829,0.16938221,0.641646,0.0,0.20111294
1570715099,-2.4372973,6.05733,2.2122424,-0.41866168,-0.27165073,0.13529271,-0.033518825,-3.0214825,-0.59855044
1570715099,-2.3702598,8.226477,2.6431987,0.4506206,0.25886714,1.0748847,-0.15322891,-0.91458505,-0.12928689
1570715099,-0.5315128,5.3199162,1.8052281,1.2453321,1.0674275,0.9055024,1.2880806,-4.1611223,-1.091756
1570715099,-2.2457612,7.321469,3.0023289,0.99711794,0.77340555,0.29508725,-0.50757074,-2.5809495,0.545878
1570715099,-1.4460979,8.892065,2.4420857,-0.3419603,-0.43144527,0.1747087,0.05267244,-1.0630256,0.5554548
1570715099,-1.6807296,8.422802,2.4037786,-0.77020967,-0.54223615,-0.70629185,0.22505496,-0.4165911,-0.24899697
1570715099,-3.0597897,11.075577,4.5872903,-1.697018,-1.2708993,-1.3880819,-1.0103531,1.4700398,2.0685902
1570715099,-1.5801731,12.23437,1.4796166,-1.3816901,-1.4072572,-0.37072334,0.23463176,2.4181437,-0.90021986
1570715099,-1.6184803,12.109872,1.7238252,0.3398297,0.5134731,-0.33130735,0.25378537,3.3518825,-1.2641385
1570715099,-2.0973208,9.141062,3.9935284,0.85756403,0.61361104,-0.1384886,0.10534488,0.05267244,1.0295067
1570715099,-2.4708161,10.582372,3.122039,0.40268224,0.19814523,-0.27271602,-0.17238252,1.4652514,0.33039984
1570715099,-2.8682537,10.6398325,3.3087866,-0.023436533,0.3920293,-0.39096397,-0.46447513,1.5275006,0.5793968
1570715099,-3.0310593,10.180145,2.9113493,-0.24927948,0.24714889,-0.4154658,-0.49320555,1.1204864,0.1388637
1570715099,-2.9257145,9.548077,3.7684734,0.02130594,0.034089502,-0.29721785,-0.30645782,0.51714754,0.9816227
1570715099,-4.1276035,9.572019,3.2944214,0.13103153,0.12783563,-0.014914157,-1.460463,0.545878,0.521936
1570715099,-4.4196963,10.127473,2.6288335,0.20347172,-0.043677174,0.14061919,-1.7860745,1.0773908,-0.08619126
1570715099,-5.0757074,9.969456,2.9352913,-0.2759119,0.039415985,-0.08096257,-2.456451,0.91937345,0.20111294
1570715099,-5.827487,9.083601,3.5338416,-0.47405714,-0.03089361,-0.22371235,-3.145981,0.08619126,0.6895301
1570715099,-3.7062242,7.273585,3.4045548,0.07350549,-0.0085223755,-0.028763017,-1.0007763,-1.6950948,0.50278234
1570715099,-3.2513258,8.700529,3.2561142,-0.070309594,0.14061919,0.035154797,-0.5410896,-0.2681506,0.36391866
1570715099,-2.4612393,8.250419,3.4859576,-0.06285252,0.06285252,-0.025567126,0.25857377,-0.7134721,0.58897364
1570715099,-3.4141316,8.221688,4.185065,-0.22371235,0.12570503,0.11185618,-0.6895301,-0.7326257,1.2593501
1570715099,-3.8067808,8.0684595,3.6583402,-0.31319728,0.15766394,0.16192514,-1.091756,-0.8619126,0.6607997
1570715099,-4.189853,8.700529,3.9600096,-0.36539686,0.23649593,0.09374613,-1.5275006,-0.4213795,0.9624691
1570715099,-3.5577838,8.145074,3.9312792,-0.29828313,0.13103153,0.033024207,-0.8379706,-0.842759,0.90979666
1570715099,-2.858677,7.9487495,3.845088,-0.10866029,0.21945117,0.0,-0.095768064,-0.90500826,0.6607997
1570715099,-2.542642,8.135497,4.0222588,-0.046873067,0.19388404,-0.023436533,0.29209262,-0.9720459,0.8331822
1570715099,-2.6862943,7.019799,4.4436383,-0.058591332,0.046873067,-0.0010652969,0.24420857,-2.0159178,1.0247183
1570715099,-3.5338416,7.144298,4.548983,-0.23543063,-0.22158176,-0.059656627,-0.7661445,-1.4173675,1.0486604
1570715099,-3.7062242,6.95755,4.654328,-0.24075711,-0.2418224,0.1054644,-0.9576807,-1.7860745,1.2689269
1570715099,-4.261679,6.8761473,4.831499,-0.18536167,-0.43144527,0.23010413,-1.3503298,-1.9009962,1.3263878
1570715100,-5.1523223,6.933608,5.401319,-0.24714889,-0.41866168,0.26845482,-2.60968,-1.0247183,0.6368576
1570715100,-5.0182467,5.803545,4.975151,-0.14807628,-0.41440052,0.5156037,-2.5809495,-2.777274,1.7956513
1570715100,-4.5394063,5.0613422,4.8123455,0.17044751,-0.27058542,0.6274599,-2.5617957,-3.892972,0.8810662
1570715100,-3.8546648,6.5744777,4.88896,0.42292288,0.2056023,0.7968421,-1.8291701,-2.8682537,1.532289
1570715100,-3.1651347,12.061988,4.7884035,0.4175964,-0.3419603,0.8469111,-1.7477672,1.9632454,1.3694834
1570715100,-2.815581,8.66701,5.142745,0.057526033,-0.50282013,0.21945117,-0.62728083,1.2210429,1.733402
1570715100,-1.4891934,8.183381,4.8506527,-0.14488038,-0.88845766,0.4452941,-1.0726024,-1.1492168,1.5993267
1570715100,3.6870706,8.848969,1.7621324,0.19175345,-1.3795595,0.89271885,4.673482,-0.7134721,-1.8483237
1570715100,-1.5849615,12.157756,5.932832,0.6231987,-1.6725162,0.78618914,0.29209262,2.207454,2.2984335
1570715100,-3.064578,13.747506,4.7070007,0.95983255,-1.4083226,0.3440909,-3.4141316,4.8698063,0.2681506
1570715100,1.5370775,13.129802,5.3103395,1.2943357,-1.7683929,0.1033338,1.8531121,3.7732618,2.3750482
1570715100,0.7374141,15.184027,6.555324,1.5010034,-1.9867787,0.6967042,1.6472107,5.511452,3.8786068
1570715100,-3.9264908,13.757083,6.1387334,1.6927568,-2.1657486,1.2293527,-4.2904096,4.1802764,4.0414124
1570715100,-4.5920787,14.053964,4.721366,1.592619,-2.209426,1.2005897,-5.425261,4.4101195,3.1364043
1570715100,-3.5769374,10.539276,4.1611223,1.5159175,-1.6671897,0.9949873,-4.7884035,0.8619126,3.098097
1570715100,-3.9073372,6.0285997,4.3526587,1.3369477,-0.31745848,0.40055165,-5.3247046,-3.6535518,3.739743
1570715100,-6.5218053,1.4891934,4.510676,0.6274599,0.3771151,0.25247538,-8.039729,-8.192958,4.175488
1570715100,-6.83784,-5.3725886,2.8778305,-0.49003658,0.95983255,-0.09587672,-8.360553,-15.049952,2.5187001
1570715100,-3.5242648,-6.727707,3.193865,-1.54255,1.6448184,-0.40587813,-4.9416323,-16.400282,2.4277205
1570715100,0.7086837,-1.9871874,4.582502,-1.8472248,1.2432015,-0.80323386,-0.49320555,-11.626244,3.2465374
1570715100,4.132392,5.7508726,3.7588966,-1.2900746,0.87886995,-2.2392542,3.4284968,-3.8594532,1.934515
1570715100,4.7165775,23.108835,2.9017725,-1.0770152,1.5702477,-3.465411,4.9943047,13.532028,0.78529817
1570715100,-1.0773908,36.051888,1.3072342,-2.6451323,-0.36539686,-2.095439,0.19153613,26.709715,-1.3934253
1570715100,-13.819332,-0.80924016,-4.7022123,-2.6898746,4.002321,-2.3074331,-12.406754,-9.825804,-8.063671
1570715100,-11.468226,14.949395,20.058622,-1.7790459,1.1366718,-2.3990488,-8.001422,2.5617957,14.839262
1570715100,-4.975151,22.720974,7.3885064,-0.5912398,0.7957768,-1.1888714,-1.733402,14.312538,3.5098996
1570715100,1.6376339,16.97968,-3.9600096,-1.3966043,2.2083604,-0.7180101,4.271256,10.184934,-8.66701
1570715100,1.6759412,6.397307,6.3685765,0.55075854,1.3859513,0.29082605,5.57849,-1.7429788,2.542642
1570715100,1.7477672,3.3279405,5.6551046,0.5241261,0.14701098,1.219765,5.45878,-4.367024,3.0885203
1570715101,4.501099,-1.1731589,3.691859,1.0184239,-0.11185618,2.127398,7.7332716,-9.782708,0.2873042
1570715101,4.501099,-1.1731589,3.691859,1.0184239,-0.11185618,2.127398,7.7332716,-9.782708,0.2873042
1570715101,4.501099,-1.1731589,3.691859,1.0184239,-0.11185618,2.127398,7.7332716,-9.782708,0.2873042
1570715101,4.501099,-1.1731589,3.691859,1.0184239,-0.11185618,2.127398,7.7332716,-9.782708,0.2873042
1570715101,4.501099,-1.1731589,3.691859,1.0184239,-0.11185618,2.127398,7.7332716,-9.782708,0.2873042
1570715101,4.501099,-1.1731589,3.691859,1.0184239,-0.11185618,2.127398,7.7332716,-9.782708,0.2873042
1570715101,4.1371803,-3.6487634,-0.7326257,0.87460876,-0.48044893,1.8035477,6.9958572,-12.430696,-4.012682
1570715101,-3.3997664,-0.20111294,1.5370775,1.3412088,-1.3039235,0.36326626,-0.8810662,-9.203311,-1.4221559
1570715101,-6.1243677,2.3127987,1.3072342,0.18962285,-1.2602463,-0.4932325,-3.6727054,-6.727707,-1.5897499
1570715101,-3.4572272,8.303091,-4.4244847,0.24501829,-1.6331002,-0.19494934,-0.9911995,-0.7086837,-7.398083
1570715101,-0.91458505,34.601,-1.0630256,-1.2240262,-0.75316495,-0.3185238,1.3694834,25.651478,-4.357447
1570715101,5.070919,9.557653,2.9735985,-0.28976077,0.4154658,0.6785942,8.992621,7.6949644,0.5410896
1570715101,1.5131354,11.880029,4.8745947,0.68179005,-3.490978,1.3444047,3.4380736,2.858677,1.541866
1570715101,0.63206923,25.76161,4.357447,1.4040613,-1.4392161,0.25460598,2.930503,15.461755,-5.0374002
1570715101,-7.7667904,17.18558,10.0748005,2.7026584,-1.0908641,1.2975317,-6.603208,7.7572136,7.627927
1570715101,-2.9975405,9.634268,8.082825,2.0048888,-1.8131354,1.9292527,-2.4229321,0.63206923,6.7229185
1570715101,-7.321469,7.536947,5.3821654,2.1678793,-1.0674275,0.7371855,-7.1969705,-2.183512,4.122815
1570715101,-7.9008656,1.7142484,5.9424086,1.7609358,0.04261188,0.6029581,-7.7907324,-7.2544312,5.329493
1570715101,-6.363788,-2.552219,4.4005427,0.059656627,0.37498453,0.50921196,-6.8426285,-11.267113,4.2760444
1570715101,-5.056554,-6.172252,1.2976574,-1.1270841,0.8820659,0.29828313,-5.631162,-15.629349,0.79487497
1570715101,-0.62249243,-6.325481,0.6512229,-1.8120701,1.6746467,-0.23543063,-1.9440918,-16.539145,-0.08619126
1570715101,2.3750482,-0.30645782,1.5993267,-1.9377751,1.6054025,-1.0567746,1.8770541,-11.386824,-0.6991069
1570715101,3.289633,14.159308,6.9527617,-1.8972938,1.2432015,-2.6930707,3.5913026,4.6782703,4.5633483
1570715101,1.460463,34.91225,24.167072,-2.500252,2.2509725,-3.9767535,4.759673,25.345018,20.580557
1570715101,-5.884948,23.137566,-13.029245,-2.005954,1.7620012,-1.7034098,-1.8866309,17.81286,-15.318103
1570715101,-12.26789,9.428367,14.058752,-2.6344793,2.4650972,-3.0435534,-9.753978,-4.3143516,4.831499
1570715101,-11.166556,21.71062,11.947066,-0.77447087,-0.36433154,-1.3092499,-9.653421,15.409082,8.734048
1570715101,-2.1308396,16.620548,-1.316811,-1.0354686,0.5923051,-0.653027,0.6655881,9.605537,-3.9217024
1570715101,3.0454245,6.933608,-0.4309563,-0.23436533,1.2719646,-0.07457078,7.8386164,0.7374141,-4.8937483
1570715101,1.910573,3.016694,4.855441,0.9832691,0.5923051,1.2176344,5.813122,-4.213795,0.8858546
1570715101,3.9360676,-1.0821792,4.711789,1.1675655,-0.5816521,1.9537545,7.6949644,-8.389283,0.7326257
1570715101,2.9592333,-2.633622,0.009576807,1.162239,-0.6295905,1.2336138,7.4603324,-11.559206,-3.8163576
1570715101,-1.7429788,0.1436521,1.7812861,0.80749506,-0.98113847,-0.014914157,1.8243817,-8.599973,-1.8435353
1570715101,-4.223372,2.6527755,-0.019153614,0.4825795,-1.6331002,-0.7989727,-1.0103531,-5.9807158,-3.3758245
1570715101,-4.4340615,28.380867,4.9703627,-1.0344033,-2.5673656,-0.6594188,-1.2880806,19.809626,1.3838485
1570715101,-0.33039984,7.1826053,1.4556746,-0.25247538,-0.986465,1.2421362,2.6671407,-1.3359646,-2.3558946
1570715101,-5.66947,14.618996,9.442732,1.6810386,-2.0027583,0.77340555,-3.064578,5.9280434,5.717354
1570715101,-2.27928,22.337902,0.47405192,2.2552335,-0.8011033,1.2549198,-0.047884032,13.326127,-2.6862943
1570715102,-6.4882865,22.07454,10.529699,2.5279496,-0.2801731,1.9388404,-4.2904096,14.082694,6.7229185
1570715102,-5.425261,9.840169,9.054871,1.9473628,-1.6331002,2.109288,-4.4484267,0.2873042,7.0485296
1570715102,-4.0557775,4.414908,5.4204726,2.6355445,-1.1356065,0.7180101,-3.5290532,-5.281609,4.050989
1570715102,-5.329493,0.50278234,2.7868507,2.2286012,-0.6540923,0.36220095,-4.9655743,-9.275137,2.1499932
1570715102,-7.0964136,-3.9839516,3.3566709,0.13635801,0.30893612,0.66900647,-6.8905125,-13.781025,3.0454245
1570715102,-5.722142,-5.6646814,4.1180267,-1.1430637,0.43464115,0.8735435,-5.746084,-15.452178,3.5769374
1570715102,0.521936,-7.2592196,-0.79487497,-1.4765016,1.0162933,0.42824936,0.29209262,-17.017986,-1.7190368
1570715102,1.3359646,0.10534488,3.5865142,-1.9846482,1.4306937,-1.0695581,1.2880806,-9.591172,2.1212628
1570715102,1.6136919,6.8330517,3.9121256,-1.930318,0.71587956,-2.5652351,2.1643584,-2.7485435,1.8962077
1570715102,2.2505496,28.04089,20.417751,-4.434831,3.720017,-2.4640317,5.1140146,10.716447,6.0956373
1570715102,-4.2664676,37.780502,-9.591172,-1.6490797,0.9065677,-4.439092,-0.80924016,30.866049,-10.295067
1570715102,-14.528016,-4.7405195,15.796943,-2.4640317,4.1226993,-1.4285632,-10.864887,-12.952631,11.884817
1570715102,-9.351752,10.6637745,14.221559,-1.3039235,-1.3582536,-2.630218,-5.9902925,-0.16759412,13.273455
1570715102,-5.4444146,22.036232,7.5944076,-0.59656626,0.5198649,-2.1039615,-0.58897364,14.729129,3.2034419
1570715102,-2.5139117,15.873557,-5.281609,-2.1625528,-0.38670278,-1.1430637,2.6767175,13.570335,-9.222465
1570715102,-1.067814,5.827487,-0.6751649,-0.015979454,0.86289054,0.692443,4.31914,-0.18195933,-6.6079965
1570715102,3.107674,1.5562311,6.8809357,1.6117942,1.1345413,1.7343034,7.627927,-4.7644615,0.9768343
1570715102,6.8665705,-8.207323,4.1180267,1.485024,-1.4200408,1.6085984,10.91756,-14.326903,1.5705963
1570715102,1.1683705,-4.5777135,-3.8642416,1.54255,-0.6796594,0.7169448,6.7851677,-13.79539,-6.5601125
1570715102,-3.5482068,1.9488802,-1.0486604,1.3774289,-0.6572882,-0.053264845,1.982399,-6.8761473,-5.674258
1570715102,-10.132261,6.9288197,2.8921957,-0.07137489,-2.460836,-0.8735435,-5.66947,-2.2409728,1.4221559
1570715102,-17.463306,50.551174,-9.581595,-0.40055165,-0.98113847,-0.98539966,-11.45865,30.95224,-10.0029745
1570715102,6.2105594,-0.21547815,2.5091233,-1.6799732,-0.32491556,1.7236505,12.559982,-0.91458505,0.61291564
1570715102,-6.7085533,8.51857,9.054871,2.0815902,-2.7026584,0.09800732,-2.1452048,-5.353435,8.916007
1570715102,-8.963891,37.45968,4.865018,1.2272221,-0.29082605,0.33556855,-4.5633483,28.25158,-4.1419687
1570715102,-8.432379,16.002844,8.968679,1.9622769,0.36007038,3.021182,-6.363788,12.885593,4.7979803
1570715102,-2.408567,5.5880666,9.030929,2.5130355,-1.7343034,1.6671897,-0.56982,-4.175488,6.2009826
1570715102,-2.9352913,3.3901896,7.85777,3.0222473,-0.98539966,0.5219955,-0.545878,-5.6359506,4.630386
1570715102,-6.5601125,0.9576807,6.009446,2.6930707,-1.0205544,0.29615256,-4.8458643,-8.528147,4.2042184
1570715102,-7.120356,-2.2218192,3.1364043,0.64237404,-0.6253293,0.64770055,-5.5737014,-11.803414,1.7429788
1570715102,-6.301539,-4.793192,1.9249382,-0.60615396,0.14061919,1.0514481,-5.023035,-14.403518,0.45489833
1570715102,-1.8052281,-8.944737,0.07182605,-0.8138869,1.140933,0.32171968,-0.7182605,-18.545486,-1.5849615
1570715102,1.1540052,-3.4332852,0.9768343,-1.7939601,1.492481,-0.93426543,2.4516625,-12.943054,-1.0103531
1570715103,2.767697,3.7301662,2.954445,-1.8781185,1.2900746,-1.6235125,4.5441947,-5.5880666,0.47405192
1570715103,2.4995465,16.448166,6.066907,-2.6291528,1.1696961,-2.0368478,4.8985367,7.40766,3.1172507
1570715103,-6.4404025,34.232296,7.431602,-1.6906263,-0.011718267,-4.5243163,-2.9879637,25.81907,3.7541082
1570715103,-7.8290396,17.295713,-5.861006,-2.0688066,2.8422122,-1.6533408,-3.4524388,9.404425,-9.706094
1570715103,-13.857639,6.8282633,9.945514,-2.2829313,-0.57099915,-2.3308697,-8.892065,-0.5363012,5.78918
1570715103,-15.049952,19.838356,9.423578,-0.91295946,0.36646214,-1.241071,-9.763555,12.909535,4.9224787
1570715103,-4.4675803,17.06587,-1.7286136,-0.839454,0.39842105,-0.5976316,1.0103531,10.366894,-6.339846
1570715103,0.30645782,4.9320555,-0.19153613,-0.419727,0.88845766,0.44103295,5.9041014,-1.6232687,-4.8602295
1570715103,-0.48841715,1.7190368,5.142745,1.287944,1.0429257,1.6501449,5.0134583,-5.1379566,0.80924016
1570715103,0.6847417,-2.681506,3.6535518,1.5894231,0.015979454,1.6927568,5.851429,-10.0269165,-0.2777274
1570715103,4.88896,-4.271256,4.879383,1.1601083,0.17151281,0.50068957,8.949526,-10.055647,1.5658079
1570715103,6.531382,1.8626889,2.4947581,0.7755362,-1.0003139,-0.52093023,11.473015,-5.8083334,-1.0821792
1570715103,-3.3039982,3.1986535,-3.169923,1.2250915,-1.6565367,-1.0024444,-0.1436521,-4.4580035,-6.6893997
1570715103,-20.57577,39.298428,3.3518825,-0.26312834,-2.5141008,-1.7406952,-15.605407,31.838095,-0.62249243
1570715103,-2.1404164,5.5497594,-0.78050977,-0.2823037,-0.32171968,1.4573262,1.2162545,-3.9073372,-3.1028855
1570715103,-8.025364,13.718776,7.905654,1.9750605,-0.8042992,0.8362581,-4.3287168,5.0278234,4.8362875
1570715103,-5.659893,23.075315,4.9943047,2.00915,0.49642837,1.0599705,0.8331822,15.313314,0.6512229
1570715103,-9.193734,15.787366,11.631032,2.3287392,0.3142626,2.2488418,-5.616797,8.959103,7.848193
1570715103,-4.8745947,9.888053,9.270349,2.313825,-1.5936842,2.1817281,-2.5617957,1.5993267,6.9288197
1570715103,-6.3925185,3.9025488,6.411672,2.4885337,-0.9193513,1.1004517,-3.064578,-4.7261543,5.410896
1570715103,-5.257667,0.641646,3.763685,2.4118323,-0.3185238,0.46766534,-3.0262709,-8.279149,3.2034419
1570715103,-5.9663506,-2.0829554,5.8466406,0.800038,0.009587673,0.7382508,-3.572149,-10.807426,4.429273
1570715103,-6.5026517,-7.8146744,2.5713725,-0.9140248,0.39415985,0.8309316,-4.5920787,-16.678009,2.695871
1570715103,0.02873042,-10.572795,0.7134721,-1.8418984,1.424302,0.4548818,1.2641385,-19.57978,0.40222588
1570715103,1.6807296,-2.96881,2.1308396,-2.6387405,1.5116564,-0.72333664,3.4141316,-14.42746,0.04309563
1570715103,1.5849615,7.019799,4.2281604,-1.9942359,1.0823417,-1.9921052,4.721366,-3.4715924,1.5035586
1570715103,-0.60333884,28.596346,16.452953,-3.5634181,2.0901127,-2.8091881,4.5777135,14.149732,7.8865004
1570715103,-8.954314,38.08696,-5.1762643,-1.6149901,0.89698005,-3.8553097,-4.951209,30.784645,-2.9400797
1570715103,-15.150508,0.7278373,10.462662,-3.1586053,2.2722783,-0.9779426,-9.706094,1.6089035,-0.5746084
1570715103,-15.246277,12.23437,6.8186865,-1.6522756,-0.653027,-1.2144386,-10.1226845,2.8778305,2.705448
1570715103,-6.4643445,15.777789,8.432379,-0.04261188,1.1718266,-0.9790079,-2.0685902,8.135497,4.4005427
1570715103,0.7565677,12.5982895,-1.0582372,-1.3337518,0.1043991,-0.18855755,5.9759274,8.719683,-2.2361844
1570715103,-0.33997664,5.506664,-2.6192567,0.22903883,0.98753023,1.2069814,4.88896,-1.0726024,-8.695741
1570715103,4.261679,0.16280572,6.4404025,1.4583915,0.2428877,2.3766775,9.883265,-4.7740383,1.7717092
1570715104,6.0477533,-7.97748,5.4444146,1.5297664,-1.4786321,1.7460216,11.123461,-15.433024,1.5993267
1570715104,0.5602432,-2.2026656,-1.388637,0.9097636,-0.33130735,-0.3504827,6.4164605,-10.912771,-4.912902
1570715104,-6.196194,1.2066777,0.2681506,0.56993383,-0.3472868,-0.91295946,-1.2545617,-6.459556,-3.323152
1570715104,-16.395493,23.625982,2.705448,-0.35580918,-3.9724922,-0.74038136,-9.045294,8.652645,2.2361844
1570715104,3.1124623,26.647465,4.5394063,-0.78618914,0.43890235,0.5656727,7.9152308,19.144037,0.4405331
1570715104,-5.5976434,2.504335,11.032481,1.1057782,-0.19601464,1.2495933,-1.163582,-5.1906295,6.871359
1570715104,-4.405331,21.016302,2.815581,2.4693582,-1.1750225,0.09055024,-0.22026655,12.98615,-0.9576807
1570715104,-10.773908,21.586123,11.027693,2.5141008,-0.21305938,1.7225852,-6.8809357,13.239936,7.6470804
1570715104,-5.841852,7.819463,10.7356,2.2797353,-1.0834069,2.087982,-2.5761611,-0.9959879,7.943961
1570715104,-5.7987566,3.8977604,6.7708025,2.5322108,-1.072754,0.6828553,-2.9735985,-5.2241483,4.5298295
1570715104,-6.445191,0.81881696,5.4204726,2.2935843,-0.3781804,0.02130594,-3.7110126,-8.456321,3.7924154
1570715104,-5.731719,-2.27928,6.0381765,0.8319969,0.13209683,0.2748466,-3.040636,-11.631032,4.8506527
1570715104,-4.1276035,-6.3063273,3.9743748,-0.986465,0.14914156,0.5592809,-1.5466543,-15.677233,2.6862943
1570715104,-0.34476504,-8.48984,-0.4405331,-1.9004897,0.9832691,0.4825795,1.5562311,-17.415422,0.36870706
1570715104,0.6464345,-5.109226,1.8100165,-2.6174345,1.3092499,-0.80323386,3.2513258,-14.288596,-0.44532153
1570715104,0.9624691,3.6583402,4.4723687,-2.4874682,1.1324106,-1.930318,4.0174704,-7.326257,2.9640217
1570715104,-4.9464207,27.844566,17.415422,-2.5449944,0.79471153,-3.3599465,-2.3319526,28.414385,14.030022
1570715104,-11.061212,39.37983,1.9393034,-1.1111047,0.19281875,-2.921044,-7.5848308,35.994427,6.1770406
1570715104,-12.378023,-4.582502,-2.0590134,-3.6337278,1.7769153,-0.8714129,-9.188946,-7.0102224,-5.363012
1570715104,-17.899052,11.769896,10.97502,-1.5287011,-0.35687447,-1.4818281,-12.0571995,1.5466543,6.742072
1570715104,-7.0485296,16.175226,8.901642,0.12463974,0.61041516,-0.81495214,-3.0550013,9.773131,6.0860605
1570715104,-2.3175871,14.686033,-0.9672575,-0.6647453,0.8905882,-0.40055165,2.360683,9.423578,-4.3143516
1570715104,0.5746084,4.6255975,-1.4317327,0.3845722,0.8735435,0.7627526,6.6271505,-0.9672575,-6.4068837
1570715104,1.3455414,1.0247183,4.31914,1.1760879,0.46979594,1.8823797,6.8043213,-4.76925,-0.08140286
1570715104,3.3279405,-11.405977,4.381389,0.9577019,-0.57206446,2.1071572,8.523358,-16.16565,0.6943185
1570715104,2.1883004,-8.743625,-1.8339585,0.7552955,0.6359823,0.068179004,8.073248,-19.096153,-7.3645644
1570715104,-3.1124623,0.90021986,2.456451,-0.02450183,0.05113425,-1.122823,3.6296098,-8.173804,-0.34955344
1570715104,-25.306711,38.766914,15.399506,-0.9619631,-1.660798,-1.765197,-13.177686,17.496826,8.1642275
1570715104,1.8770541,10.065224,-3.3854012,-2.0602844,0.24821419,1.8919674,5.602432,15.591042,-6.579266
1570715104,-3.787627,7.2113357,6.7324953,1.1941979,-0.74890375,1.0248157,4.237737,-5.722142,6.531382
1570715104,-3.7684734,20.728998,1.3742718,1.9739952,-0.7382508,-0.30041373,1.9919758,15.045163,-1.7717092
1570715104,-11.21444,20.441694,6.679823,1.8035477,-0.15872924,1.9431016,-5.731719,15.816096,3.2704794
1570715104,-5.2289367,5.535394,10.0269165,1.3145764,-1.8035477,2.087982,-1.364695,-0.8858546,6.8522053
1570715105,-3.7349546,4.213795,6.3446345,2.2861273,-1.1345413,1.1281495,-0.01436521,-3.6822822,3.0933087
1570715105,-6.8761473,4.2281604,4.6495395,2.2722783,-0.5646074,0.5901745,-2.9352913,-4.6255975,2.566584
1570715105,-5.45878,2.8538885,3.371036,2.191316,-0.18216577,0.78299326,-2.3127987,-5.626374,1.6328455
1570715105,-5.7604494,-0.20590134,5.5018754,0.78192794,0.1022685,0.8596946,-2.5905263,-8.614338,3.5290532
1570715105,-4.7500963,-5.1906295,4.4196963,-0.22051647,-0.44849002,0.886327,-1.8866309,-14.417883,3.6535518
1570715105,0.38307226,-11.051635,-0.63206923,-1.1633042,0.40374753,0.26099774,3.0262709,-20.235792,-1.2162545
1570715105,1.2497733,-6.1530986,1.1731589,-1.6757121,0.7638179,-0.96302843,4.0318356,-15.294161,-1.0247183
1570715105,0.5602432,5.0661306,2.8921957,-1.883445,0.37285393,-2.1316593,3.8307228,-3.787627,0.23463176
1570715105,-5.1140146,35.69276,20.87265,-3.648642,0.9001759,-2.3979833,-1.2066777,27.303476,17.611748
1570715105,-9.370906,29.08955,-12.243947,-0.6594188,-0.5827174,-2.9434154,-4.687847,21.303606,-15.945383
1570715105,-13.733141,2.4277205,6.8569937,-2.612108,2.6983972,-0.595501,-8.552089,-4.9416323,2.9879637
1570715105,-15.547946,8.255207,8.312668,-1.6256431,-0.7851238,-1.3092499,-10.117896,1.3263878,3.9791632
1570715105,-8.461109,14.9063,8.015787,0.036220096,0.58484805,-1.1835449,-2.7150247,8.288726,3.6056678
1570715105,-3.9073372,17.132908,-1.3934253,-0.5550197,0.71907544,-0.7126837,0.47884035,10.448297,-3.916914
1570715105,0.24899697,7.1395097,-2.705448,-0.67326766,1.0301422,0.81069094,6.325481,0.79008657,-7.0581064
1570715105,-1.1540052,3.466804,4.8123455,0.5518238,1.0652969,1.9217957,4.793192,-3.1507695,0.6943185
1570715105,0.6655881,-4.1419687,6.885724,1.3262947,-0.9459837,2.0400436,6.172252,-11.267113,3.0071173
1570715105,0.59376204,-4.6782703,-3.3901896,1.1941979,-0.5646074,0.9012412,5.659893,-12.181698,-7.1490865
1570715105,-1.2785037,-1.2641385,-0.5554548,0.5688686,1.2048508,0.063917816,3.7205894,-8.66701,-1.7286136
1570715105,-2.3175871,2.7485435,4.9320555,0.2066676,-0.0074570784,-0.7659485,3.2130187,-2.719813,1.3455414
1570715105,-19.10094,32.75747,1.7286136,-0.29082605,-1.9239262,-2.422485,-13.67568,25.450363,-1.934515
1570715105,0.89064306,9.23683,-1.1540052,-0.771275,0.07883197,1.32736,6.253655,2.0254946,-5.080496
1570715105,-6.8665705,9.787497,10.481815,0.57526034,-0.9289389,1.2474627,-1.1013328,0.2777274,6.3302693
1570715105,-4.3526587,19.412188,0.7422025,1.3476006,-0.92680836,0.50921196,0.78529817,10.994174,-2.7389667
1570715105,-11.18571,18.44493,6.2584434,1.553203,-0.0042611877,1.2123079,-7.422025,11.271901,1.757344
1570715105,-4.912902,10.189722,8.604761,1.7811764,-0.74996907,2.0656106,-1.4077905,2.791639,4.333505
1570715105,-3.8498764,5.3821654,5.8226986,2.407571,-0.6977695,1.2314832,-0.20111294,-2.9735985,3.289633
1570715105,-6.4787097,5.9519854,3.41892,2.1870546,-0.29721785,0.29508725,-2.8491,-3.2513258,1.3455414
1570715105,-5.6646814,2.5187001,5.554548,1.6160555,0.28763017,0.64450467,-2.6719291,-6.0764837,3.1124623
1570715105,-5.473145,-0.89543146,5.535394,0.62639457,0.312132,1.0535786,-2.5570073,-9.41879,4.367024
1570715105,-3.691859,-4.4340615,3.5769374,-0.22690825,0.44209823,0.87993526,-1.3694834,-13.206416,3.169923
1570715105,0.009576807,-6.670246,1.5897499,-1.2922052,0.81495214,0.5358444,1.982399,-15.279796,-0.24420857
1570715105,0.92895025,-2.72939,1.6903064,-1.8365719,0.9023065,-0.24714889,3.6535518,-12.761095,-0.94331545
1570715106,-0.45968673,4.8602295,4.6686935,-1.9963665,0.3398297,-1.3934084,2.6384103,-6.5218053,1.4508862
1570715106,-3.53863,27.31784,13.374011,-3.565549,0.9534408,-1.7055404,1.9488802,14.379576,5.6646814
1570715106,-7.680599,27.241226,-6.8665705,-0.9619631,-0.5475626,-2.9498072,-4.003105,21.873426,-5.142745
1570715106,-7.3885064,10.156203,-0.47884035,-2.1465733,1.8972938,-0.9822038,-2.3989902,4.9655743,-6.363788
1570715106,-11.401189,3.2034419,13.790602,-1.4988728,0.3856375,-1.5414847,-6.4499793,-4.209007,9.701305
1570715106,-11.27669,12.315774,6.7612257,-1.1174965,-0.23436533,-1.6533408,-6.0477533,5.3199162,2.2936451
1570715106,-10.0269165,15.370775,-1.0295067,-0.49749365,0.30680552,-1.3518618,-4.4675803,8.695741,-5.5880666
1570715106,-2.9831753,10.060435,-2.0685902,-0.54223615,0.43464115,-0.6881818,2.0350714,5.133168,-6.991069
1570715106,-0.7086837,5.731719,5.8562174,0.47299185,0.936396,0.56673795,5.0996494,0.14844051,0.10055647
1570715106,0.6560113,2.4468741,6.8282633,0.6945736,0.117182665,1.2293527,6.5218053,-4.146757,2.552219
1570715106,2.15957,-1.7908629,2.906561,0.9353307,-0.57952154,1.4189755,7.680599,-8.743625,-1.2497733
1570715106,-0.4165911,-3.6056678,-0.10055647,1.2016549,0.022371236,0.419727,4.8602295,-10.840945,-4.0940847
1570715106,-1.70946,0.5650316,3.6104562,0.78192794,0.1747087,-0.16085984,3.5817258,-6.7947445,-0.11971009
1570715106,-6.5601125,7.728483,3.7110126,0.6583535,-1.2964664,-0.4431635,-1.2401965,0.34955344,0.033518825
1570715106,-15.102624,28.04568,-0.25378537,-0.033024207,-1.1451942,-1.3571883,-9.758766,20.834343,-4.213795
1570715106,-3.5625722,10.658986,4.88896,-0.52945256,0.85010695,0.7766015,1.7812861,3.514688,0.81881696
1570715106,-4.4005427,12.440272,5.5497594,1.4711751,-1.4274979,0.6295905,0.7230489,5.080496,1.5753847
1570715106,-6.4020953,16.543934,5.1762643,1.1995244,-0.5933704,0.50388545,-1.4939818,8.968679,1.3311762
1570715106,-9.615114,15.653291,9.165004,1.6746467,-0.20347172,1.406192,-4.9176903,7.7907324,5.645528
1570715106,-5.3199162,9.907207,7.73806,1.7705235,-1.0652969,2.2413847,-1.2162545,1.6089035,4.4963107
1570715106,-5.33907,4.309563,4.4005427,2.2158177,-0.60189277,1.180349,-1.7525556,-4.3718123,1.5897499
1570715106,-5.932832,5.497087,3.763685,2.3074331,0.32491556,0.3440909,-2.566584,-3.3039982,1.1587936
1570715106,-5.1140146,1.2641385,5.9807158,1.3113805,0.5933704,0.6125457,-1.541866,-7.800309,4.3287168
1570715106,-3.8355112,-3.7014358,5.2289367,0.031958908,0.10013791,0.62639457,-0.25857377,-12.856863,3.7588966
1570715106,-2.1739352,-7.0245876,3.964798,-1.1973938,0.4239882,0.3398297,0.89543146,-16.19438,2.336741
1570715106,0.61291564,-5.674258,1.0103531,-2.3543062,0.7989727,-0.07137489,3.691859,-14.743494,-1.0869676
1570715106,-0.033518825,-0.18195933,2.9975405,-2.4746847,0.57526034,-1.1366718,3.2609026,-9.011775,0.29209262
1570715106,-3.193865,22.94603,9.303867,-2.6110427,0.33663383,-2.554582,-0.20111294,14.54717,6.0142345
1570715106,-9.811439,33.16927,2.5953147,-0.5582156,-0.08202787,-3.0446186,-5.1235914,25.388115,-1.1061212
1570715106,-8.240842,13.397953,-6.3302693,-2.0187378,2.1497693,-0.8277357,-3.8546648,9.730036,-13.283031
1570715106,-9.959879,-2.9640217,8.09719,-2.6089122,-1.140933,-1.728977,-3.2130187,-12.382812,5.463568
1570715106,-15.509639,17.108965,10.644621,-1.1473248,0.64450467,-1.4583915,-10.481815,9.399636,4.1180267
1570715106,-8.063671,16.381128,2.1212628,-0.27165073,0.22158176,-0.75742614,-3.040636,9.725247,-0.29209262
1570715106,-2.8538885,9.725247,-0.80924016,-0.7052266,0.9097636,-0.014914157,2.2697031,5.291186,-6.799533
1570715107,-1.3072342,5.243302,5.841852,0.4527512,0.67752886,1.0184239,4.673482,-0.320823,0.30166942
1570715107,-0.61291564,2.4516625,5.5018754,0.9438531,-0.02450183,2.0826554,5.377377,-3.2273839,1.6950948
1570715107,0.81402856,-5.6215854,-0.49799395,1.2059162,-0.5997622,1.7673277,6.325481,-11.372458,-2.5761611
1570715107,-0.22984336,-0.842759,1.6567876,1.1185617,0.3771151,0.36113566,4.76925,-8.968679,-2.896984
1570715107,-1.0055647,1.8531121,2.0159178,0.6711371,-0.23330003,-0.18323107,4.4196963,-6.0381765,-0.9528923
1570715107,-9.662998,14.250289,7.465121,0.30680552,-1.9569504,-0.6370476,-0.91937345,3.41892,3.5290532
1570715107,-5.185841,15.514427,-0.9576807,-0.47725302,-1.0695581,-0.16725162,-3.1172507,14.4849205,-4.8745947
1570715107,-8.360553,9.653421,6.2632318,0.380311,0.08202787,0.53904027,-3.1555579,1.0199299,1.1875241
1570715107,-1.2210429,18.215086,-0.009576807,1.5958148,-1.1824796,0.5528891,3.016694,9.222465,-2.5187001
1570715107,-8.963891,16.247053,7.374141,1.1505207,0.0010652969,0.75209963,-2.5809495,8.968679,2.992752
1570715107,-6.066907,11.57836,7.752425,1.8323107,-0.81282157,1.3358823,-2.5139117,4.012682,4.8362875
1570715107,-3.41892,10.13705,6.895301,2.1700099,-1.2389404,1.57877,0.44532153,1.6567876,3.8307228
1570715107,-6.6271505,7.800309,4.3478703,2.292519,-0.8948494,0.7126837,-2.5330653,-0.61770403,1.8100165
1570715107,-6.2584434,2.9783869,5.3582234,1.9814523,0.11824796,0.60934985,-3.0358477,-6.090849,3.490746
1570715107,-6.2009826,1.1348516,7.6231384,1.4147143,0.37072334,0.88845766,-3.107674,-8.039729,6.0716953
1570715107,-5.7125654,-2.4037786,5.568913,0.556085,0.122509144,0.7925809,-2.8634653,-11.69807,4.2904096
1570715107,-3.2225955,-8.250419,3.4476504,-0.8224092,0.42718408,0.41866168,-0.5315128,-17.587805,2.1499932
1570715107,1.3503298,-5.3582234,0.7469909,-2.2360582,0.90869826,0.012783563,4.027047,-14.628572,-0.9911995
1570715107,-0.37828386,-0.45968673,3.1124623,-2.3415227,0.92254716,-1.1515859,2.5091233,-9.543288,0.80924016
1570715107,-1.5897499,19.120094,7.5225816,-3.2907023,0.77340555,-1.8163313,1.8148049,10.405201,4.5681367
1570715107,-5.8705826,31.45981,5.1140146,-1.1718266,-0.6168069,-3.5868547,-1.685518,23.338678,1.5370775
1570715107,-6.7324953,16.606182,-2.5378537,-2.4171588,2.1657486,-1.2730298,-1.8914193,8.973468,-6.3542113
1570715107,-12.406754,0.50278234,14.097059,-2.3649592,-0.50388545,-1.3444047,-7.192182,-6.670246,9.907207
1570715107,-13.809755,16.021997,6.7085533,-1.1792837,0.13635801,-1.5478765,-8.384495,9.337387,2.0015526
1570715107,-10.261548,16.658855,1.364695,-0.54117084,0.58378273,-1.1899366,-4.501099,10.271125,-3.3566709
1570715107,-2.5091233,10.352529,-0.7134721,-0.9395919,0.8724782,-0.49216717,3.514688,4.2521024,-5.473145
1570715107,-1.8004397,5.2480903,4.572925,0.015979454,0.9459837,0.6956389,4.4436383,-0.090979666,-1.1061212
1570715107,-0.23463176,3.394978,4.960786,0.82134396,0.18003519,1.7960906,5.7365074,-3.6966474,0.047884032
1570715107,1.4317327,-2.9735985,0.5315128,1.0397298,-0.31106672,2.0783944,6.799533,-8.408437,-1.8195933
1570715107,0.7230489,-2.9017725,1.4030021,1.3912778,0.15659864,0.74890375,6.167464,-11.769896,-2.825158
1570715107,0.6703765,1.4748282,4.548983,0.8437152,-0.3792457,0.06285252,6.0285997,-6.1770406,1.2593501
1570715107,-6.2488666,5.9519854,-1.0965444,1.0429257,-1.172892,0.054330144,0.7613561,-3.6152446,-4.6591167
1570715107,-27.14067,38.00077,-4.606444,-0.33237264,-1.2176344,-1.8813144,-19.752165,22.055386,-6.9383965
1570715108,4.261679,5.674258,2.4133554,-0.3057402,1.0834069,0.47725302,8.628703,0.8858546,-2.2744915
1570715108,-1.043872,7.575254,8.111555,0.9395919,-2.234993,0.8319969,4.5298295,-1.9871874,7.6470804
1570715108,-7.7428484,19.464859,4.6016555,1.1345413,-1.237875,-0.11505207,-0.090979666,11.204864,0.8331822
1570715108,-8.494628,16.151285,5.2145715,1.8557472,-0.6072193,0.9960526,-5.463568,9.107543,1.6376339
1570715108,-3.9791632,9.02614,7.7907324,1.7950253,-1.2740952,1.5169828,-0.08619126,1.6903064,4.1946416
1570715108,-4.630386,6.3589997,4.548983,2.5066438,-0.64663523,0.6839206,-0.59855044,-1.8387469,1.910573
1570715108,-6.5361705,7.5704656,4.673482,2.400114,-0.29295665,0.39629045,-2.719813,-0.9624691,0.7326257
1570715108,-6.8761473,2.6479871,7.503428,1.5542682,-0.036220096,0.8618252,-3.3614593,-5.616797,5.0517654
1570715108,-6.0621185,0.095768064,6.2488666,0.73185897,-0.16831692,0.93000424,-3.3087866,-9.409213,5.291186
1570715108,-2.5570073,-5.133168,4.2425256,-0.25247538,0.14061919,0.6647453,-0.05267244,-13.417107,3.3614593
1570715108,-1.0869676,-5.3678,1.8004397,-1.6171207,0.5646074,0.089484945,1.3503298,-14.714764,0.34476504
1570715108,0.15801731,-2.791639,3.845088,-1.9015551,0.49855897,-0.7329243,3.169923,-12.842498,1.6232687
1570715108,-1.043872,2.2122424,4.0653543,-2.1295285,0.45914298,-1.7907641,2.5617957,-8.336611,1.5131354
1570715108,-5.9902925,26.891674,6.967127,-3.3801873,1.7225852,-2.0411088,-0.1388637,12.794614,-0.41180268
1570715108,-11.080365,38.474823,6.2105594,-1.2826176,-0.53797495,-3.028639,-6.4739213,30.65057,2.4851813
1570715108,-8.480263,3.122039,2.9592333,-2.5354066,2.7814903,-0.4495553,-2.9400797,0.2825158,-7.153875
1570715108,-10.160992,0.076614454,8.6334915,-2.3223474,-0.71587956,-1.5595948,-4.8123455,-6.871359,4.2425256
1570715108,-12.588713,14.331692,13.057976,-0.73931605,0.9747467,-1.4274979,-6.9144545,7.833828,8.389283
1570715108,-8.576031,17.338808,4.060566,-0.2759119,0.16405573,-1.0322727,-2.8538885,10.309433,2.2361844
1570715108,-3.964798,9.749189,-2.207454,-1.0173585,0.89165354,-0.23436533,2.1404164,3.7301662,-6.967127
1570715108,-1.6472107,4.951209,6.4308257,0.020240642,0.75209963,1.0184239,4.510676,-1.0965444,1.7764976
1570715108,-0.58418524,2.4612393,4.3526587,1.0312074,-0.21305938,2.0720026,5.2863975,-3.9600096,-0.16280572
1570715108,0.49799395,-2.4756045,-0.6464345,1.1707613,-0.34089503,2.116745,5.889736,-9.437943,-4.951209
1570715108,-2.9352913,-1.5753847,2.4468741,0.9438531,0.6594188,0.8011033,2.2122424,-8.901642,-1.5466543
1570715108,-0.58418524,2.4133554,5.8705826,0.6029581,-0.24075711,0.20027582,4.4963107,-5.0613422,2.0685902
1570715108,-5.023035,10.7116585,5.8562174,0.77873206,-1.0344033,-0.29828313,-0.01436521,3.1555579,2.1068976
1570715108,-4.6112323,17.161638,0.04309563,-0.16512102,-1.5830313,-1.3230988,0.50757074,9.797073,-3.9217024
1570715108,-4.9559975,9.289502,3.9504328,-0.04793836,-0.31532788,0.16725162,0.095768064,1.9728222,-0.18195933
1570715108,-4.1371803,15.873557,-0.49799395,1.2112426,-1.2996622,0.5539544,0.6607997,8.394072,-4.644751
1570715108,-6.813898,15.696386,5.1762643,1.0823417,-0.2087982,0.7307937,-2.2505496,7.9631147,1.2306197
1570715108,-5.9807158,12.593501,8.12592,1.6117942,-0.43251055,0.8469111,-1.5993267,4.6160207,4.462792
1570715108,-3.9360676,11.209652,7.479486,2.0389783,-1.4765016,1.4488038,0.019153614,2.8778305,4.1419687
1570715108,-7.2544312,8.082825,6.1195793,2.0943737,-1.1579778,1.0684928,-3.739743,-0.58418524,3.169923
1570715109,-5.2480903,7.3310456,4.027047,2.2776048,-0.29508725,0.78725445,-2.0111294,-1.5993267,1.5897499
1570715109,-4.745308,4.429273,6.5122285,1.8365719,0.09800732,0.8671517,-1.5035586,-4.381389,3.964798
1570715109,-6.9527617,1.067814,6.7947445,1.1814142,-0.091615535,0.85330284,-4.156334,-7.5704656,5.171476
1570715109,-5.4300494,-6.3063273,4.0462008,-0.092680834,-0.060721926,0.5688686,-2.753332,-14.997279,4.1515455
1570715109,-2.1978772,-7.5944076,1.0869676,-1.6213819,0.8042992,0.20347172,-0.12928689,-17.415422,0.31124622
1570715109,0.2825158,-5.851429,2.3798366,-2.171075,1.1270841,-0.64876586,2.8395233,-15.907076,0.5650316
1570715109,-0.062249243,4.036624,5.2002063,-2.6909401,0.9672896,-1.9132733,3.241749,-7.345411,1.6184803
1570715109,-4.4723687,27.686548,12.076353,-3.1809766,1.0695581,-2.8219717,0.6847417,14.255077,6.540959
1570715109,-8.954314,30.885202,-0.521936,-0.6700718,0.028763017,-3.0488799,-4.2281604,24.066515,-0.17238252
1570715109,-9.916783,7.0341644,4.912902,-2.3756123,2.1732059,-0.8564987,-3.7780502,4.7309427,-5.1140146
1570715109,-16.132132,8.00621,5.4061074,-2.3063679,-1.3316212,-1.6959528,-8.6095495,-2.432509,1.2545617
1570715109,-15.868769,14.551958,8.226477,-0.52945256,0.38670278,-1.2506586,-11.291056,8.508993,4.855441
1570715109,-6.8186865,15.485697,-1.6280571,-0.9832691,1.0578399,-0.66900647,-2.2888567,10.146626,-6.1100025
1570715109,-0.92416185,7.489063,3.5529952,-0.050068956,0.9023065,-0.0085223755,4.6112323,2.8538885,-1.7286136
1570715109,0.23463176,3.3806129,6.919243,0.7339896,0.46979594,1.0748847,6.325481,-2.2888567,1.8674773
1570715109,0.50278234,1.0869676,1.4173675,1.1100394,0.27271602,2.0645454,6.397307,-4.7070007,-2.5905263
1570715109,1.2641385,-5.118803,-1.4413095,1.2900746,0.31319728,1.7460216,6.871359,-12.08593,-5.4539914
1570715109,0.93852705,-0.0047884034,4.7405195,1.0993865,-0.1725781,0.31106672,6.3925185,-7.2687964,1.0534488
1570715109,-0.5506664,3.3566709,-0.5602432,0.3845722,-0.9949873,-0.7265325,4.865018,-3.940856,-4.2425256
1570715109,-13.479356,18.851944,3.5051112,0.11079088,-1.8078089,-1.2218956,-7.9822683,11.693281,-0.33039984
1570715109,-2.834735,10.5440645,0.39264908,-0.35580918,-0.80323386,0.67646354,2.5474305,3.4284968,-3.6774938
1570715109,-6.967127,13.508086,6.799533,1.0429257,-0.8096257,1.0312074,-1.8387469,6.215348,2.7006595
1570715109,-3.4572272,15.049952,2.7150247,1.8823797,-0.22584295,0.57952154,1.3838485,7.431602,-1.115698
1570715109,-8.920795,15.418659,9.059659,1.5883577,0.10759499,1.1334759,-4.285621,7.489063,5.60722
1570715109,-5.4204726,12.832921,8.772355,2.3361962,-0.9917914,2.0038235,-1.2306197,4.486734,5.7604494
1570715109,-7.953538,8.192958,7.632715,2.4693582,-0.9917914,1.8802491,-4.381389,-0.58897364,5.12838
1570715109,-8.240842,5.9663506,4.003105,2.4810765,-0.23543063,0.88845766,-5.0374002,-3.107674,2.111686
1570715109,-5.2385135,1.5227122,6.9383965,1.7524135,0.312132,0.95876724,-2.2649148,-7.7332716,5.645528
1570715109,-4.9224787,0.11971009,9.351752,0.9001759,0.1747087,1.3902125,-2.4372973,-8.058883,4.984728
1570715109,-6.143522,-7.5225816,1.3599066,-0.6413088,0.8564987,0.87886995,-3.8307228,-17.00841,0.4357447
1570715109,-3.0502129,-7.560889,2.705448,-1.8248537,1.1025823,0.43251055,-2.3558946,-16.922218,2.006341
1570715109,2.6479871,-5.4779334,3.9121256,-2.4203546,1.1249535,-0.65089643,4.3957543,-13.508086,1.0390835
1570715109,1.4796166,8.413225,6.191406,-3.2150662,0.8852618,-1.7918295,4.2042184,-0.6560113,3.6487634
1570715109,-3.1986535,23.238121,14.235924,-3.2523515,1.3444047,-3.1191895,0.23942018,14.686033,10.874464
1570715110,-7.431602,26.757599,1.4748282,-1.8866409,0.81601745,-3.4419744,-2.743755,18.598158,0.033518825
1570715110,-11.046846,15.68681,4.4915223,-2.9657867,1.4967422,-1.3316212,-4.8123455,11.841722,-2.8395233
1570715110,-16.443377,10.036493,2.7246015,-2.6802871,-1.4860892,-1.9399058,-9.801862,0.50757074,0.2825158
1570715110,-17.84159,15.313314,8.748413,-0.81708276,1.2314832,-1.6490797,-13.680469,9.035717,3.9217024
1570715110,-5.9280434,14.159308,2.6001031,-0.9236124,1.3891472,-1.1153659,-1.8100165,9.165004,-2.585738
1570715110,0.16759412,5.9567738,4.357447,0.019175345,0.5187996,-0.07350549,6.05733,1.733402,-0.29209262
1570715110,1.283292,2.8682537,4.6782703,1.043991,0.089484945,1.3710371,7.0341644,-2.8443117,0.062249243
1570715110,3.083732,-1.1731589,1.8818425,1.4626527,0.24714889,2.4299424,8.585608,-5.9519854,-3.0933087
1570715110,4.074931,-8.422802,2.006341,1.6948874,0.58058685,1.0908641,9.662998,-15.614984,-5.4683566
1570715110,0.7469909,0.090979666,3.0119057,0.6402435,-0.6189375,-0.19281875,6.8809357,-8.0924015,0.79487497
1570715110,-7.417237,11.9374895,5.683835,0.61467636,-2.345784,-0.95131016,1.7717092,1.6424223,-3.4093432
1570715110,-9.481039,20.456059,1.2976574,0.8714129,-1.4264326,-1.4637179,-11.15698,21.768082,-1.5610195
1570715110,-2.4899697,13.302185,4.0892963,0.32385027,-0.43464115,1.2314832,3.6104562,4.1419687,-1.8531121
1570715110,-3.7349546,13.431472,3.4715924,2.5748227,-1.2314832,1.0205544,-0.272939,7.091625,-0.4261679
1570715110,-11.832145,15.093047,5.7604494,2.2669518,-0.14807628,0.42079228,-4.912902,6.2823853,0.07182605
1570715110,-7.8050976,14.709975,11.793838,2.6504588,-0.6785942,1.865335,-5.3821654,6.9288197,9.495404
1570715110,-4.817134,11.501745,12.6461735,2.2520378,-1.0716888,2.8794975,0.12449849,5.5976434,8.374918
1570715110,-10.500969,4.4436383,4.3239284,2.6493936,-0.7766015,1.0237503,-7.1634517,-3.9743748,4.261679
1570715110,-5.626374,1.6041151,6.0956373,2.5130355,0.04900366,0.6317211,-3.5913026,-7.2592196,3.5673606
1570715110,-5.1475334,0.50278234,6.8569937,1.5745089,-0.35793978,0.91828597,-2.4756045,-8.892065,6.0046577
1570715110,-4.9559975,-8.1402855,1.8914193,-0.11292148,-0.044742472,1.0471869,-2.6527755,-16.970102,2.6240451
1570715110,0.7086837,-9.074024,0.110133275,-1.5116564,0.62639457,0.5976316,1.484405,-19.302053,-0.17717093
1570715110,2.1164744,-5.645528,1.7429788,-2.1795976,0.87567407,-0.21625528,4.156334,-15.140931,0.40222588
1570715110,0.49799395,5.257667,3.169923,-2.7782943,0.78299326,-1.7119322,2.8874073,-4.036624,1.163582
1570715110,-1.043872,22.73534,14.762648,-4.34215,1.4413468,-1.5223093,1.8674773,13.828909,11.860875
1570715110,-8.288726,29.113493,-2.030283,-2.0783944,-0.02130594,-3.9831452,-4.486734,20.84871,-5.7029886
1570715110,-10.620679,19.273323,-1.7429788,-2.81558,2.5375373,-1.5809007,-6.0046577,11.63582,-5.8083334
1570715110,-14.164097,2.1739352,15.126566,-1.7960906,-1.6906263,-1.6831691,-9.131485,-4.9895163,10.70687
1570715110,-13.192051,14.901511,5.080496,-1.5169828,0.74890375,-1.7907641,-7.9391727,6.14831,0.4261679
1570715110,-6.4547677,18.119318,0.7565677,-0.6796594,1.0887334,-1.5649211,-0.59376204,11.84651,-3.98874
1570715110,0.04309563,8.614338,-0.842759,-0.50921196,0.3494174,-0.43144527,6.1626754,2.6431987,-5.6407394
1570715110,1.1013328,3.7972038,5.3342814,0.6785942,0.9491796,1.0354686,7.2592196,-2.2888567,0.7278373
1570715110,4.2281604,-0.9528923,4.6782703,1.4498692,-0.14701098,2.2808008,10.070012,-7.5225816,0.33518824
1570715111,4.6686935,-10.539276,-0.31603462,1.7396299,-0.8064298,1.0748847,9.634268,-17.606958,-4.462792
1570715111,-2.030283,-1.9249382,-0.3878607,0.8618252,0.51240784,-0.33450323,3.3183637,-9.174581,-4.2521024
1570715111,-5.932832,2.1164744,3.5769374,0.41226992,-0.16725162,-0.8011033,0.8810662,-6.2871737,-0.94810385
1570715111,-25.115175,36.98084,-4.175488,-0.4559471,-2.5460596,-2.1806629,-19.656397,30.008924,-8.394072
1570715111,5.7365074,7.129933,-0.56982,-1.5127217,0.3451562,1.3902125,11.281479,0.34955344,-4.975151
1570715111,-7.40766,9.050082,11.228806,1.5127217,-1.7161933,0.9033718,-2.1499932,2.054225,6.7947445
1570715111,-4.9703627,17.496826,1.2258313,2.0261948,-0.8980453,-0.3792457,-0.33039984,6.7085533,-5.779603
1570715111,-15.619772,23.985113,5.171476,1.7641318,0.47725302,1.280487,-10.994174,17.53992,-0.11492168
1570715111,-5.5880666,9.3182335,9.198523,1.8919674,-0.721206,2.7292907,-1.9871874,2.906561,5.3725886
1570715111,-3.2225955,6.4882865,8.99741,2.744205,-0.44422883,1.865335,0.8475474,-1.5275006,5.085284
1570715111,-5.995081,4.5681367,5.5880666,2.8858893,-0.19601464,0.53264844,-2.4277205,-3.940856,3.2321723
1570715111,-5.2385135,0.0047884034,7.201759,2.2445807,-0.04793836,0.55075854,-2.1547816,-8.446744,5.410896
1570715111,-4.209007,-4.19943,5.45878,0.6359823,-0.50282013,0.8341275,-1.1587936,-11.9614315,3.8977604
1570715111,-2.7389667,-8.887277,-0.7182605,-1.0514481,0.53371376,0.6828553,0.10055647,-18.35395,-0.11971009
1570715111,-2.087744,-5.770026,-0.6703765,-2.1263328,1.5521376,0.011718267,0.7661445,-15.811308,-2.8443117
1570715111,-0.07182605,0.7374141,3.7493198,-2.415028,1.2623769,-0.8224092,2.6048915,-9.495404,0.12928689
1570715111,0.9720459,14.638149,8.00621,-2.6845484,0.98113847,-1.5436152,3.4763808,2.1787236,5.3342814
1570715111,-5.6646814,31.148563,16.486473,-2.3361962,0.8980453,-3.2374375,-1.5370775,22.22298,14.853627
1570715111,-6.8905125,21.964407,-3.107674,-1.9473628,1.6565367,-2.0709372,-2.1978772,15.974113,-8.643068
1570715111,-12.038046,6.090849,15.725117,-2.317021,1.4786321,-0.7595567,-5.530606,2.6384103,6.9479733
1570715111,-13.833697,12.5264635,3.8115692,-1.8323107,-0.40268224,-1.0375992,-8.762778,4.0797195,0.4261679
1570715111,-8.6813755,14.164097,3.2848446,-0.6157416,0.87886995,-0.8810006,-3.9791632,7.3885064,-0.37349546
1570715111,-2.2601264,11.9135475,1.067814,-0.65196174,1.0908641,-0.29615256,2.7341783,6.799533,-3.8594532
1570715111,-0.8619126,5.0421886,3.8786068,-0.1033338,0.9385266,1.015228,5.875371,-0.51714754,-1.0965444
1570715111,-0.3878607,3.145981,3.53863,0.5688686,0.35900506,1.9164692,5.5401826,-3.3997664,-0.7182605
1570715111,1.9632454,-5.0996494,2.7102363,1.0599705,-0.4516859,2.073068,7.445967,-12.143391,-1.340753
1570715111,1.1252748,-2.0398598,1.283292,1.0567746,-0.043677174,0.15979454,6.6510925,-10.060435,-3.098097
1570715111,-0.24420857,0.062249243,3.4284968,0.3078708,0.035154797,-0.49642837,4.999093,-7.3549876,-0.25857377
1570715111,-7.9008656,10.414778,6.5265937,0.68498594,-1.8205925,-0.5646074,-2.60968,3.0358477,2.8107927
1570715111,-13.862428,36.88507,-3.347094,0.43251055,-1.3476006,-1.9867787,-8.51857,29.755138,-7.445967
1570715111,-1.661576,6.3829417,7.3071036,-0.48151422,1.6799732,1.7758499,3.572149,-0.79008657,3.1507695
1570715111,-2.1308396,14.288596,2.3654714,1.704475,-1.8568126,0.9118942,2.7246015,6.7708025,-1.6424223
1570715111,-9.3421755,17.664421,3.691859,1.3220335,-0.6647453,0.6210681,-4.745308,9.888053,-0.12928689
1570715112,-7.9726915,12.933477,7.1826053,1.8664002,-0.63917816,1.8695961,-3.7301662,4.793192,3.7205894
1570715112,-4.4819455,7.321469,8.513782,1.9846482,-1.219765,1.6906263,-0.8283938,-1.2210429,5.377377
1570715112,-5.813122,4.7979803,4.357447,2.5119703,-0.5187996,0.5241261,-2.480393,-4.050989,1.7621324
1570715112,-5.377377,3.2369606,5.0613422,2.1785321,0.03089361,0.4548818,-2.15957,-5.813122,3.083732
1570715112,-5.4779334,0.94810385,7.3645644,1.2229608,-0.07457078,1.0493175,-2.360683,-8.264784,5.841852
1570715112,-5.45878,-3.083732,3.145981,0.33769912,-0.1054644,1.0397298,-2.8107927,-11.066,2.695871
1570715112,-2.8060043,-7.8769236,0.80445176,-1.0471869,0.70735717,0.45914298,-1.1540052,-17.559074,-0.1436521
1570715112,-0.48841715,-4.8027687,1.8052281,-2.0112805,1.2996622,-0.2801731,2.087744,-14.06354,-0.12928689
1570715112,0.81881696,0.04309563,4.879383,-2.1135492,1.0013791,-1.1143006,3.4811692,-10.419566,3.098097
1570715112,0.79008657,11.027693,7.479486,-2.5481904,0.3462215,-2.024064,3.8019924,-1.0534488,4.414908
1570715112,-10.649409,37.746983,22.783224,-3.06699,1.4317591,-3.2981594,-4.879383,27.56205,19.479225
1570715112,-6.967127,23.740904,-10.314221,-2.1327245,0.43357584,-1.8578779,-2.384625,20.566193,-12.617443
1570715112,-10.931925,-2.3080103,15.892711,-2.0357823,0.85756403,-1.2325486,-5.3103395,-5.674258,6.9383965
1570715112,-14.326903,12.890382,8.916007,-1.3657106,-0.50388545,-1.3220335,-8.959103,3.86903,4.7884035
1570715112,-7.7332716,16.16565,-1.8387469,-0.6572882,0.7627526,-0.9044371,-1.8866309,9.945514,-6.6750345
1570715112,-4.414908,13.096283,-2.1643584,-0.78192794,0.9310695,-0.5113425,0.5267244,8.403648,-7.1969705
1570715112,-2.60968,5.449203,2.4899697,0.15872924,1.0322727,0.7244019,3.691859,0.090979666,-3.3614593
1570715112,0.89064306,2.858677,6.14831,1.1249535,0.32704616,1.8259189,6.301539,-3.145981,1.7286136
1570715112,3.6631286,-4.3957543,3.845088,1.2506586,-0.6413088,2.174271,8.7292595,-9.907207,1.7238252
1570715112,2.5570073,-4.8267107,-0.62728083,1.1707613,0.029828314,0.48151422,7.8529816,-13.618219,-4.9224787
1570715112,-2.2361844,-1.115698,1.6232687,0.7840586,-0.19707993,-0.506016,4.3143516,-8.78672,-2.0446482
1570715112,-18.646044,16.208746,6.042965,-0.66900647,-3.1191895,-1.2176344,-9.131485,3.8019924,4.2760444
1570715112,0.92895025,15.456966,-1.2210429,-0.3206544,-0.9768773,-0.17044751,2.7150247,16.19438,-2.6192567
1570715112,-5.731719,9.275137,8.858546,0.43570644,0.08309316,1.0663623,1.0103531,0.50757074,3.8594532
1570715112,-2.4708161,15.471332,4.9943047,1.9633423,-1.5308317,0.63065577,2.3319526,8.010999,0.81402856
1570715112,-11.563994,17.731459,5.3342814,1.3763636,-0.07457078,0.72014076,-5.66947,9.959879,0.31124622
1570715112,-5.094861,11.990162,7.6853876,1.9899746,-0.6945736,1.8685309,-1.7764976,4.7548847,4.256891
1570715112,-2.5617957,8.887277,9.399636,2.2989109,-1.0471869,1.8664002,1.1348516,0.36391866,6.253655
1570715112,-6.8569937,6.8186865,5.0613422,2.482142,-0.789385,0.81069094,-3.5577838,-2.0446482,2.4660277
1570715112,-4.8985367,2.4660277,4.759673,2.0517619,-0.2780425,0.77020967,-1.9632454,-5.559336,2.3558946
1570715112,-5.329493,1.2737153,7.0724716,1.2250915,0.026632423,1.0897988,-2.4947581,-7.9822683,5.497087
1570715112,-6.009446,-1.0295067,4.7548847,0.6029581,-0.089484945,1.13028,-3.514688,-10.414778,3.4093432
1570715112,-5.4922986,-7.603985,2.8491,-0.47725302,0.25993246,0.6455699,-3.2513258,-17.056293,1.5275006
1570715112,1.163582,-5.7029886,1.4700398,-1.815266,0.78618914,0.2844343,3.2992098,-15.126566,-0.19632454
1570715113,1.2162545,-0.038307227,3.7110126,-2.3447185,0.96409374,-0.92041653,3.5003228,-9.3182335,1.5275006
1570715113,0.6895301,16.089035,9.203311,-3.7509105,0.89591473,-1.2016549,2.8395233,9.720459,7.9822683
1570715113,-5.4300494,25.905262,5.3582234,-2.1827934,0.24821419,-3.6102912,-1.9919758,17.520767,1.5993267
1570715113,-7.9343843,21.519085,1.3455414,-2.0997002,1.6416225,-1.8578779,-3.7493198,13.666103,-2.7820623
1570715113,-13.297397,11.473015,10.151415,-1.9537545,1.1792837,-1.4573262,-8.6095495,4.074931,5.731719
1570715113,-10.91756,10.673351,0.37828386,-1.510591,-1.2719646,-2.0613496,-5.932832,3.787627,-4.510676
1570715113,-11.865664,14.312538,1.1061212,-0.50708133,1.3582536,-1.8877062,-6.411672,7.867347,-3.8833952
1570715113,-5.793968,12.943054,2.1260512,-0.5475626,0.8937841,-1.3326864,-1.2641385,7.503428,-2.5330653
1570715113,-0.5315128,5.209783,3.5434184,0.039415985,0.2759119,0.36113566,5.45878,-0.8379706,-1.3215994
1570715113,0.94331545,2.1404164,3.7732618,0.87460876,-0.05539544,1.180349,6.8043213,-4.1371803,-0.9528923
1570715113,2.6527755,0.16280572,1.091756,1.0844723,0.23862651,1.7481523,8.001422,-5.554548,-3.1842883
1570715113,1.8100165,-5.401319,1.5705963,1.4413468,0.4431635,1.3657106,7.61835,-12.291832,-4.0078936
1570715113,-1.508347,1.0582372,3.1794999,0.6285252,-0.24821419,-0.3472868,3.7493198,-6.2345014,-0.7278373
1570715113,-7.9583263,6.95755,3.4715924,0.3462215,-1.7055404,-1.3795595,0.12928689,-2.528277,-1.3455414
1570715113,-9.648633,21.327549,1.9967642,0.29721785,-0.8660864,-1.7343034,-10.251971,17.951725,-2.6623523
1570715113,0.17238252,10.5680065,5.45878,-0.6903124,-0.4112046,0.6189375,7.455544,2.4708161,-0.5410896
1570715113,-8.384495,13.019669,3.5625722,1.5489417,-1.191002,0.6626147,-3.8977604,6.6271505,0.23463176
1570715113,-7.599196,13.79539,3.7780502,1.4317591,-0.39522517,0.18749227,-1.0630256,6.5696893,-0.06703765
1570715113,-9.576807,15.461755,10.065224,1.9771911,-0.019175345,1.0088362,-5.3103395,8.303091,6.4739213
1570715113,-5.3007627,12.641385,8.331821,2.2019687,-0.9704855,2.0815902,-0.8283938,5.195418,4.10845
1570715113,-6.1195793,7.4363904,6.3542113,2.3393922,-0.9960526,1.912208,-1.6519991,-0.7182605,5.511452
1570715113,-7.1730285,6.4068837,4.927267,2.4672277,-0.27058542,1.2677033,-3.821146,-1.7477672,1.8052281
1570715113,-5.353435,2.2218192,8.169016,1.912208,0.2823037,1.0375992,-2.1930888,-6.3781533,6.1770406
1570715113,-7.2352777,-1.5514427,6.517017,1.004575,-0.18003519,0.89698005,-4.31914,-10.189722,5.813122
1570715113,-5.707777,-7.800309,3.1268275,-0.2780425,0.56780326,0.46446946,-3.3662477,-15.859192,0.22984336
1570715113,-0.78050977,-6.8665705,0.56982,-2.083721,1.1782184,0.4559471,0.7565677,-16.318878,-1.1923125
1570715113,0.58418524,-3.3183637,4.060566,-2.533276,1.4147143,-0.3419603,3.1507695,-13.996503,1.5993267
1570715113,0.22505496,9.562442,8.1163435,-3.283245,1.2261568,-1.5063299,3.5194764,-2.4468741,4.745308
1570715113,-2.4851813,24.645912,13.350069,-2.4842725,1.3230988,-3.444105,1.4987702,14.700398,9.773131
1570715113,-5.755661,24.004267,0.61291564,-1.9654728,1.3689066,-2.6717646,-0.89543146,17.281347,-2.8634653
1570715113,-8.422802,6.517017,13.618219,-2.6845484,0.9747467,-1.062101,-2.1212628,4.0462008,4.367024
1570715113,-17.209522,12.74673,4.074931,-2.4981213,-0.66368,-1.5052645,-10.366894,3.9456444,-1.3742718
1570715113,-16.97489,17.18558,5.1140146,-0.70203066,0.5475626,-1.4669139,-11.300632,11.008539,0.023942016
1570715114,-5.932832,13.024457,0.272939,-0.7755362,1.3177723,-0.8096257,-1.1061212,8.662222,-5.6790466
1570715114,-1.3599066,6.081272,5.1571107,0.3526133,1.0205544,0.023436533,4.903325,0.35434186,0.23942018
1570715114,0.29209262,2.2218192,6.6415157,1.1377372,0.47512242,1.1089741,6.540959,-3.7541082,2.0159178
1570715114,3.2848446,-0.92416185,3.083732,1.1462595,0.07883197,2.1625528,9.208099,-7.398083,-1.292869
1570715114,5.3103395,-7.431602,-0.37828386,1.2027203,0.28976077,1.0844723,10.879252,-14.33648,-4.548983
1570715114,-0.9576807,-1.3215994,3.8019924,0.5187996,-0.26206306,-0.5347791,6.5984197,-8.887277,0.44532153
1570715114,-19.665974,17.477673,2.255338,-0.21518998,-2.0656106,-2.3234127,-13.819332,10.82658,-1.9632454
1570715114,-1.6759412,17.626112,-2.2936451,1.298597,-0.47938362,0.98007315,4.1036615,10.931925,-6.5265937
1570715114,-5.592855,11.563994,5.085284,1.1686307,-0.5156037,1.32736,-0.18674773,4.4915223,0.9624691
1570715114,-4.367024,11.717223,8.90643,2.4927948,-0.98859555,0.3483521,0.8523358,4.2904096,5.1906295
1570715114,-10.67814,14.384364,8.24563,2.1369855,-0.29615256,0.8905882,-5.6886234,6.631939,4.8937483
1570715114,-8.087613,13.488933,8.566454,2.428877,-1.004575,2.095439,-3.5577838,5.2768207,5.693412
1570715114,-8.532935,8.106767,10.247183,1.7918295,-0.5145384,2.2147524,-4.644751,-0.5554548,7.7907324
1570715114,-8.259995,4.0940847,3.5673606,2.3308697,-0.05219955,1.280487,-5.0421886,-4.213795,2.384625
1570715114,-4.3622355,2.111686,5.5401826,2.145508,0.5156037,0.95131016,-1.5562311,-6.9144545,3.8355112
1570715114,-5.1523223,-0.25857377,7.302315,1.0035098,0.064983115,1.3912778,-2.2457612,-8.37013,4.1180267
1570715114,-4.6255975,-6.5744777,1.4939818,-0.08522376,-0.16085984,1.3007276,-3.3183637,-16.381128,2.791639
1570715114,2.8443117,-9.112331,0.51714754,-1.0908641,0.6615494,0.6327864,4.1371803,-18.248606,-0.521936
1570715114,1.5275006,-4.414908,4.185065,-1.8195271,0.7052266,-1.0770152,4.55856,-15.298949,2.2984335
1570715114,2.303222,10.366894,3.2369606,-2.751662,0.487906,-2.3724163,3.667917,-1.6136919,1.0007763
1570715114,-6.871359,28.711267,20.38902,-4.186617,1.6639938,-2.1433775,-0.5267244,14.997279,15.600618
1570715114,-8.39886,32.15413,-8.001422,-2.4139628,1.036534,-3.5399816,-3.739743,24.909275,-9.552865
1570715114,-12.421119,10.740389,5.4061074,-2.8251674,2.497056,-0.74570787,-6.967127,7.2209125,-2.456451
1570715114,-9.758766,6.531382,8.796297,-2.0219336,-1.7630664,-1.6267084,-4.9799395,-4.1419687,8.523358
1570715114,-11.113884,15.816096,6.1195793,-1.0738193,2.1838586,-1.4317591,-5.2241483,8.240842,1.163582
1570715114,-3.3614593,17.257406,0.34476504,-1.4701098,1.1665001,-1.2847481,1.0582372,11.884817,-2.6001031
1570715114,-2.3989902,6.2823853,-0.24420857,-0.63491696,1.0301422,0.4527512,4.831499,1.2210429,-6.349423
1570715114,1.5801731,3.3997664,4.855441,0.87993526,0.5582156,1.5872924,7.029376,-2.528277,0.34476504
1570715114,2.944868,-3.845088,4.534618,1.237875,-0.6871165,2.3180861,8.901642,-8.710106,1.8914193
1570715114,2.4372973,-7.019799,-0.41180268,1.334817,0.089484945,0.89591473,8.384495,-15.1936035,-5.171476
1570715114,-0.46926352,0.7613561,3.2130187,0.88845766,-0.017044751,0.012783563,5.482722,-7.422025,-0.2825158
1570715114,-8.331821,8.719683,5.315128,0.27165073,-2.059219,-0.18323107,0.038307227,0.25378537,0.50757074
1570715114,-18.416199,36.923378,-1.9201498,0.4911019,-1.2368097,-2.6632423,-19.919758,27.073633,-5.8562174
1570715115,3.7780502,8.111555,3.4811692,0.32278496,1.1292148,0.29189137,8.954314,0.842759,-4.8458643
1570715115,-3.9217024,16.610971,6.8665705,1.7406952,-1.8823797,1.1217576,1.958457,7.905654,4.5872903
1570715115,-6.4308257,15.8544035,4.271256,1.8003519,-1.3507965,0.67646354,-1.3934253,8.283937,0.59376204
1570715115,-13.891158,13.651738,8.298303,1.8695961,0.092680834,0.7627526,-9.021352,5.8322754,4.927267
1570715115,-3.8881836,10.927136,7.608773,2.1646833,-0.85543346,2.1082227,-0.32561144,3.1316159,4.027047
1570715115,-4.7979803,6.2967505,7.1395097,2.1412468,-0.6700718,1.5979455,-0.90979666,-2.3558946,4.654328
1570715115,-5.8466406,3.8115692,4.1371803,2.2126217,-0.040481284,0.4112046,-2.183512,-5.0757074,2.2122424
1570715115,-5.884948,1.7429788,6.612785,1.6075331,0.25354066,0.7797974,-2.3654714,-7.302315,5.2241483
1570715115,-5.0278234,0.36391866,4.5681367,0.94704896,-0.5923051,1.0567746,-1.7717092,-8.820239,3.490746
1570715115,-2.8203697,-8.848969,1.9297266,-0.419727,0.26206306,0.88952297,0.15322891,-18.133684,0.90979666
1570715115,1.7621324,-8.135497,-1.0486604,-1.890902,1.2943357,-0.020240642,4.6686935,-17.405846,-2.3750482
1570715115,1.508347,-3.289633,3.4237084,-2.640871,1.1324106,-1.0248157,4.630386,-12.397177,1.5801731
1570715115,0.6368576,12.5504055,7.28795,-3.5516999,0.8309316,-1.4967422,4.209007,3.8019924,4.663905
1570715115,-6.8043213,32.26905,17.659632,-2.9338279,0.23543063,-3.3460977,-2.6192567,24.095245,14.202404
1570715115,-8.1881695,23.233334,-6.95755,-2.0411088,0.044742472,-1.9036856,-3.5482068,15.653291,-10.893618
1570715115,-11.750742,9.519346,6.9048777,-2.5822797,1.7769153,-0.64663523,-5.2720323,4.654328,-1.4077905
1570715115,-18.770542,11.832145,5.741296,-2.3383267,-0.7467731,-1.4946116,-12.320562,3.2082303,1.7142484
1570715115,-13.474567,14.068329,4.4005427,-0.5656727,1.0951252,-1.3795595,-7.642292,7.8865004,-0.49799395
1570715115,-5.1571107,13.182474,1.5466543,-0.8096257,1.6906263,-0.84904164,-0.39743748,7.5704656,-2.7485435
1570715115,-0.20590134,6.459556,5.4539914,-0.028763017,0.6157416,0.26632422,5.779603,2.4420857,1.1492168
1570715115,0.45010993,2.743755,5.104438,0.4868407,0.034089502,1.6916915,6.421249,-2.6623523,1.1492168
1570715115,1.4556746,-2.183512,2.1739352,1.1100394,0.43251055,2.500252,6.7612257,-6.8426285,-2.9352913
1570715115,1.0965444,-5.8083334,4.3622355,1.8642696,0.11079088,1.0908641,6.469133,-13.9151,-1.9201498
1570715115,0.30645782,-0.59855044,2.6767175,0.4847101,-0.25247538,0.07244019,5.707777,-8.058883,-0.9768343
1570715115,-6.0525417,7.651869,0.10055647,0.8277357,-0.98007315,-0.3440909,1.0869676,-2.9592333,-6.397307
1570715115,-14.5328045,30.803799,3.2704794,-0.3526133,-1.2506586,-1.7300422,-15.121778,21.610065,-0.8379706
1570715115,0.31603462,1.7477672,2.8921957,-0.692443,0.30467492,0.5784562,6.6367273,-4.4915223,-3.9456444
1570715115,-6.9719152,13.565547,4.951209,1.4935462,-2.3393922,0.64876586,-1.6041151,5.497087,4.1371803
1570715115,-8.384495,19.88145,2.873042,1.2538545,-0.23330003,0.91615534,-1.1204864,12.919112,-1.6759412
1570715115,-9.595961,12.411542,10.845734,1.7374994,0.9012412,1.3316212,-6.3350577,5.779603,5.032612
1570715115,-3.964798,12.473791,8.863335,2.4363341,-0.91722065,1.8983592,-0.50757074,3.8019924,5.717354
1570715115,-5.875371,7.920019,6.847417,2.450183,-1.0780805,1.5169828,-1.5131354,-0.10055647,5.233725
1570715115,-6.8905125,4.146757,3.98874,2.3404574,-0.2791078,0.71481425,-3.892972,-3.916914,2.0207062
1570715115,-4.697424,1.6280571,6.6893997,1.8930327,0.21732058,0.9065677,-1.5035586,-7.1347213,4.5920787
1570715116,-4.999093,-1.9776106,7.062895,0.85543346,-0.1736434,1.0280116,-2.5234885,-10.084377,4.903325
1570715116,-3.3087866,-9.916783,2.456451,-0.3419603,0.43144527,0.8096257,-1.7190368,-18.890251,1.3359646
1570715116,1.5370775,-8.264784,0.5267244,-1.7204546,0.8650211,0.36220095,3.9504328,-17.669209,-0.82360536
1570715116,-0.7182605,1.5562311,2.2744915,-3.1234505,1.2144386,-0.95557135,2.4037786,-10.251971,-0.3878607
1570715116,-1.2880806,19.120094,11.611878,-3.616683,1.0557092,-1.4711751,2.480393,8.298303,6.3111157
1570715116,-5.2049947,23.707386,11.075577,-2.138051,0.43570644,-3.2203927,-1.5753847,15.303738,7.5465236
1570715116,-5.674258,19.972431,-1.5227122,-2.22434,1.3582536,-2.095439,-1.3120226,12.090718,-5.401319
1570715116,-10.845734,12.473791,12.08593,-2.7282255,1.3550577,-1.277291,-5.90889,5.1235914,7.85777
1570715116,-15.562311,12.540829,3.2513258,-2.5631044,-0.14807628,-1.4392161,-10.366894,5.78918,-1.6089035
1570715116,-13.259089,15.198392,3.1794999,-1.1579778,0.85543346,-1.5063299,-7.6710224,8.925584,-1.8818425
1570715116,-3.8307228,12.41633,2.3223755,-0.95663667,1.2005897,-0.9459837,2.1260512,6.50744,-2.753332
1570715116,0.62249243,5.0182467,5.023035,-0.12463974,0.85862935,0.16405573,6.8043213,-0.7422025,0.05267244
1570715116,1.6376339,2.815581,3.7924154,0.47512242,0.2077329,1.4733057,7.7332716,-3.1507695,-1.0390835
1570715116,3.466804,-0.5746084,1.9153614,0.8991106,-0.0010652969,2.2296665,8.901642,-5.4683566,-2.7341783
1570715116,2.681506,-5.90889,3.8067808,1.8397678,0.0074570784,0.98007315,8.058883,-12.832921,-0.58418524
1570715116,-1.1683705,-0.6751649,2.5809495,0.87567407,-0.33024204,0.1374233,4.5872903,-8.532935,-1.2449849
1570715116,-7.704541,7.819463,-1.5370775,0.7883197,-1.3326864,-0.3920293,-2.4612393,0.6512229,-5.6982
1570715116,-22.012291,40.09809,-0.7422025,-0.18216577,-1.3220335,-1.8504208,-16.888699,33.04956,-5.243302
1570715116,4.5872903,6.540959,0.51714754,-1.2218956,0.15872924,0.6540923,10.25676,3.7493198,-4.0414124
1570715116,-2.8778305,9.758766,7.560889,1.7960906,-2.5322108,0.3898987,2.087744,2.695871,2.906561
1570715116,-3.0023289,16.745047,0.7469909,1.618186,-1.0344033,-0.3824416,2.5570073,6.6367273,-6.7564373
1570715116,-12.330139,17.635689,7.3885064,1.883445,-0.22051647,0.48151422,-8.839393,12.263102,2.111686
1570715116,-4.9703627,9.232041,10.146626,1.9324486,-1.0088362,1.4562609,-0.9720459,1.8866309,6.1530986
1570715116,-4.7644615,7.029376,8.264784,2.5780187,-1.1185617,1.0514481,-0.047884032,-0.61770403,4.9799395
1570715116,-9.121908,9.993398,4.0318356,2.5588431,-0.9097636,0.6711371,-5.023035,0.9576807,2.2026656
1570715116,-7.4363904,4.9655743,7.651869,2.20623,-0.1384886,1.122823,-4.4915223,-2.6192567,4.060566
1570715116,-6.7708025,2.4756045,7.8769236,1.4434774,-0.18110047,1.3689066,-3.572149,-6.967127,6.3350577
1570715116,-4.5537715,-3.8594532,1.2354081,1.004575,0.0063917814,1.0067056,-2.327164,-11.870452,1.5562311
1570715116,-0.40222588,-6.6893997,-0.2633622,-0.6945736,0.5401055,0.51240784,1.283292,-16.783354,-1.5466543
1570715116,0.1340753,-5.5162406,3.2130187,-1.5414847,0.8383887,-0.20347172,2.2888567,-15.294161,0.8379706
1570715116,0.7182605,2.7006595,4.333505,-2.6355445,0.9459837,-1.5137869,3.0310593,-8.513782,1.0199299
1570715116,-3.667917,16.46253,8.7532015,-3.3141387,1.277291,-2.0102153,1.0821792,5.329493,3.5577838
1570715116,-7.369353,26.408045,5.1140146,-1.6490797,0.4911019,-3.150083,-2.9161377,18.516756,5.2480903
1570715117,-7.6135616,17.549498,-0.39743748,-2.4310076,1.5233747,-1.2325486,-2.5330653,12.861651,-5.2289367
1570715117,-13.038822,5.511452,6.9862804,-2.615304,-1.1174965,-1.8674655,-6.9144545,-4.55856,7.326257
1570715117,-17.942148,13.306973,6.157887,-1.3465353,1.2634422,-1.5201787,-12.50731,6.4643445,0.6703765
1570715117,-7.6375036,13.88637,1.757344,-0.8618252,0.8639558,-1.2101773,-3.8642416,7.517793,-1.8148049
1570715117,-0.91937345,10.572795,4.185065,-0.50814664,0.94704896,-0.39415985,4.381389,5.439626,-1.1348516
1570715117,-0.4165911,3.940856,3.3614593,0.409074,0.5923051,0.92574304,5.9663506,-1.5945383,-1.4221559
1570715117,0.61291564,2.882619,3.2321723,1.1313454,0.31532788,1.7641318,6.6367273,-3.4476504,-1.2066777
1570715117,1.8626889,-4.343082,3.323152,1.1611737,0.0010652969,1.8163313,7.541735,-11.171345,-0.82360536
1570715117,1.5562311,-2.825158,3.2704794,1.521244,-0.39096397,0.11824796,7.3310456,-11.291056,-0.842759
1570715117,-0.4405331,1.5131354,1.0103531,0.5347791,-0.81601745,-0.36965802,4.9703627,-5.746084,-2.753332
1570715117,-17.03714,20.111294,4.8458643,-0.95557135,-1.8205925,-1.2272221,-11.640609,12.990938,0.79487497
1570715117,-6.6606693,9.097966,-1.3982137,-0.16725162,-1.636296,0.22051647,-1.2354081,2.1499932,-5.6982
1570715117,-7.043741,17.563864,4.261679,1.1718266,-0.15446806,0.9150901,-1.8148049,10.453085,-0.019153614
1570715117,0.6560113,16.021997,4.237737,2.1614876,-0.14168449,1.0716888,5.5641246,8.48984,0.31124622
1570715117,-10.25676,13.9151,9.476251,1.6235125,-0.089484945,1.1313454,-5.583278,6.042965,5.9519854
1570715117,-7.393295,12.061988,8.020576,2.5886714,-1.6757121,1.865335,-3.1603463,3.7732618,4.9224787
1570715117,-7.728483,7.771579,6.727707,2.2861273,-1.0375992,1.8695961,-4.1180267,-0.9576807,4.098873
1570715117,-6.7372837,4.4340615,5.133168,2.5460596,-0.16618632,0.54649734,-3.442862,-4.5777135,3.1028855
1570715117,-4.5298295,1.3120226,7.489063,1.9889094,0.19601464,0.6551576,-1.364695,-7.8625584,6.0956373
1570715117,-5.21936,0.58418524,6.7947445,0.7467731,-0.28763017,1.1665001,-2.3319526,-8.7292595,5.741296
1570715117,-5.5641246,-7.1826053,2.3511062,-0.2077329,-0.09800732,0.9832691,-2.9975405,-16.587029,1.3215994
1570715117,0.80924016,-8.255207,-0.91937345,-1.4562609,1.043991,0.4847101,3.1986535,-17.683575,-2.1547816
1570715117,0.7374141,-5.161899,2.432509,-2.3180861,1.3646454,-0.5784562,3.1986535,-14.494497,0.7182605
1570715117,1.5466543,12.617443,7.0581064,-3.1149282,0.800038,-1.6117942,4.4484267,3.5577838,4.6686935
1570715117,-4.865018,30.277075,18.435352,-3.3098776,1.2943357,-2.8837588,-1.3790601,21.705833,15.179238
1570715117,-8.030152,26.283546,-7.067683,-2.2903883,1.172892,-2.877367,-3.620033,18.349161,-10.783484
1570715117,-11.200075,13.029245,5.5641246,-3.0946877,2.8518,-0.9395919,-5.3342814,9.021352,-4.1276035
1570715117,-14.757859,8.413225,5.0996494,-2.3585675,-1.8397678,-1.7108669,-9.299079,-2.4947581,4.3382936
1570715117,-11.722012,14.915876,8.154651,-0.57952154,1.5201787,-1.5681171,-7.2113357,8.0924015,2.9496565
1570715117,-4.414908,14.9063,0.23463176,-1.2474627,1.0035098,-0.9917914,0.12928689,9.385271,-3.2273839
1570715117,-0.10534488,6.8330517,0.7326257,-0.6072193,0.8980453,0.32385027,6.009446,1.661576,-4.912902
1570715117,0.9624691,3.3375173,5.1666875,0.7126837,0.5187996,1.5233747,6.5361705,-2.657564,0.6368576
1570715117,1.9153614,-3.074155,5.8226986,1.0812764,-0.15553336,2.253103,7.302315,-8.010999,1.2641385
1570715118,2.60968,-6.2105594,-0.8762778,1.3337518,-0.064983115,0.8021686,8.48984,-14.676456,-5.8705826
1570715118,-0.521936,0.89064306,2.7389667,0.7169448,0.16618632,-0.22051647,5.511452,-6.579266,-1.3120226
1570715118,-6.2584434,7.8865004,0.18674773,0.44849002,-1.8802491,-0.31745848,-0.22984336,-2.3942018,-2.6671407
1570715118,-18.090588,31.531637,3.169923,-0.27058542,-1.2314832,-1.0908641,-12.5504055,21.188684,-1.9967642
1570715118,-1.7764976,7.1395097,1.3742718,-0.8383887,-0.09694202,0.6402435,4.6495395,0.8810662,-4.060566
1570715118,-1.7717092,14.058752,6.3063273,2.0144765,-1.6299043,0.81282157,2.183512,6.0142345,3.5529952
1570715118,-4.295198,18.856733,3.3183637,1.5627906,-0.91295946,0.73612016,3.7828386,12.162544,-0.62728083
1570715118,-12.947843,16.328455,9.337387,2.1657486,-0.15872924,1.0312074,-9.32781,10.151415,4.4723687
1570715118,-5.3007627,10.477027,9.485827,2.231797,-1.3944737,1.7321728,-2.3463178,2.0254946,6.0860605
1570715118,-5.0374002,7.905654,9.045294,2.6430018,-1.0503827,1.3816901,-1.6184803,-0.78050977,6.042965
1570715118,-7.043741,4.9320555,4.831499,2.6089122,-0.26845482,0.64450467,-4.477157,-3.193865,2.6671407
1570715118,-5.1475334,1.13964,6.009446,1.9239262,0.019175345,0.98753023,-2.255338,-8.0684595,4.2760444
1570715118,-5.755661,-1.283292,6.220136,0.9118942,-0.20240642,1.2698339,-3.1986535,-10.649409,4.841076
1570715118,-4.6160207,-8.949526,0.78529817,-0.02769772,0.18003519,0.91828597,-2.3798366,-18.411411,-0.49320555
1570715118,2.0685902,-7.043741,-0.545878,-1.5915536,1.1015171,0.04154658,4.2281604,-16.486473,-2.0446482
1570715118,-0.15322891,-0.6512229,5.1762643,-2.3202167,1.1015171,-0.98966086,2.3415294,-11.535264,1.460463
1570715118,0.05267244,8.212111,5.209783,-2.1444428,0.42931467,-2.1646833,2.9257145,-0.79966336,2.6288335
1570715118,-4.060566,26.465506,15.069105,-4.0630426,1.9921052,-2.1401815,-0.58418524,17.908628,11.760319
1570715118,-11.45865,34.57706,-6.0860605,-2.0688066,0.92254716,-3.645446,-6.9623384,26.748022,-9.921572
1570715118,-14.379576,2.6001031,7.8529816,-2.877367,2.6131735,-0.75209963,-9.270349,-4.673482,3.7110126
1570715118,-11.377247,8.628703,8.231265,-1.6043372,-1.1494554,-1.5936842,-5.971139,1.8962077,3.572149
1570715118,-9.14585,17.793707,7.2687964,-0.204537,1.3497312,-1.610729,-3.074155,11.444284,2.552219
1570715118,-4.8937483,17.3005,-0.9816227,-1.2730298,0.77766675,-1.1579778,1.3215994,11.291056,-5.6120086
1570715118,-1.8243817,6.4164605,1.3120226,-0.52519137,0.29082605,0.39096397,4.4963107,0.61291564,-3.4332852
1570715118,-1.4269443,1.733402,4.4915223,1.3294905,0.4154658,1.5137869,4.9655743,-4.3478703,-0.07182605
1570715118,-1.3311762,-3.3518825,4.1659107,1.57877,0.42931467,1.6821039,4.5872903,-9.969456,0.0047884034
1570715118,0.41180268,-3.3518825,3.7014358,0.89165354,0.8266704,0.72014076,6.1770406,-10.299856,-0.110133275
1570715118,1.8435353,3.2800562,2.2840683,0.49855897,0.29082605,0.36965802,7.335834,-4.865018,-1.8052281
1570715118,0.9528923,3.5577838,-1.2593501,1.0589051,-0.82560515,0.22797355,7.52737,-3.5434184,-4.8841715
1570715118,-10.055647,16.103401,7.0820484,-0.059656627,-2.313825,-0.67220235,-8.623915,8.772355,3.4380736
1570715118,-3.217807,14.197616,5.4683566,-0.03089361,-0.3771151,-0.9097636,-2.5953147,12.981361,0.11492168
1570715119,-6.181829,7.6949644,7.8290396,-0.029828314,-0.57206446,0.7936462,0.5650316,-1.0773908,2.566584
1570715119,-6.5457473,9.782708,8.073248,0.43144527,-0.96835494,0.8426499,-1.1444284,2.6144683,4.1132383
1570715119,-6.5457473,9.782708,8.073248,0.43144527,-0.96835494,0.8426499,-1.1444284,2.6144683,4.1132383
1570715119,-6.1770406,11.784261,7.632715,0.9289389,-1.4946116,0.88313115,-1.1444284,2.6144683,4.1132383
1570715119,-7.216124,21.001938,1.6711528,1.8898368,-0.3494174,0.8234745,-1.5514427,11.535264,-6.0285997
1570715119,-11.501745,16.40507,8.197746,1.7193892,0.9917914,1.4083226,-8.240842,10.170568,2.1547816
1570715119,-5.4922986,11.511322,9.830592,2.0826554,-0.8085604,2.134855,-1.5705963,3.1986535,7.1586633
1570715119,-5.080496,6.799533,7.8386164,2.3287392,-0.74996907,1.6064677,-0.9720459,-0.6655881,6.4547677
1570715119,-6.9958572,3.6870706,4.606444,2.2616253,-0.15020686,0.5891092,-3.7062242,-4.817134,1.7717092
1570715119,-4.7740383,1.0247183,4.6255975,1.5350928,0.27058542,0.9108289,-1.4317327,-7.7667904,3.8307228
1570715119,-4.7644615,-2.1404164,3.7014358,0.4218576,0.07883197,1.2346791,-1.8339585,-10.405201,2.8538885
1570715119,-3.8163576,-8.552089,2.6671407,-0.8266704,0.5816521,0.7371855,-1.2162545,-16.883911,1.7238252
1570715119,1.5131354,-7.560889,0.7469909,-1.8940979,1.1249535,0.0692443,4.10845,-16.907852,-0.6751649
1570715119,0.5602432,-1.460463,3.9264908,-2.67283,1.241071,-1.0237503,3.5434184,-12.229582,1.7238252
1570715119,-0.19153613,14.374787,7.40766,-3.1053405,0.8671517,-1.9399058,3.371036,2.3702598,4.0653543
1570715119,-7.1347213,33.499672,15.519216,-2.4278116,1.0610358,-3.7903266,-2.4899697,24.631548,16.342821
1570715119,-8.42759,25.07208,-4.8841715,-2.2946496,2.109288,-2.1817281,-3.763685,20.197485,-11.085154
1570715119,-11.482592,-2.8107927,17.295713,-2.3031719,-0.36433154,-1.9399058,-5.506664,-9.313444,14.432248
1570715119,-16.486473,13.809755,5.9280434,-1.6117942,0.31319728,-1.5659865,-10.989386,6.588843,0.92416185
1570715119,-8.8777,15.093047,3.2561142,-0.527322,0.7840586,-1.2005897,-4.5537715,8.48984,-0.090979666
1570715119,-1.3072342,11.9853735,0.93373865,-1.2176344,0.67539823,-0.3813763,5.0900726,6.14831,-3.6583402
1570715119,-1.364695,4.7309427,1.7956513,-0.050068956,0.85862935,1.1100394,5.046977,-1.115698,-2.7629087
1570715119,1.9297266,1.0247183,4.477157,1.015228,0.4154658,2.3447185,8.101978,-5.2480903,0.15801731
1570715119,4.390966,-8.341399,-2.0685902,1.2282873,-0.5923051,1.8866409,10.070012,-15.160085,-6.229713
1570715119,0.59376204,-1.5562311,2.7150247,0.79045033,0.46233886,0.2077329,6.133945,-8.652645,-1.163582
1570715119,-4.285621,5.0613422,-1.4987702,0.46127358,-0.8660864,-0.21625528,1.2545617,-2.0685902,-5.315128
1570715119,-21.466412,31.18687,4.6399627,-0.30147904,-1.9537545,-1.8216578,-15.988479,24.152706,0.5506664
1570715119,-0.9959879,5.0134583,-1.532289,-0.6626147,-0.4953631,0.43464115,4.534618,-1.8339585,-5.841852
1570715119,-4.831499,14.350845,7.723695,1.6618632,-1.9974318,1.0578399,0.45489833,7.297527,3.41892
1570715119,-4.582502,17.774553,3.7493198,1.8855755,-0.48151422,0.4175964,0.37828386,10.362105,-0.32561144
1570715119,-12.53604,14.944607,10.16578,1.980387,0.4112046,1.036534,-7.7428484,7.2304893,6.4547677
1570715119,-5.6407394,9.595961,8.480263,2.0720026,-1.2250915,2.0858514,-2.2697031,1.8531121,5.650316
1570715119,-5.1666875,5.9902925,8.628703,2.2040994,-1.0514481,1.7950253,-0.5650316,-1.3024458,4.280833
1570715119,-7.40766,4.462792,3.217807,2.3148901,-0.15659864,0.6327864,-4.003105,-4.4244847,0.8619126
1570715119,-4.8027687,1.6998832,4.855441,2.077329,0.35474387,0.789385,-1.8914193,-7.1873937,2.4133554
1570715119,-3.8259344,0.7661445,6.4499793,1.1206924,-0.03728539,1.004575,-1.0199299,-8.580819,5.0421886
1570715120,-3.5003228,-7.651869,2.7341783,-0.1043991,0.12144385,1.0972558,-0.6991069,-15.35641,2.2409728
1570715120,1.6950948,-7.9631147,-1.7429788,-1.6054025,0.9672896,0.35793978,3.7780502,-18.133684,-2.6144683
1570715120,0.5746084,-4.084508,3.1268275,-2.2296665,1.0003139,-0.60934985,3.2561142,-14.523228,1.13964
1570715120,-0.02873042,11.104307,6.7133417,-2.848604,0.7265325,-1.6267084,2.0685902,-1.8291701,3.5625722
1570715120,-7.762002,31.440657,19.335573,-3.1117322,1.0088362,-2.6472628,-2.054225,19.64203,14.45619
1570715120,-7.1634517,24.20059,-6.9767036,-1.9889094,0.5113425,-2.4693582,-2.9017725,17.673998,-10.1226845
1570715120,-11.415554,10.788273,7.4507556,-2.6206305,2.2200787,-0.9619631,-5.3247046,5.2002063,-2.5809495
1570715120,-14.12579,9.155427,5.7365074,-1.434955,-1.6426879,-1.707671,-9.212888,0.023942016,3.4237084
1570715120,-12.215217,13.335704,5.7125654,-0.47512242,1.2868787,-1.5255052,-7.086837,6.50744,1.1923125
1570715120,-5.3199162,15.701175,1.0821792,-0.85010695,1.0248157,-1.0013791,-0.7182605,10.223241,-3.2752678
1570715120,-0.35434186,6.799533,1.4269443,-0.419727,0.50708133,0.33663383,5.511452,1.5658079,-4.333505
1570715120,0.110133275,3.6727054,4.9559975,0.7968421,0.57952154,1.5904883,5.78918,-2.2744915,0.21068975
1570715120,1.0869676,-2.6910827,5.48751,1.0099015,-0.064983115,2.1550958,6.26802,-7.785944,1.3694834
1570715120,1.292869,-6.588843,0.2777274,1.1835449,-0.33769912,0.8064298,6.8043213,-14.78659,-3.1747115
1570715120,-0.05746084,0.19153613,2.303222,0.8021686,0.61041516,-0.39522517,5.521029,-7.809886,-2.3511062
1570715120,-7.714118,8.039729,5.415684,0.3526133,-1.7609358,-0.7648832,0.076614454,-2.1404164,-1.4269443
1570715120,-7.216124,26.00103,1.9297266,-0.034089502,-1.0280116,-1.5745089,-9.969456,24.004267,-2.815581
1570715120,-3.3423057,7.2304893,3.7732618,-0.66794115,0.19921052,0.85543346,4.8698063,-2.0638018,-3.2273839
1570715120,-8.858546,15.418659,2.7724855,1.7385646,-1.5180482,0.8660864,-5.2528787,8.6813755,1.388637
1570715120,-5.7748146,19.934124,3.845088,1.4711751,0.0042611877,0.8319969,0.9576807,13.072341,-1.0055647
1570715120,-7.3310456,13.670892,12.876017,1.5595948,0.2759119,1.3465353,-2.705448,5.8801594,9.112331
1570715120,-5.3678,9.868899,9.246407,1.862139,-2.0720026,1.9505587,-1.3072342,1.6519991,5.746084
1570715120,-8.039729,5.7125654,7.1251445,2.1252675,-1.2368097,1.1963284,-4.548983,-2.882619,3.940856
1570715120,-8.595184,7.0724716,4.1802764,2.497056,0.017044751,0.62213343,-5.3438582,-1.8052281,1.5753847
1570715120,-4.5872903,2.8874073,7.101202,1.6650591,0.41226992,1.1963284,-1.5705963,-6.2249246,5.094861
1570715120,-4.55856,-0.90500826,4.6926355,0.8980453,-0.24501829,1.5127217,-1.9536686,-10.208876,3.0071173
1570715120,-2.7629087,-8.030152,1.9009962,0.014914157,0.53371376,0.8618252,-0.47884035,-17.439365,0.33997664
1570715120,0.49320555,-8.12592,0.6560113,-1.2495933,1.3284253,-0.06178722,2.7246015,-17.520767,-1.0342951
1570715120,1.4652514,-3.2800562,2.96881,-2.2946496,1.1153659,-1.2581156,3.9791632,-12.512098,0.8331822
1570715120,1.541866,6.813898,4.405331,-2.5300803,0.85756403,-2.0826554,4.477157,-2.0925324,1.6711528
1570715120,-4.807557,26.805483,18.406622,-4.207923,2.1764016,-2.2296665,-1.1061212,18.411411,14.930242
1570715120,-9.255983,29.27151,-7.1730285,-1.6458838,-0.6658106,-3.8020449,-4.5872903,21.634007,-11.18571
1570715120,-10.903194,10.6877165,2.5905263,-2.4065058,2.7708373,-1.2751604,-5.568913,3.667917,-1.70946
1570715121,-13.211205,3.7301662,13.623008,-2.160422,-2.0368478,-1.8216578,-7.0724716,-7.943961,11.33894
1570715121,-12.354081,16.49605,5.8562174,-0.7648832,0.9736814,-1.3156418,-7.216124,9.835381,1.1923125
1570715121,-5.746084,16.069881,-1.0582372,-1.1686307,1.3912778,-0.43464115,0.47405192,10.251971,-5.913678
1570715121,-3.2992098,3.7828386,2.3175871,-0.18962285,1.0514481,0.96089786,3.0262709,-1.958457,-2.4899697
1570715121,-0.82360536,1.5801731,7.1873937,1.2613115,0.54330146,1.6522756,4.912902,-4.0318356,2.3415294
1570715121,-0.61291564,-2.60968,3.4859576,1.704475,0.040481284,2.0645454,5.257667,-8.475474,0.5554548
1570715121,0.5363012,-3.1651347,2.5953147,1.1430637,0.7084225,1.2240262,5.5880666,-10.70687,-2.6384103
1570715121,2.2840683,3.0789435,4.841076,0.6839206,-0.30893612,0.39629045,7.651869,-4.879383,1.4077905
1570715121,0.45489833,2.777274,-0.272939,1.13028,-1.191002,0.04154658,6.9767036,-4.5441947,-2.944868
1570715121,-16.400282,17.530344,2.3223755,-0.60402334,-3.0201168,-0.6413088,-6.1004257,4.3478703,4.2904096
1570715121,-2.2840683,8.825027,4.5058875,-0.5582156,-0.53371376,0.29934844,0.4165911,7.651869,1.5131354
1570715121,-3.0502129,7.1395097,9.509769,0.5113425,-1.0525134,0.6828553,1.7477672,-2.528277,6.612785
1570715121,-5.3199162,20.09214,-3.6104562,1.8429637,-0.92574304,0.5262567,0.7613561,12.3876,-10.223241
1570715121,-12.631808,16.888699,5.329493,1.7896988,-0.6455699,1.0663623,-7.896077,10.658986,1.6519991
1570715121,-4.984728,9.624691,10.821792,2.160422,-0.96089786,1.4978075,-1.7142484,1.1731589,6.7324953
1570715121,-4.927267,10.108319,7.5561004,2.47575,-1.298597,1.0684928,-0.56982,1.757344,5.209783
1570715121,-9.653421,6.861782,5.4539914,2.4650972,-0.7755362,0.6253293,-6.5218053,-1.316811,3.083732
1570715121,-5.506664,1.4556746,4.8506527,1.9154038,-0.0085223755,0.8011033,-2.7341783,-7.785944,2.456451
1570715121,-5.425261,-0.5554548,7.809886,1.1782184,0.3771151,0.9577019,-3.0454245,-9.414001,5.48751
1570715121,-4.256891,-5.00867,6.2345014,0.36433154,0.14701098,0.9310695,-1.6903064,-14.393941,5.0374002
1570715121,1.9297266,-8.66701,-0.17238252,-1.3358823,0.8383887,0.37072334,3.2944214,-18.636467,-0.37828386
1570715121,1.1827357,-5.056554,1.8387469,-2.1540303,1.2027203,-0.3813763,3.5913026,-14.403518,0.12928689
1570715121,-0.05267244,9.509769,5.923255,-2.9157176,0.6796594,-1.5894231,2.585738,-2.8107927,2.9975405
1570715121,-4.1180267,25.16306,16.486473,-3.627336,1.56066,-2.0293906,-0.81402856,16.472107,13.350069
1570715121,-7.503428,26.465506,-3.9983168,-1.8195271,0.36965802,-3.1117322,-3.2992098,18.377892,-7.627927
1570715121,-9.208099,11.286267,8.748413,-2.4906642,2.4565747,-1.1036476,-4.357447,6.631939,0.08140286
1570715121,-11.262324,5.353435,11.84651,-1.8940979,-1.7609358,-1.728977,-6.05733,-1.733402,7.503428
1570715121,-13.302185,13.852851,4.9895163,-1.3007276,1.0876682,-1.5649211,-7.7811556,7.2592196,0.2681506
1570715121,-7.690176,17.128119,-0.06703765,-1.1206924,1.0706234,-1.374233,-1.7238252,10.936713,-4.783615
1570715121,-0.8523358,9.222465,1.1109096,-0.89165354,0.93426543,-0.3142626,5.391742,3.3518825,-3.6583402
1570715121,-0.9576807,3.7972038,5.9663506,0.46127358,0.7339896,0.8618252,5.3247046,-2.1547816,1.3599066
1570715121,0.22505496,1.661576,3.9025488,1.0109668,0.31106672,1.6916915,6.301539,-4.663905,-0.46926352
1570715121,-0.20590134,-4.5920787,-0.15801731,1.266638,0.47512242,1.3635801,5.5976434,-11.348516,-4.2521024
1570715121,1.283292,-0.92416185,2.3080103,1.1260189,-0.23010413,0.5283873,6.933608,-7.9726915,-1.4987702
1570715122,-0.51235914,0.770933,0.91458505,0.6359823,-0.68179005,0.22264706,5.0134583,-6.435614,-2.777274
1570715122,-9.859323,11.597513,3.6535518,0.8852618,-2.6216958,0.3078708,-4.5537715,4.261679,-0.11971009
1570715122,-6.277597,20.642807,5.3965306,-0.113986775,0.8011033,-2.0688066,-0.80445176,13.570335,1.364695
1570715122,3.7732618,3.0023289,7.5082164,-0.85117227,0.2769772,0.7382508,6.71813,-2.6719291,3.3566709
1570715122,-5.434838,15.547946,1.6041151,1.8216578,-2.5034478,0.8522375,-0.2873042,8.331821,-2.5953147
1570715122,-9.749189,20.446482,5.6982,1.4413468,-0.98966086,0.15233746,-2.4756045,13.192051,0.866701
1570715122,-10.433931,13.364434,10.132261,1.8930327,0.527322,1.3731678,-7.9248075,7.5944076,4.1371803
1570715122,-3.9025488,10.989386,8.192958,2.407571,-1.1462595,2.1572263,-0.25857377,2.6671407,4.8698063
1570715122,-7.0102224,6.861782,7.038953,2.5503209,-0.4857754,1.6054025,-2.0685902,-1.532289,6.0285997
1570715122,-7.824251,4.9081135,5.8466406,2.4523137,0.17896989,0.8138869,-4.6591167,-2.4468741,4.8698063
1570715122,-6.291962,0.31124622,6.5026517,1.2282873,0.42824936,0.9118942,-2.8921957,-8.863335,5.0278234
1570715122,-3.9073372,-2.4277205,5.243302,0.39522517,0.1043991,0.8810006,-1.1348516,-10.793061,4.4963107
1570715122,-1.4700398,-7.4842744,1.2641385,-0.9768773,0.800038,0.66900647,0.82360536,-16.385916,0.46926352
1570715122,-0.08619126,-6.8091097,-0.10055647,-2.2861273,1.4828933,0.21518998,2.6671407,-16.103401,-1.6376339
1570715122,0.81881696,-0.866701,2.5474305,-2.707985,1.3390783,-0.71055305,3.289633,-11.616667,0.23942018
1570715122,-0.7422025,14.178462,9.045294,-3.4345174,1.2261568,-1.5361582,2.4708161,0.62728083,5.0182467
1570715122,-6.2871737,30.727184,12.885593,-1.9953011,0.6881818,-3.8009794,-1.733402,23.266851,14.317327
1570715122,-7.5465236,19.560627,-4.2760444,-2.1146145,1.718324,-1.7332381,-2.930503,14.116213,-10.247183
1570715122,-10.548853,0.90500826,14.235924,-2.2126217,-0.42931467,-1.5446806,-5.535394,-7.350199,14.058752
1570715122,-16.668432,16.582241,7.7332716,-1.707671,0.46446946,-1.5947496,-10.7356,8.576031,2.2218192
1570715122,-11.540052,15.777789,1.6663644,-0.4932325,0.43890235,-1.2538545,-7.2304893,9.409213,-1.4030021
1570715122,-4.0222588,10.055647,0.9911995,-0.82880104,1.2559851,-0.4431635,2.0590134,5.473145,-5.00867
1570715122,-0.545878,3.620033,5.2289367,0.60082746,0.7723403,0.72759783,5.6120086,-1.5945383,-0.16280572
1570715122,1.7956513,2.4756045,4.6255975,1.3422742,-0.046873067,1.8035477,7.642292,-3.2130187,0.7469909
1570715122,3.8307228,-4.8123455,-0.320823,1.1217576,-0.4452941,2.0229988,9.260772,-10.414778,-1.8818425
1570715122,1.6998832,-3.1986535,0.9672575,1.4456079,0.0031958907,0.6658106,7.029376,-10.395624,-3.0214825
1570715122,-1.6663644,0.19153613,3.8259344,0.7265325,-0.24608359,-0.37498453,3.6583402,-7.129933,0.05746084
1570715122,-20.57577,18.033127,5.12838,-0.8660864,-2.453379,-1.416845,-10.644621,4.333505,3.2848446
1570715122,0.07182605,17.051504,1.2018893,-0.5731298,-1.2655728,-0.868217,5.554548,10.151415,-3.098097
1570715122,-3.572149,8.5473,9.255983,-0.40694344,0.20240642,1.3476006,1.685518,1.6519991,4.673482
1570715122,-6.3350577,15.069105,2.8874073,2.030456,-2.0581536,0.6988348,-1.5035586,7.800309,-1.5849615
1570715122,-9.519346,20.30762,4.903325,1.4988728,0.30041373,0.37604982,-4.879383,12.789825,0.641646
1570715122,-6.871359,13.484144,8.403648,1.9356445,-0.122509144,1.8717268,-2.504335,5.568913,4.5872903
1570715123,-4.510676,7.8290396,8.973468,2.245646,-1.3124459,2.1870546,-0.78529817,-0.5746084,5.5641246
1570715123,-8.101978,5.779603,6.133945,2.4927948,-0.78299326,1.036534,-4.865018,-3.016694,3.2513258
1570715123,-6.066907,5.0661306,4.927267,2.274409,-0.067113705,0.7254672,-3.0502129,-3.9839516,2.657564
1570715123,-4.759673,1.13964,5.8322754,1.4189755,0.25247538,0.9577019,-2.0925324,-8.09719,4.0797195
1570715123,-5.659893,-3.4237084,4.4915223,0.60934985,0.16512102,1.0578399,-3.1507695,-12.785037,3.0119057
1570715123,-3.5577838,-7.627927,1.3934253,-0.13529271,0.5614115,1.0088362,-1.8579005,-16.539145,-0.29688102
1570715123,1.3694834,-7.335834,0.45010993,-1.6117942,1.3635801,0.4239882,3.0550013,-17.123331,-1.8052281
1570715123,0.63206923,2.9352913,2.0829554,-2.625957,1.2868787,-1.122823,2.992752,-6.315904,-0.14844051
1570715123,0.37349546,22.467188,13.383588,-3.5559611,0.839454,-2.0208683,3.2369606,13.603854,10.314221
1570715123,-5.57849,25.474306,2.2744915,-1.0312074,-0.33556855,-3.9937983,-1.7477672,17.190369,-1.316811
1570715123,-7.240066,18.80885,-0.35434186,-1.9931706,1.9953011,-2.1284633,-2.2936451,11.9853735,-7.0102224
1570715123,-15.691598,5.683835,18.751389,-2.3266084,-0.33130735,-1.2602463,-9.825804,-0.16759412,15.978902
1570715123,-15.95496,13.431472,2.5953147,-1.5201787,0.82560515,-1.7193892,-11.15698,6.0381765,-3.1986535
1570715123,-7.07726,15.562311,1.6519991,-0.6785942,0.82880104,-1.4413468,-3.5242648,9.093178,-2.006341
1570715123,0.01436521,11.066,2.1260512,-0.7467731,1.1260189,-0.5528891,5.4300494,5.592855,-2.5953147
1570715123,0.6512229,3.5338416,3.8355112,0.36433154,0.99285674,0.7755362,6.7803793,-1.9728222,-1.412579
1570715123,3.667917,1.6807296,3.442862,1.2048508,-0.1725781,1.8919674,9.619903,-4.027047,-0.5793968
1570715123,3.5434184,-6.8282633,-1.7142484,1.2250915,-0.85010695,1.6490797,9.533711,-12.521675,-4.663905
1570715123,-1.364695,-1.6711528,2.2266076,1.3806248,0.26845482,0.088419646,5.0757074,-9.112331,-2.3702598
1570715123,-5.3199162,0.9528923,3.5577838,0.26312834,-0.3163932,-0.75316495,0.6703765,-6.6654577,0.6512229
1570715123,-11.559206,15.433024,3.892972,0.42505348,-2.9285014,-0.50068957,-3.964798,4.793192,-3.1842883
1570715123,0.19153613,21.011515,4.8027687,-1.0024444,0.13422741,-0.5614115,-0.9864111,22.309172,-0.60812724
1570715123,-6.0621185,0.20111294,9.524135,0.1043991,0.65196174,0.7670138,1.7525556,-6.066907,2.7102363
1570715123,-3.0789435,16.46732,3.3997664,1.9963665,-2.63661,0.06178722,1.9488802,6.6750345,2.3080103
1570715123,-11.664551,25.421633,7.302315,1.2027203,-0.026632423,0.8096257,-5.511452,18.100164,1.0726024
1570715123,-9.006987,10.424355,8.12592,1.6331002,0.033024207,1.959081,-5.4922986,4.2760444,3.490746
1570715123,-5.0421886,7.2783732,6.1004257,2.3915915,-1.1366718,1.5883577,-1.5945383,-0.19632454,6.0381765
1570715123,-4.1371803,5.6215854,6.564901,2.7857516,-0.36113566,0.5518238,-0.40701428,-2.6767175,3.845088
1570715123,-6.9048777,3.4572272,6.411672,1.8919674,0.15553336,0.5219955,-3.4572272,-5.12838,4.237737
1570715123,-6.4739213,0.79008657,6.9240313,1.0855376,0.10866029,1.0738193,-3.1507695,-8.288726,5.281609
1570715123,-4.6686935,-3.4093432,3.7445314,0.26099774,-0.16192514,1.140933,-1.6711528,-12.6222315,2.2409728
1570715123,-2.3319526,-8.6574335,1.1492168,-0.68498594,0.9960526,0.44103295,0.46926352,-17.927782,-0.37349546
1570715123,-0.47884035,-6.7947445,1.7956513,-1.8418984,1.6821039,-0.53264844,2.432509,-15.98369,0.0047884034
1570715124,1.4317327,-0.33997664,3.6631286,-2.3702857,1.1995244,-1.5329623,4.735731,-9.289502,1.3982137
1570715124,-2.2218192,16.687586,8.935161,-3.307747,1.0972558,-1.9622769,1.6567876,8.145074,6.0716953
1570715124,-10.649409,37.58418,12.11466,-1.5521376,1.1515859,-3.5666142,-5.899313,29.731197,8.652645
1570715124,-5.985504,13.579912,-4.8937483,-2.3489797,1.6874304,-0.6231987,-0.7422025,6.1866174,-8.643068
1570715124,-10.6637745,3.2321723,6.8569937,-2.551386,-1.1356065,-1.7438911,-5.1140146,-3.6631286,2.633622
1570715124,-13.575124,16.28536,11.468226,-0.8234745,1.5979455,-1.3518618,-7.6710224,9.864111,6.981492
1570715124,-8.159439,16.409859,0.30645782,-0.88845766,0.2428877,-0.595501,-1.9919758,10.218452,-4.1515455
1570715124,-2.078167,7.776367,-0.4309563,-0.64663523,1.0024444,0.2109288,4.1946416,1.7429788,-4.9464207
1570715124,-1.5514427,4.1132383,6.14831,0.9278736,0.721206,1.1473248,4.6926355,-2.1164744,1.8674773
1570715124,0.19153613,-0.1436521,5.813122,1.11217,-0.35793978,2.1050267,6.1004257,-6.83784,1.7621324
1570715124,2.834735,-8.307879,-3.0502129,0.7244019,-0.31532788,1.3049887,8.303091,-15.404294,-7.0245876
1570715124,1.7717092,-1.9967642,3.8786068,0.5976316,0.60082746,-0.2428877,7.2448545,-9.232041,0.16280572
1570715124,-3.1411927,2.2744915,-1.2737153,0.3845722,-0.99392205,-0.556085,1.5945383,-4.912902,-4.951209
1570715124,-29.137434,42.01345,2.8778305,-0.67220235,-1.219765,-1.5169828,-23.659502,34.96971,-1.1923125
1570715124,0.02873042,6.05733,-1.70946,-0.8618252,0.64450467,1.0738193,5.554548,-0.8619126,-5.913678
1570715124,-2.111686,12.349293,8.801085,1.4839586,-0.7680791,1.2495933,3.2369606,2.777274,5.1666875
1570715124,-2.8874073,20.446482,1.1683705,1.2740952,-0.6594188,0.61787224,3.2513258,11.803414,-4.003105
1570715124,-14.302961,15.868769,8.288726,1.9431016,0.16192514,1.3880819,-10.362105,9.356541,3.6104562
1570715124,-3.9839516,10.395624,8.504205,1.6512103,-1.0844723,2.5236886,-1.1061212,2.0350714,5.1666875
1570715124,-3.8115692,5.5401826,6.0525417,2.4693582,-0.87567407,1.7683929,-0.05746084,-1.7190368,3.596091
1570715124,-4.3861775,2.3558946,4.271256,2.4214199,-0.122509144,0.35687447,-0.8810662,-6.555324,2.1547816
1570715124,-6.0142345,-0.320823,7.1251445,1.1846102,-0.19707993,0.7254672,-2.719813,-8.647857,5.363012
1570715124,-5.4539914,-3.6966474,3.064578,-0.046873067,-0.5518238,0.6999001,-2.7485435,-12.899959,1.8483237
1570715124,-4.2281604,-5.731719,1.067814,-0.9012412,0.61361104,0.43570644,-2.030283,-14.719552,-0.20111294
1570715124,-1.5658079,-4.122815,0.7278373,-1.5830313,1.6959528,-0.054330144,0.78529817,-13.972561,-2.5378537
1570715124,2.1883004,0.94331545,3.845088,-1.7502829,1.4147143,-0.9332001,4.5441947,-9.208099,0.9672575
1570715124,3.9504328,11.616667,7.929596,-2.4778807,0.19388404,-1.6703856,7.192182,0.30166942,5.463568
1570715124,-8.250419,31.40235,13.55597,-3.1404953,0.73612016,-3.809502,-2.0973208,21.65316,12.401965
1570715124,-10.132261,23.472754,-5.1140146,-1.4956769,1.0919293,-1.9431016,-5.267244,18.689138,-8.542512
1570715124,-12.248735,-4.1036615,20.863073,-1.8099395,0.43570644,-1.0908641,-6.0381765,-9.121908,13.201628
1570715124,-16.060305,14.422671,5.8226986,-1.9697341,-0.76168734,-1.7502829,-10.539276,7.752425,1.2114661
1570715124,-12.042834,17.137695,2.7581203,-0.18323107,1.0301422,-1.3071194,-7.029376,11.152191,-0.20590134
1570715124,-3.8881836,9.509769,-1.5179238,-1.0684928,1.1451942,-0.41440052,1.2641385,5.2049947,-6.8091097
1570715124,0.076614454,5.2768207,6.540959,0.31532788,0.8596946,0.8383887,6.1243677,0.22984336,0.93373865
1570715125,1.9249382,3.3423057,4.429273,0.89698005,-0.25460598,1.8003519,7.991845,-2.7820623,1.283292
1570715125,1.4796166,-1.3694834,1.6807296,1.1718266,-0.25247538,2.1806629,7.2927384,-8.130709,-2.3894134
1570715125,-0.58418524,-6.7708025,0.6703765,1.5702477,0.25780186,0.9960526,4.8698063,-13.977349,-3.1268275
1570715125,-1.7908629,-1.1013328,4.414908,0.5891092,0.47512242,0.07244019,3.6152446,-8.48984,0.90021986
1570715125,-3.7062242,4.3287168,-0.8571242,0.2791078,-0.49642837,-0.4932325,1.7621324,-3.0310593,-4.3287168
1570715125,-20.776882,32.407913,-0.47405192,-0.4175964,-1.8461596,-1.3625147,-15.298949,25.187002,-4.2281604
1570715125,-0.8762778,7.97748,2.0590134,-1.2698339,0.5475626,1.1590431,4.548983,0.8762778,-1.982399
1570715125,-4.3047748,13.062764,6.133945,1.5649211,-1.4328244,0.9768773,0.8762778,5.7269306,2.1883004
1570715125,-1.70946,18.751389,3.083732,1.1665001,0.005326485,0.8479764,3.1842883,11.133038,-0.6799533
1570715125,-11.03727,14.231135,7.8290396,1.2900746,-0.15340276,1.5010034,-6.4020953,6.325481,4.31914
1570715125,-5.0900726,8.51857,7.1969705,1.7438911,-1.180349,1.6884956,-0.9672575,0.22984336,3.9504328
1570715125,-6.14831,5.439626,5.2768207,2.1774669,-0.7584914,0.9193513,-2.4468741,-3.1794999,2.4133554
1570715125,-7.326257,6.5696893,3.5913026,2.1806629,-0.036220096,0.56354207,-3.8019924,-2.2840683,1.283292
1570715125,-5.5401826,3.2082303,4.8267107,1.5276358,0.32704616,0.9374613,-2.3989902,-5.386954,2.5617957
1570715125,-4.9320555,0.7565677,4.711789,0.7627526,0.029828314,1.3625147,-1.4556746,-8.0924015,4.951209
1570715125,-3.5769374,-7.240066,1.532289,-0.02130594,-0.011718267,1.0961906,-0.9576807,-16.572664,0.05746084
1570715125,1.2401965,-9.471462,-0.05746084,-1.1366718,0.6583535,0.2056023,2.8778305,-19.503166,-0.48362875
1570715125,0.20590134,0.062249243,2.135628,-2.3372614,0.8053645,-1.2037855,2.9400797,-9.107543,0.0047884034
1570715125,1.1731589,17.03235,7.872135,-3.375926,0.5816521,-1.4136491,3.8402996,4.6351743,4.4819455
1570715125,-6.7229185,30.257921,10.635044,-2.077329,0.15233746,-3.6262708,-2.9113493,22.424093,12.042834
1570715125,-6.7468605,19.934124,-4.8362875,-1.9462975,1.1164312,-1.8078089,-2.6240451,14.144943,-10.132261
1570715125,-11.803414,8.461109,11.190498,-2.3393922,1.0748847,-0.9374613,-5.602432,2.0015526,4.9559975
1570715125,-12.066776,12.23437,4.582502,-1.7449564,-0.64663523,-1.7406952,-7.0964136,4.309563,1.6089035
1570715125,-11.611878,14.269443,2.6623523,-0.886327,1.2762257,-1.4946116,-6.291962,7.120356,-1.0582372
1570715125,-4.381389,13.800179,0.25857377,-1.1601083,1.0450563,-0.9321348,0.34955344,8.475474,-4.7500963
1570715125,-0.35913026,7.2592196,4.189853,-0.25247538,0.63917816,0.28123838,5.650316,2.2505496,-0.9624691
1570715125,0.91937345,4.185065,4.644751,0.55075854,-0.04154658,1.2708993,6.3925185,-1.5945383,0.5650316
1570715125,3.2273839,1.9776106,2.0685902,1.1952631,-0.4911019,1.9750605,8.743625,-3.6822822,-2.1739352
1570715125,1.1683705,-4.367024,3.145981,1.8365719,-0.7307937,1.5201787,6.5026517,-11.027693,-2.5761611
1570715125,-2.087744,-0.62728083,2.6431987,1.2623769,-0.56993383,0.5262567,3.3423057,-8.576031,-1.8339585
1570715125,-4.807557,2.078167,3.6296098,0.6839206,-0.49429777,-0.23330003,0.56982,-5.923255,0.61291564
1570715125,-11.573571,11.908759,1.5705963,1.1441289,-3.1756501,-0.2109288,-3.2800562,3.2848446,-1.4700398
1570715125,-3.3135753,23.147142,6.981492,-0.2098635,0.60189277,-0.8714129,-6.133945,26.264393,0.8571242
1570715126,-2.3463178,4.3478703,9.136273,-0.122509144,-0.018110048,0.6317211,4.4244847,-3.1651347,3.5529952
1570715126,-1.5849615,13.603854,-2.2984335,1.7843723,-2.4736195,0.20240642,2.9017725,5.913678,-6.4164605
1570715126,-9.639056,21.14559,7.503428,0.839454,-0.8362581,0.47405714,-5.3342814,13.268666,3.5434184
1570715126,-6.83784,11.128249,6.445191,1.7438911,-0.5901745,1.3135111,-2.8538885,2.954445,2.7629087
1570715126,-4.1802764,7.0820484,7.019799,2.4672277,-1.2112426,0.9353307,-0.61291564,-1.1013328,4.185065
1570715126,-5.118803,5.535394,5.0134583,2.4214199,-0.5933704,0.25673655,-1.5562311,-3.1411927,1.6903064
1570715126,-6.143522,3.394978,5.0374002,1.9079468,-0.3100014,0.36646214,-2.944868,-5.60722,2.8203697
1570715126,-7.216124,0.94810385,6.4739213,0.975812,0.26525894,0.78299326,-4.1802764,-8.197746,4.6495395
1570715126,-4.4915223,-4.6399627,4.55856,-0.03089361,0.092680834,0.56247675,-1.6472107,-13.867216,2.8538885
1570715126,-1.7190368,-5.568913,3.2465374,-1.1878061,0.53371376,0.07244019,1.0534488,-14.78659,1.3838485
1570715126,0.0047884034,-3.5051112,2.1260512,-1.8791838,0.9055024,-0.47618774,2.882619,-12.603078,-0.12449849
1570715126,0.9624691,2.408567,1.5179238,-1.7353687,0.67326766,-1.2368097,4.146757,-6.469133,-1.1540052
1570715126,-1.8722657,20.987572,7.953538,-2.4619012,0.15659864,-1.9452322,1.8100165,12.454638,4.8219223
1570715126,-10.342952,34.174835,6.8043213,-1.474371,0.07776668,-2.726095,-5.9759274,26.202143,3.1172507
1570715126,-9.3421755,11.099519,-3.6152446,-2.5993245,2.7165072,-0.52519137,-4.534618,3.5529952,-7.6375036
1570715126,-12.449849,1.0199299,8.456321,-1.9814523,-1.14839,-1.6458838,-7.2783732,-6.0477533,4.0414124
1570715126,-12.430696,14.513651,8.992621,-0.8053645,0.85756403,-1.5478765,-6.9383965,7.8865004,4.285621
1570715126,-8.422802,19.31163,1.2976574,-0.49642837,0.789385,-1.0130974,-2.566584,12.933477,-3.3039982
1570715126,-2.0254946,9.557653,-2.5139117,-0.8564987,0.81175625,-0.22797355,4.0414124,3.4237084,-7.1730285
1570715126,-0.91937345,5.2959743,5.932832,0.49216717,0.7563608,0.89698005,5.1810527,-0.92416185,1.436521
1570715126,-0.21547815,1.9297266,5.1762643,1.2453321,-0.574195,1.628839,5.616797,-4.663905,0.8619126
1570715126,-0.47405192,-3.3087866,1.70946,1.13028,-0.60828453,1.4828933,5.2720323,-8.973468,-0.89064306
1570715126,-1.5945383,-3.3183637,1.6519991,0.92041653,0.36965802,0.33556855,3.7205894,-11.899182,-2.2457612
1570715126,-0.15322891,0.05746084,4.381389,0.4857754,0.12144385,-0.26419365,4.9176903,-7.321469,0.37828386
1570715126,-2.0733786,6.7851677,-2.7964275,0.8298663,-1.5116564,-0.26525894,3.4811692,-3.7588966,-5.7269306
1570715126,-18.2917,30.157364,3.2609026,-0.818148,-0.32385027,-1.316707,-14.757859,21.509508,-1.292869
1570715126,-2.9735985,6.493075,4.8267107,-0.41226992,0.81495214,0.2066676,3.1794999,-1.2785037,-1.2210429
1570715126,-2.9592333,17.81765,4.036624,1.1686307,-1.7811764,0.81069094,1.5993267,9.80665,1.8387469
1570715126,-6.2392898,19.263746,5.0134583,1.3199029,-0.23330003,0.6370476,2.1930888,12.516887,0.50278234
1570715126,-10.251971,11.046846,7.6375036,1.5382888,0.25141007,1.2059162,-6.2632318,4.4196963,4.237737
1570715126,-4.185065,11.717223,7.1155677,1.9899746,-0.8341275,1.6884956,-0.21547815,3.4572272,4.6351743
1570715126,-5.0757074,7.97748,6.0525417,2.145508,-0.85436815,1.5734435,-0.5315128,-0.06703765,3.0310593
1570715126,-6.6415157,5.195418,3.9073372,1.9782565,-0.3419603,0.82134396,-3.2848446,-2.9113493,0.7326257
1570715127,-5.5880666,1.8531121,6.066907,1.6810386,0.3792457,0.57739097,-2.2840683,-6.6893997,3.3806129
1570715127,-6.2584434,-1.436521,6.5361705,0.84158456,0.29934844,0.6785942,-2.6719291,-9.758766,6.38773
1570715127,-3.098097,-4.572925,3.265691,-0.02769772,0.20240642,0.556085,-0.8523358,-12.933477,2.6144683
1570715127,0.110133275,-5.33907,1.8674773,-1.1089741,0.3494174,0.28869548,3.122039,-14.551958,0.39743748
1570715127,0.6991069,-3.0597897,1.5801731,-1.8323107,0.67326766,-0.40587813,3.8307228,-12.449849,-1.6184803
1570715127,-1.4939818,7.0485296,8.106767,-1.9473628,-0.2077329,-1.8568126,1.8243817,-5.7029886,3.9312792
1570715127,-6.0285997,29.443893,16.122555,-3.935207,1.0716888,-2.2935843,-2.1691468,20.968418,13.043611
1570715127,-10.342952,29.889214,-6.9527617,-1.7374994,1.3976696,-1.8418984,-5.6982,22.026655,-10.534488
1570715127,-10.012551,-8.379706,15.485697,-2.6983972,0.5646074,-1.2836828,-4.8841715,-12.492945,13.067553
1570715127,-13.13459,9.629479,3.7828386,-2.3511102,-0.3419603,-1.5478765,-7.762002,2.7724855,-0.7230489
1570715127,-13.713987,16.510414,7.560889,-0.44635943,1.6852998,-1.2144386,-7.8386164,10.0748005,3.0550013
1570715127,-4.1946416,14.882358,-2.0398598,-1.8994244,0.74464256,-0.2780425,1.958457,8.7292595,-6.5601125
1570715127,0.37828386,6.703765,2.0829554,-0.8277357,1.4860892,0.99818325,5.971139,-0.521936,-0.9528923
1570715127,-0.110133275,2.4516625,5.109226,0.818148,0.36965802,1.9026203,5.971139,-3.9217024,0.79966336
1570715127,-0.6368576,-1.6041151,2.542642,1.1430637,-0.25141007,1.8536167,5.056554,-8.470686,-1.5227122
1570715127,-1.6519991,-0.45010993,3.2848446,0.9118942,0.487906,0.5816521,3.821146,-7.6375036,-0.51714754
1570715127,1.0534488,3.7253778,6.6271505,0.5891092,-0.29828313,-0.07670138,6.5122285,-3.5577838,2.9831753
1570715127,0.30166942,3.169923,-1.460463,0.98433435,-0.99285674,0.34089503,5.645528,-4.2042184,-5.094861
1570715127,-23.740904,31.22039,0.92416185,-1.2037855,-1.0652969,-1.5180482,-18.679562,23.793577,-2.9975405
1570715127,-4.687847,10.328587,4.285621,-0.011718267,0.1395539,0.031958908,0.50278234,3.0071173,0.33039984
1570715127,-1.5131354,8.791509,9.351752,0.57632565,-1.2954011,1.0194892,3.5290532,1.3551182,5.4204726
1570715127,-1.2066777,21.236568,2.3654714,1.6916915,-0.43464115,0.5230608,3.4476504,13.52724,-1.5179238
1570715127,-10.965444,13.924677,6.4643445,1.3912778,-0.3845722,0.9949873,-6.555324,5.9567738,2.815581
1570715127,-4.582502,9.552865,7.489063,2.001693,-1.3028581,1.4498692,-0.58418524,1.2258313,4.1802764
1570715127,-3.98874,9.088389,6.3350577,2.425681,-1.3390783,0.7638179,-0.07182605,0.9720459,3.8594532
1570715127,-6.799533,5.7125654,5.209783,2.3084984,-0.6498311,0.29828313,-3.3518825,-3.1651347,2.873042
1570715127,-6.5744777,2.657564,6.1243677,1.6821039,-0.17151281,0.6626147,-3.2273839,-6.1195793,3.7732618
1570715127,-6.7085533,0.12928689,5.884948,0.8905882,-0.0074570784,0.9917914,-3.7445314,-8.236053,4.2281604
1570715127,-4.0701427,-5.195418,5.7365074,0.24608359,-0.06285252,1.0418605,-2.6527755,-13.086706,2.4851813
1570715127,0.090979666,-8.149862,-0.009576807,-1.1036476,0.32704616,0.43996763,1.7477672,-17.836803,-0.33039984
1570715127,0.60333884,-3.7205894,1.982399,-2.0869167,1.015228,-0.73931605,3.572149,-13.977349,-0.6703765
1570715127,-0.18195933,9.059659,4.295198,-2.6920054,0.7797974,-1.7002139,2.8874073,-2.9496565,1.2210429
1570715127,-5.9519854,24.68422,16.510414,-3.878746,1.5361582,-1.8205925,0.5746084,12.761095,10.443508
1570715127,-8.714894,27.509378,-5.6886234,-1.5798354,0.10120321,-3.0989487,-3.9121256,20.896593,-5.415684
1570715128,-9.385271,10.486604,5.8705826,-2.327674,2.4022446,-0.8703476,-3.596091,6.933608,-2.2840683
1570715128,-13.297397,7.043741,6.019023,-2.127398,-1.2900746,-1.4786321,-7.422025,-3.2704794,5.626374
1570715128,-12.65575,13.742718,5.66947,-0.936396,1.3369477,-1.3262947,-7.398083,6.991069,1.8052281
1570715128,-5.161899,17.142485,-0.40701428,-0.91828597,1.3976696,-0.8810006,-0.22505496,10.472239,-6.4547677
1570715128,-0.36870706,7.6614456,3.1364043,-0.71161836,0.8224092,0.22051647,5.3965306,3.0214825,-2.6240451
1570715128,-0.090979666,3.6966474,5.48751,0.506016,0.02450183,1.3774289,5.7843914,-1.8962077,1.4700398
1570715128,1.0055647,-0.36870706,2.825158,1.2144386,-0.53371376,1.8685309,6.50744,-5.7365074,-0.78529817
1570715128,-0.17717093,-5.0613422,3.5769374,1.56066,-0.19814523,0.8085604,4.817134,-12.5982895,-2.4372973
1570715128,0.12928689,1.1061212,3.3614593,0.9150901,-0.18323107,0.3142626,5.2528787,-6.129156,-1.364695
1570715128,-0.842759,3.145981,0.7613561,0.7979074,-0.4452941,0.19068815,4.381389,-4.1611223,-3.169923
1570715128,-20.020315,21.16953,0.8714894,-0.19068815,-2.697332,-0.68179005,-9.77792,8.508993,0.30645782
1570715128,-2.681506,11.8896055,5.521029,-0.68072474,0.28336897,-0.31958908,2.4468741,4.6399627,1.3551182
1570715128,-4.4580035,5.9184666,8.528147,0.29508725,-0.18323107,0.5933704,0.6368576,-1.316811,4.309563
1570715128,-2.7150247,18.033127,-2.72939,1.6096637,-1.7737194,0.07776668,2.0398598,10.55843,-6.933608
1570715128,-10.821792,17.329231,5.3199162,1.172892,-0.30254433,0.98859555,-6.2392898,9.639056,1.3072342
1570715128,-5.3725886,7.8146744,7.6470804,1.7556094,-0.5582156,1.3880819,-1.1204864,-0.22984336,3.9839516
1570715128,-1.5370775,8.5473,6.5984197,2.6291528,-0.98859555,1.1995244,2.2936451,0.10055647,3.4093432
1570715128,-6.2009826,8.288726,5.48751,2.2722783,-0.7797974,0.5912398,-2.6623523,-0.45968673,2.8299465
1570715128,-7.345411,3.4332852,6.3589997,1.8717268,-0.2109288,0.60934985,-3.98874,-5.5258174,4.2042184
1570715128,-7.2687964,-1.1204864,6.823475,0.965159,0.26632422,0.9140248,-4.1276035,-10.237606,5.0421886
1570715128,-3.2704794,-3.7828386,3.3135753,0.0031958907,0.43783703,0.7936462,-0.34955344,-13.000515,1.685518
1570715128,-1.2641385,-5.889736,2.8443117,-1.6320349,0.56354207,0.26738954,1.5370775,-15.102624,1.0055647
1570715128,0.6703765,-4.548983,1.9249382,-2.3116944,0.81921333,-0.37285393,3.5338416,-13.623008,-0.4357447
1570715128,0.46447513,1.4317327,2.4133554,-2.468293,0.7691444,-1.3358823,3.845088,-9.045294,-0.6607997
1570715128,-4.572925,25.378538,11.765107,-3.4632804,1.0908641,-1.9644076,0.7182605,12.239159,5.659893
1570715128,-9.23683,26.388891,-3.217807,-0.83306223,0.30041373,-2.1806629,-4.7070007,18.631678,-7.1586633
1570715128,-8.767567,8.829816,5.080496,-2.2179482,2.3777428,-0.50068957,-3.3614593,5.2480903,-5.3438582
1570715128,-14.920665,8.930372,5.602432,-2.3074331,-1.3071194,-1.4104532,-8.274361,-1.8818425,3.2752678
1570715128,-13.962984,14.5088625,8.508993,-0.49003658,1.022685,-1.162239,-9.68694,8.379706,4.122815
1570715128,-6.8522053,14.911088,-0.62728083,-0.89591473,0.98966086,-0.7265325,-2.432509,8.810662,-4.4340615
1570715128,-0.7038953,8.437167,3.2561142,-0.29934844,1.0035098,-0.01384886,4.3526587,3.2273839,-2.8395233
1570715128,0.32561144,3.8786068,6.397307,0.7297284,0.11824796,0.99392205,5.9041014,-2.0207062,1.436521
1570715128,1.316811,2.0015526,1.508347,0.8937841,-0.63917816,1.822723,7.005434,-3.8738184,-1.8387469
1570715129,0.45489833,-5.961562,-0.7134721,1.259181,0.25673655,1.2123079,6.14831,-11.99495,-5.650316
1570715129,-0.5746084,-1.0247183,4.1611223,0.92148185,-0.060721926,0.0,4.721366,-8.781932,0.4405331
1570715129,-2.6431987,1.1875241,0.5506664,0.39309457,-0.11292148,-0.4431635,3.5003228,-6.349423,-2.384625
1570715129,-17.262194,20.484789,2.60968,0.13209683,-2.486403,-0.6626147,-8.494628,6.694188,-0.5793968
1570715129,0.40701428,8.571242,1.6280571,-1.1888714,-0.4825795,0.39629045,4.936844,7.2304893,-1.3551182
1570715129,-7.9343843,14.073117,6.7803793,0.70629185,-0.31958908,0.7925809,-2.6431987,5.2241483,3.064578
1570715129,-2.7629087,16.294937,-1.8100165,1.6746467,-1.3199029,0.33237264,1.8435353,8.327033,-4.807557
1570715129,-10.04607,17.81286,7.297527,1.6235125,0.067113705,1.1888714,-5.353435,10.778696,2.1021092
1570715129,-5.4683566,10.433931,8.916007,1.6277738,-0.48044893,1.8014171,-1.292869,2.303222,5.3582234
1570715129,-4.6016555,6.8186865,7.6231384,2.321282,-1.1931325,1.6203166,-0.6847417,-0.6799533,3.8115692
1570715129,-7.690176,6.1387334,3.964798,2.3084984,-0.9619631,0.692443,-4.4915223,-2.7341783,1.283292
1570715129,-5.33907,4.1180267,5.3438582,2.1806629,-0.12783563,0.6125457,-2.3127987,-4.9703627,3.2465374
1570715129,-6.315904,1.0582372,5.9184666,1.0099015,0.26845482,1.0322727,-3.5242648,-8.192958,4.247314
1570715129,-6.9623384,-3.442862,4.3047748,0.16085984,0.2087982,1.1398677,-4.4723687,-12.804191,2.7868507
1570715129,-2.9496565,-5.9902925,1.6998832,-0.62639457,0.9012412,0.87567407,-0.7182605,-15.409082,0.1436521
1570715129,2.054225,-6.6893997,1.3694834,-1.4765016,1.4860892,0.4570124,3.2944214,-16.026787,-0.3878607
1570715129,1.1923125,0.6943185,2.9400797,-2.6664383,1.6767774,-0.96835494,3.5290532,-8.542512,0.62249243
1570715129,0.19632454,20.278889,11.645397,-3.1916296,0.52945256,-2.0070195,3.0214825,11.415554,8.532935
1570715129,-4.4915223,28.33777,4.7740383,-0.9779426,-0.01384886,-3.7679553,-0.7469909,20.010738,1.1779473
1570715129,-7.455544,19.507956,0.7613561,-1.8962286,1.7257811,-1.7556094,-2.743755,13.426683,-4.745308
1570715129,-17.195156,8.312668,9.188946,-2.422485,-1.3230988,-1.6629285,-12.368446,0.89064306,4.9559975
1570715129,-17.128119,14.753071,1.982399,-1.140933,0.84904164,-1.9090121,-11.9135475,7.8865004,-2.695871
1570715129,-6.612785,13.986926,0.89543146,-0.70629185,0.90869826,-1.374233,-0.94331545,7.493851,-3.7828386
1570715129,-0.35913026,9.916783,4.343082,-0.4218576,0.7797974,-0.5656727,6.397307,3.6631286,-0.272939
1570715129,2.566584,3.691859,3.8067808,0.40481284,0.3057402,0.6647453,8.576031,-2.5953147,-0.7134721
1570715129,2.6240451,1.8866309,1.3742718,1.1888714,-0.09587672,1.6192514,8.801085,-4.1946416,-2.5617957
1570715129,0.10534488,-6.1100025,0.8331822,1.7588053,-0.25780186,1.592619,6.3350577,-11.444284,-3.2321723
1570715129,-1.1252748,-2.1883004,3.0502129,1.0535786,-0.18216577,0.29508725,4.6495395,-11.851298,-0.80924016
1570715129,-0.94331545,1.6184803,3.265691,0.52519137,0.3504827,-0.64450467,4.4723687,-6.4787097,-0.095768064
1570715129,-14.714764,17.367538,1.3694834,-0.23862651,-3.3642077,-1.0067056,-9.337387,10.084377,-2.4133554
1570715129,-6.05733,20.671537,1.8243817,-0.46660006,-0.5241261,-1.2048508,-7.6710224,23.654713,-2.327164
1570715129,-3.5529952,3.5194764,9.270349,-0.5614115,0.3526133,0.7797974,4.644751,-4.8937483,3.1172507
1570715129,-4.525041,17.908628,4.390966,1.9452322,-1.4413468,0.52093023,-0.05267244,9.050082,-0.47884035
1570715130,-9.586384,19.85751,3.5769374,1.1366718,-0.19068815,0.8469111,-2.5953147,13.215993,-1.1731589
1570715130,-7.9248075,12.813767,6.4020953,1.4125837,0.09587672,1.904751,-4.3143516,6.301539,2.2888567
1570715130,-3.8594532,9.203311,9.275137,1.9963665,-0.99818325,1.9846482,-0.10055647,1.412579,5.410896
1570715130,-4.975151,5.171476,6.143522,2.4938602,-0.595501,1.1217576,-0.94810385,-3.107674,2.2170308
1570715130,-6.646304,4.098873,4.2664676,2.1700099,0.035154797,0.5358444,-3.3901896,-4.534618,0.79966336
1570715130,-5.391742,1.1731589,5.6790466,1.241071,0.44103295,1.0280116,-1.982399,-7.603985,3.7732618
1570715130,-7.0724716,-2.408567,4.841076,0.22264706,0.05219955,1.1707613,-3.6296098,-10.754754,4.6495395
1570715130,-5.4300494,-7.1347213,4.003105,-0.4218576,0.6967042,0.8277357,-3.3566709,-15.619772,2.078167
1570715130,1.0726024,-6.483498,0.0047884034,-1.660798,1.4626527,0.12570503,2.9496565,-17.118542,-0.6703765
1570715130,1.1540052,1.0007763,2.2266076,-2.4949255,1.4935462,-0.74890375,4.4484267,-10.280702,0.2633622
1570715130,1.1444284,19.958065,9.868899,-3.3237264,0.8991106,-1.4402815,5.267244,8.576031,6.919243
1570715130,-5.0613422,26.585217,4.4196963,-1.1633042,0.088419646,-4.032149,-0.023942016,19.220652,4.55856
1570715130,-6.7564373,20.149601,-0.60812724,-1.5137869,1.4072572,-2.4746847,-2.0638018,12.344504,-4.247314
1570715130,-12.473791,7.929596,14.772224,-1.8461596,1.0908641,-1.0013791,-7.273585,0.5410896,10.951078
1570715130,-14.283808,12.512098,2.7341783,-1.6245779,-0.8937841,-1.7002139,-8.882488,5.5737014,-1.6184803
1570715130,-11.563994,16.232687,0.6607997,-0.6551576,0.9619631,-1.54255,-5.755661,9.706094,-3.7972038
1570715130,-3.394978,11.075577,1.3982137,-0.81282157,0.98113847,-0.9012412,2.7820623,4.8698063,-3.016694
1570715130,-0.56982,6.2632318,4.237737,0.045807768,0.6231987,0.35900506,5.741296,0.1388637,-0.10055647
1570715130,1.5705963,3.0597897,5.291186,0.49216717,0.12890093,1.2400056,7.776367,-3.2752678,1.1013328
1570715130,4.1036615,0.21547815,0.095768064,0.6168069,-0.5933704,2.1146145,9.892841,-6.50744,-4.074931
1570715130,0.34955344,-7.800309,0.4165911,1.6245779,0.10972559,1.0013791,5.755661,-14.939818,-3.5673606
1570715130,-4.4196963,-1.2258313,6.5361705,0.67220235,0.11079088,-0.47299185,1.0007763,-8.523358,2.8634653
1570715130,-6.2871737,5.8801594,-2.0254946,0.11505207,-1.0557092,-0.8405193,-0.7565677,-1.3024458,-5.765238
1570715130,-17.53992,33.475727,3.6248214,-0.88845766,-0.6551576,-0.75209963,-11.990162,26.460716,-0.40222588
1570715130,-4.687847,5.0374002,4.8458643,-1.1196271,0.6402435,1.012032,0.770933,-1.8770541,0.5410896
1570715130,-2.7629087,14.322115,4.759673,1.3230988,-1.2740952,0.5827174,2.504335,7.2209125,0.51235914
1570715130,-5.5162406,21.064186,4.3526587,0.72333664,0.36326626,0.62213343,-0.47884035,13.752295,0.17717093
1570715130,-11.027693,13.934254,6.2009826,1.122823,0.046873067,1.7438911,-6.579266,8.475474,2.5953147
1570715130,-3.2273839,7.833828,7.4028716,1.7236505,-0.71374893,2.001693,0.22984336,-0.06703765,4.5537715
1570715130,-3.892972,6.8569937,5.291186,2.2211442,-0.70735717,1.0184239,-0.10055647,-1.6136919,2.1260512
1570715130,-5.6359506,7.9726915,3.9791632,2.163618,-0.27165073,0.8724782,-2.078167,-2.087744,1.3263878
1570715130,-5.3821654,3.1268275,5.377377,1.6085984,0.08202787,1.004575,-1.8962077,-5.559336,3.169923
1570715130,-5.511452,0.2825158,7.9391727,1.022685,-0.05646074,1.1164312,-2.753332,-8.485051,5.90889
1570715130,-3.9025488,-5.568913,3.5865142,0.5923051,-0.13209683,0.8767394,-0.89543146,-13.163321,5.109226
1570715131,0.038307227,-6.411672,-0.46447513,-1.1707613,0.5571503,0.092680834,2.7820623,-14.346057,-2.6623523
1570715131,-0.9768343,-2.9257145,3.6631286,-1.7758499,0.85862935,-0.40374753,1.7525556,-12.6461735,0.60812724
1570715131,-0.9864111,4.223372,5.4779334,-2.4192894,0.7627526,-1.5052645,1.4413095,-7.0102224,2.6719291
1570715131,-4.9176903,24.578875,11.611878,-3.6465113,1.7257811,-1.6064677,-0.21068975,12.071565,5.133168
1570715131,-7.015011,29.376854,-3.8115692,-1.4221714,0.03089361,-3.182042,-2.8491,23.822308,-4.5777135
1570715131,-6.229713,9.619903,3.2561142,-2.1668139,1.5649211,-1.4360203,-1.067814,4.951209,-1.8866309
1570715131,-12.425907,2.7341783,12.325351,-1.4072572,-1.8323107,-1.8110048,-5.884948,-7.6135616,10.381259
1570715131,-11.8896055,16.697163,7.302315,-0.57952154,0.6359823,-1.9036856,-6.7468605,9.184157,3.3135753
1570715131,-9.246407,17.080235,-3.7924154,-1.1025823,0.07776668,-1.0951252,-4.8362875,11.353305,-7.551312
1570715131,-1.4556746,8.954314,0.5267244,-0.6200028,0.6253293,-0.19388404,3.7541082,3.9121256,-5.9184666
1570715131,-0.9672575,4.477157,8.561666,0.5550197,0.17044751,0.8596946,5.046977,-1.1444284,3.3758245
1570715131,-0.41180268,1.9680338,4.132392,1.1846102,-0.5198649,1.6959528,5.377377,-3.3566709,-0.8571242
1570715131,-1.1971009,-2.5139117,-1.2401965,1.3774289,-0.6935083,1.5968801,4.1802764,-9.241618,-5.923255
1570715131,-2.408567,-1.5897499,2.3750482,1.1920673,0.22690825,0.7350549,2.7389667,-8.676587,-2.0254946
1570715131,-2.5330653,2.2266076,4.343082,0.74890375,-0.11185618,0.03089361,2.4660277,-5.056554,1.091756
1570715131,-3.0119057,7.16824,-3.8115692,1.4828933,-1.4211061,0.12677033,2.207454,-1.9967642,-5.506664
1570715131,-10.67814,14.279019,0.4309563,-0.21945117,-1.366776,-0.3504827,-5.861006,6.7468605,-3.6056678
1570715131,-2.753332,7.1490865,8.508993,-1.0013791,-0.35793978,-0.18110047,2.719813,0.7517793,6.220136
1570715131,-7.867347,10.46745,5.329493,0.023436533,-1.4274979,0.22371235,-2.930503,3.2800562,0.8331822
1570715131,-5.12838,20.834343,-0.81402856,1.2975317,-0.41866168,0.5134731,-0.50757074,13.460202,-5.3438582
1570715131,-9.394848,16.821661,7.1107793,1.3529271,0.312132,0.9694202,-4.936844,9.165004,2.8921957
1570715131,-3.6152446,10.630256,8.346188,1.4967422,-0.55075854,1.7641318,0.47884035,2.6192567,4.4340615
1570715131,-2.7724855,7.5800424,5.803545,2.3148901,-1.2911398,1.4338896,0.770933,-0.8475474,2.2649148
1570715131,-6.3685765,8.930372,4.6016555,2.2946496,-0.6913777,0.68924713,-3.1603463,0.17238252,1.5610195
1570715131,-4.5537715,4.999093,5.094861,2.2296665,-0.29828313,0.5688686,-1.8722657,-2.753332,2.0159178
1570715131,-6.445191,1.292869,8.058883,1.14839,-0.017044751,0.80323386,-3.6248214,-7.872135,6.009446
1570715131,-4.510676,-3.7445314,5.645528,0.5923051,-0.30893612,0.64237404,-1.9153614,-13.019669,3.8019924
1570715131,-1.661576,-5.9280434,1.5993267,-0.49003658,0.12677033,0.28336897,0.81881696,-15.227123,-0.25857377
1570715131,-0.39264908,-3.5434184,0.0,-1.6618632,0.84158456,-0.3440909,2.1404164,-12.765883,-2.1643584
1570715131,-1.6663644,0.79966336,3.5577838,-1.7694582,0.7254672,-1.2911398,1.1587936,-8.221688,0.9672575
1570715131,-0.92895025,8.676587,6.090849,-2.080525,0.44209823,-1.8088742,2.2936451,-2.2984335,2.825158
1570715131,-11.621455,29.922733,13.584701,-2.3255432,0.4953631,-2.7644455,-7.642292,21.758505,9.878476
1570715131,-8.628703,20.767305,-7.1634517,-2.3979833,-0.0692443,-0.95131016,-3.1842883,17.640478,-7.7907324
1570715132,-10.041282,5.7365074,8.7292595,-2.404375,1.8365719,-0.62639457,-4.6255975,0.7565677,0.9720459
1570715132,-10.869676,11.468226,8.12592,-1.7811764,-0.312132,-1.6299043,-5.8801594,2.3080103,4.271256
1570715132,-11.286267,13.627796,6.172252,-0.8021686,1.1281495,-1.5201787,-5.731719,7.1730285,1.9249382
1570715132,-7.086837,14.020445,0.48841715,-1.1782184,0.9150901,-1.266638,-2.6479871,8.7771435,-3.7588966
1570715132,-1.3263878,8.159439,3.0693667,-0.22584295,0.57739097,-0.175774,4.4484267,3.0119057,-3.5098996
1570715132,0.14844051,4.855441,6.7372837,0.6903124,0.23330003,0.78725445,6.090849,-0.9672575,1.388637
1570715132,0.16759412,1.7046716,0.20111294,0.88952297,-0.37285393,1.5436152,6.3589997,-4.3718123,-2.3702598
1570715132,0.9528923,-6.7085533,2.1212628,1.697018,0.51240784,1.1441289,6.3206925,-12.052411,-1.982399
1570715132,-1.1061212,-4.6399627,4.429273,1.3124459,-0.08309316,0.011718267,4.261679,-12.971785,0.61770403
1570715132,-1.1013328,1.2976574,-3.6152446,0.8426499,-0.72759783,-0.29721785,4.8602295,-7.575254,-6.4164605
1570715132,-21.255722,33.62417,8.183381,-1.2325486,-1.7279116,-1.2527891,-9.9790325,14.762648,4.55856
1570715132,-2.078167,7.321469,0.12928689,-1.1441289,-0.8426499,-0.067113705,1.6184803,5.985504,-2.2505496
1570715132,-3.7014358,6.919243,7.441179,1.1899366,-0.60189277,0.3856375,2.0685902,-3.4620156,2.9257145
1570715132,-3.3854012,16.692375,2.2505496,1.5542682,-1.7321728,-0.011718267,2.135628,8.719683,-2.030283
1570715132,-13.072341,19.325996,6.6989765,1.6213819,-0.02769772,0.48044893,-8.652645,13.776237,2.456451
1570715132,-5.00867,10.812215,6.5984197,1.2602463,-0.4474247,1.8642696,-1.5227122,3.9695864,2.9735985
1570715132,-2.9735985,8.983045,7.216124,2.1082227,-0.8671517,1.7588053,1.6136919,1.5275006,4.0462008
1570715132,-5.602432,4.2904096,4.6112323,2.418224,-0.8138869,0.91295946,-1.460463,-3.9791632,2.6192567
1570715132,-4.6782703,2.27928,5.4779334,1.7012792,0.07563608,0.5017549,-1.13964,-6.555324,3.1172507
