time,ax,ay,az,gx,gy,gz,la_x,la_y,la_z,fox,foy,foz
1570715095,-3.5164032,3.39888,12.454834,1.4536438,0.46333313,-1.5067139,-1.9590137,-2.8839278,4.7741194
1570715095,-2.9908752,5.287903,11.275681,3.388153,0.6657257,-0.003616333,-1.7538295,-2.1303406,2.7590823
1570715095,1.181015,5.9104004,6.6309357,3.591629,-1.4754486,0.5769501,1.7477472,-1.7537007,0.2748146
1570715095,-1.3125458,7.349304,9.250183,3.8994904,0.5837097,0.45976257,-0.65954804,-1.022397,4.210179
1570715095,1.4312134,9.597458,4.9693604,3.3285065,0.97572327,0.23500061,2.1919017,0.6487913,-0.20254278
1570715095,0.62435913,9.390366,5.153717,0.7345886,0.27478027,-0.70562744,1.6648543,0.8548565,0.17119884
1570715095,-0.4159088,11.055527,7.4329834,-0.05050659,1.9248657,-1.3320007,1.3175864,1.1456041,2.6400962
1570715095,-3.6397095,14.304459,7.964508,0.62272644,1.4923706,-2.3013916,-1.3812628,5.4554787,3.565506
1570715095,-1.9398193,39.401688,11.664749,3.1804352,-1.259201,-1.6941986,5.8707743,20.70835,10.303763
1570715095,-1.5639343,11.400299,2.023285,3.1111908,0.2811737,-4.201828,5.0727143,3.3795118,-2.9401736
1570715095,-5.9836273,10.428253,4.252289,2.6296844,-1.4797211,-2.6007385,-1.2525201,1.8363886,3.1805854
1570715095,-5.409027,11.947372,1.9047852,2.5849457,-0.5188446,-1.7868805,0.06629658,2.3049593,-0.4050901
1570715095,-3.7438507,9.433456,0.7447815,0.9519043,-1.8589478,-1.5770111,1.6032681,1.0234928,0.14556193
1570715095,-2.1972046,1.7337036,6.980484,-2.764801,-0.35691833,2.4155884,1.5682659,-4.8174887,4.240737
1570715095,0.860199,5.3298035,3.5184631,2.7074585,2.5533752,2.486969,3.6075559,-3.7075548,1.853579
1570715095,-6.586975,11.988083,-8.800888,3.1005402,2.2678833,-3.0332336,-0.5581541,2.5674934,-8.978409
1570715095,-5.1372833,8.187286,-6.352829,2.2898712,2.022873,-1.8188324,1.0782323,-1.1767349,-5.5312996
1570715095,-5.045105,6.4838104,-4.463791,0.74098206,0.429245,-1.1967163,1.9063525,-2.189622,-4.177259
1570715095,-5.7346344,3.900467,-0.80307007,-0.010040283,-0.28022766,-0.75250244,0.7386079,-3.7498522,-0.39731097
1570715095,-5.911804,7.5947113,-0.2320404,-0.29019165,0.04574585,-0.921875,0.5080905,-0.7480116,1.1516949
1570715095,-8.963211,11.162079,-1.170578,-0.76530457,-1.2496185,0.04005432,-2.4309506,2.7459898,-0.81286424
1570715096,-11.491486,4.999405,-1.0867767,-0.7706299,-2.0581512,2.2611237,-2.310862,1.3475637,-0.21896082
1570715096,-6.9568787,13.9357605,1.4762115,-0.9666443,-1.3209839,4.270218,-1.8367901,4.8624153,1.6658713
1570715096,-2.761032,16.471222,-1.0029755,-1.0454712,-1.2879639,3.9421234,1.4908385,7.561824,-2.0241246
1570715096,-2.2606506,8.624222,1.7443695,-1.2350922,-1.9004974,3.313614,1.2646396,-0.18260193,0.5046891
1570715096,-2.1385498,4.1925507,4.5168457,-1.2233734,-3.0935974,1.9244995,-0.40977836,-5.1980124,2.2499452
1570715096,-1.3412781,9.338898,1.9215393,-0.77915955,-3.29599,1.2704315,0.269624,-1.778079,-0.054950714
1570715096,5.718033,14.850342,4.327713,-0.70777893,-0.6669159,1.0286255,6.2720656,4.32452,0.051361084
1570715096,-1.0779114,13.942947,1.4019928,-0.23693848,-1.0983429,-0.14317322,0.039276898,4.802043,-0.23672247
1570715096,0.9751129,9.920685,3.2970123,-0.40205383,-0.65945435,-0.32640076,0.7479995,-0.3071766,0.94267416
1570715096,-1.4131012,9.456207,4.3887634,0.22113037,-0.4954071,-0.6949768,-0.22485459,0.02167797,1.4106591
1570715096,-0.748703,9.101868,3.8907623,2.2824097,-3.04245,-0.71095276,-0.866879,-1.8463621,11.705367
1570715096,-5.7238617,9.778229,5.0842743,0.024047852,-0.12789917,-0.48831177,-3.6603484,0.15360832,-1.0762873
1570715096,0.6794281,7.154175,2.026886,1.9394073,-2.0911713,-0.047302246,2.0013704,-3.2617912,0.71685815
1570715096,-2.1349487,9.771042,-0.24401855,0.6269989,1.2313843,-0.25183105,-0.5797783,-0.6637783,-3.1978288
1570715096,-1.1138306,10.996872,2.3417206,0.050689697,0.61247253,0.12313843,-0.28667176,0.7491255,1.0850767
1570715096,-2.170868,1.6702576,-4.795395,-0.9709015,-1.0589294,-0.12080383,0.5334548,-6.648057,-6.074167
1570715096,0.3215027,0.16072083,5.0172424,-1.1828918,-1.2176666,-0.7407837,2.8253183,-10.630948,2.8250697
1570715096,-5.0798187,8.565567,0.12109375,-0.47662354,-2.980667,1.3844147,-4.9628243,-0.97350407,-0.4751687
1570715096,7.197647,-1.3955078,1.7216187,-1.618576,-0.13108826,1.6645813,7.1680384,-11.154782,-0.98306394
1570715096,-0.11424255,6.6585846,-2.558014,2.4880066,-2.5567017,2.0544739,-1.4087384,-4.641365,10.738594
1570715096,19.945572,31.516388,7.0654755,-1.2595825,3.8466034,5.8723755,12.007185,29.181667,3.2906182
1570715096,-7.0191193,6.7256165,-5.7470856,0.31381226,-1.0898285,-0.9431915,-6.386937,-4.5229692,-5.1490602
1570715096,3.128708,13.596985,2.6338196,-0.80685425,-1.146286,-0.5788727,1.639242,3.326703,-0.052838802
1570715096,2.7803497,11.317703,3.9458313,-0.12402344,-0.67544556,-0.29656982,1.7581737,1.4566698,2.365571
1570715096,1.6239471,8.451843,2.675705,0.015533447,-1.0759735,-0.3892517,0.47532856,-1.22258,-0.7045176
1570715096,1.433609,8.748718,3.0935059,-0.08354187,-1.5478973,-0.3892517,0.083850384,-1.2337894,0.1992383
1570715096,1.0696869,9.329315,1.734787,-0.3945923,-1.7950287,-0.36367798,-0.20207179,-1.0838356,-0.72682977
1570715096,-0.25190735,9.743515,3.5112915,-0.48727417,-1.3273773,-0.20602417,-0.6384567,0.49055004,-1.1882071
1570715096,0.5633087,10.421066,0.84773254,-0.41163635,0.054260254,0.19238281,-1.0963217,0.35399055,-2.0593894
1570715096,0.7189331,9.11264,5.9497833,-0.2667694,-1.3167267,0.0059661865,-1.1342067,-0.62428856,2.979916
1570715096,-0.2866211,9.727951,-1.2950745,-0.82069397,-1.8855743,0.109298706,-1.9206582,-0.15392685,-4.408061
1570715096,-0.0041046143,11.877945,0.2635498,-1.0678406,-0.9044647,-0.030258179,-1.8342949,1.8944435,-3.3368475
1570715096,-1.1233978,11.065109,1.9011841,-0.30937195,-1.3241882,0.11462402,-3.1431262,1.3411837,-1.2524953
1570715097,0.66267395,12.330444,0.24798584,-0.62576294,-0.32389832,-0.011077881,-1.1519535,2.729807,-3.3725193
1570715097,0.04017639,12.162857,0.3796692,0.037902832,-0.67437744,0.14764404,-2.0437126,2.4989796,-3.2266922
1570715097,1.3773346,15.386642,0.045684814,0.82406616,-0.7159271,0.11036682,-0.6982138,5.709094,-3.2552807
1570715097,1.8537903,14.30925,-2.0372772,1.4664154,-0.95240784,-0.26994324,-0.4670403,4.5635366,-4.6932106
1570715097,3.765564,12.071869,-1.4554901,2.208908,0.16931152,-0.34344482,1.5511281,2.1280289,-3.9673893
1570715097,3.876892,12.726685,-0.62350464,2.889618,-1.132431,-0.20069885,1.7834537,2.4260502,-1.9452562
1570715097,4.1905365,15.6931,1.1817322,2.9961395,-1.878128,-0.25502014,2.0094094,5.343376,0.8832764
1570715097,3.8002777,14.057861,0.093566895,2.0533905,-1.1867676,-0.5927124,2.1100712,3.8994045,0.28793
1570715097,3.093979,11.612183,2.730774,1.647522,0.2108612,-0.8845978,1.4514945,1.2304153,3.7667832
1570715097,0.7871704,10.638947,1.2176361,2.0608368,0.3631897,-0.86009216,-0.6386839,0.23829746,2.8902397
1570715097,1.0732727,10.215164,-2.0384674,2.0991974,-0.22270203,-0.50109863,-0.32093155,-0.1571846,0.32122374
1570715097,3.7607727,9.878784,-0.11831665,2.397461,0.7818451,-0.7706146,2.64612,-0.30172253,2.6852088
1570715097,3.8433685,9.444229,0.38087463,1.8083801,0.82444763,-0.9453125,2.9663172,-0.48801613,4.061885
1570715097,1.730484,6.750763,1.2727051,1.6901245,0.89901733,-0.7738037,0.8960557,-3.0567427,5.4178543
1570715097,0.7357025,5.4914093,0.73760986,1.059494,1.0257874,-0.7152252,0.087785244,-4.1417227,4.9001
1570715097,1.9519501,4.7899017,-1.6721649,0.2733307,0.5176544,-0.7184143,1.3860409,-4.653407,2.867169
1570715097,0.9128723,2.0222168,-4.000519,-0.7503967,0.3450775,-0.69285583,0.47182494,-7.379243,0.36592293
1570715097,-0.6385803,3.4216156,-6.2247314,-1.296875,1.0332489,-0.46168518,-1.0971546,-6.398718,-2.156256
1570715097,-1.6944122,9.178482,-7.451767,-1.105133,0.52404785,-0.23052979,-1.9502908,-0.85385036,-3.9236732
1570715097,-0.1956482,11.352417,-8.237061,-0.2944641,-1.2378998,0.011291504,-0.46276793,1.5644655,-4.5372787
1570715097,-0.5631561,9.201218,-4.0017242,-0.055847168,-2.5843964,-0.09950256,-0.7562771,-0.7382889,-1.0884714
1570715097,7.038437,15.639236,4.4055176,0.43737793,-2.6760101,-0.2901764,7.1125402,5.590476,8.293098
1570715097,1.4192352,9.243118,0.27192688,-0.5661011,1.0279236,0.41716003,2.647714,0.054198265,4.4273143
1570715097,2.1997528,9.238342,3.5603638,-0.7812805,-2.3798676,0.60357666,2.0678551,-0.93991756,7.3175287
1570715097,5.659378,15.684723,0.37368774,-1.5738373,-0.69781494,1.4153137,5.8752723,4.5635242,2.632607
1570715097,1.1750336,20.783173,0.9590759,-2.8468323,-1.8014221,1.7466125,0.8840859,10.515973,2.911071
1570715097,-3.448166,18.348267,0.50177,-3.2441711,-0.9449463,1.739151,-4.426465,7.930046,1.6664592
1570715097,-0.42430115,18.245316,-5.4825287,-3.144043,1.2143402,1.547409,-1.6401011,7.1087456,-7.8389716
1570715097,0.21136475,14.249405,-4.3357086,-2.3344421,1.9397888,1.0765533,-1.7214388,3.9673243,-5.201027
1570715097,1.6718292,10.765839,-4.0699463,-1.884903,0.85214233,0.59506226,-0.52445936,0.8789196,-5.279936
1570715097,-0.2962036,6.6861115,-3.5839233,-1.2532043,0.005264282,0.6099701,-2.462126,-3.3202085,-5.583625
1570715097,-1.2490997,2.4687347,-3.0835419,-1.0955353,0.51872253,0.47787476,-3.558114,-7.536563,-5.277031
1570715097,-3.3045197,4.0093994,-3.1601562,0.17318726,-0.26637268,0.2062378,-5.3624697,-5.800152,-5.738463
1570715098,-2.5491486,3.4922485,-0.84495544,1.3598938,-0.14706421,-0.47554016,-5.2637386,-6.20922,-2.6860852
1570715098,1.4120636,3.6143494,-3.0739594,2.033142,-0.92578125,-1.0070953,-0.95504403,-6.6990194,-4.5453053
1570715098,2.5421143,9.204819,-1.1969147,3.2933502,0.42178345,-0.8654175,0.5145955,-1.3386688,-2.0193975
1570715098,6.06279,23.08281,0.848938,4.00708,1.3634796,-1.6132355,4.556434,11.847726,1.0299536
1570715098,11.570663,23.978241,3.4957275,1.9489899,-3.2203522,-0.99005127,9.797801,16.996613,5.4090805
1570715098,4.4131927,20.368973,-5.3867645,1.20224,-2.9519043,-1.8060455,5.187846,8.9223175,-3.644273
1570715098,-10.035812,22.438766,-4.435074,1.9287415,-0.5433502,-1.5461273,-9.1718025,12.389552,-1.6830795
1570715098,-3.2219238,15.062225,-2.5795593,2.2014618,2.5065002,-0.93466187,-3.8485608,5.5584927,0.3556385
1570715098,3.0221558,9.525635,0.23362732,1.5559082,3.9552612,-0.8217468,2.983593,-0.049586296,3.4266112
1570715098,4.406006,3.8166656,2.8145752,0.68452454,4.0724487,-0.4116211,4.5329647,-5.369979,6.9821134
1570715098,3.9104004,-1.1441193,1.9526672,-0.6800842,2.2007751,0.050704956,3.604774,-10.833614,5.9755907
1570715098,2.3146667,-4.3631287,1.2846832,-2.1959534,-1.0493469,0.35217285,1.899168,-14.076264,4.962681
1570715098,0.43881226,-0.87716675,-0.4152069,-3.1163483,-2.099701,0.093322754,0.35081923,-11.694803,2.436388
1570715098,-2.3707733,5.5680237,-3.9047546,-2.3685303,-1.1260529,-0.16661072,-2.046757,-5.6617737,-1.4104768
1570715098,-7.3722687,9.871597,-2.1952972,0.19236755,-1.9750671,-0.6129608,-7.421123,-0.1644783,-0.71166515
1570715098,1.8765259,14.341583,-6.7742004,3.0568695,-4.6882935,-1.2009735,-0.30092317,2.7762918,-8.509417
1570715098,19.77678,22.21251,-0.3768921,0.9753418,1.5861206,-0.14743042,20.367924,11.048222,4.526521
1570715098,-0.9031372,7.501343,13.717773,-1.3671875,-0.6615906,2.3090668,-0.30142415,-2.4402466,19.491943
1570715098,3.0999756,15.365097,4.5467834,-2.459076,-1.322052,1.1926727,2.300457,3.7710447,5.261942
1570715098,-1.926651,32.518356,0.26953125,-2.809555,-0.38674927,1.5335541,-2.2253265,21.754753,2.5443978
1570715098,-0.6541443,17.424118,-3.8568726,-2.3781128,0.92459106,0.87202454,-2.3779817,7.750984,-4.045252
1570715098,2.1422882,14.087784,-6.081085,-2.0681305,1.4380493,0.91996765,0.18464887,4.0151157,-6.5717325
1570715098,-0.45422363,9.421494,-3.9801636,-1.7794342,1.1909027,0.42674255,-1.3872037,-0.24413013,-5.833994
1570715098,-2.3480377,5.699707,-6.7778015,-1.0294952,0.07662964,0.63552856,-4.082111,-4.008663,-8.018933
1570715098,-1.9877014,3.0014343,-4.2566986,-0.7429352,-0.35479736,0.37561035,-3.9718046,-7.325017,-6.794674
1570715098,-5.34079,2.2951508,0.44311523,0.3894348,-1.2677307,-0.1655426,-7.245303,-7.613636,-2.075835
1570715098,-3.724701,0.9843292,-1.0388947,0.91674805,-0.19500732,-0.537323,-6.1243277,-9.040176,-2.511381
1570715098,1.4922638,1.6044159,-5.6477356,1.696518,-0.7649231,-0.72694397,-0.89316285,-8.722062,-6.631625
1570715098,2.8785095,3.5245667,-0.9862213,2.9450073,2.5448608,-0.28910828,1.5732853,-6.8117733,-2.4933758
1570715098,3.1478577,11.99646,5.698395,3.1889496,0.7690582,-0.40415955,2.188908,-0.012554169,5.9713354
1570715098,7.082718,40.02298,7.61615,3.4286346,-0.3143158,-1.9871521,5.698034,28.937843,10.233849
1570715098,9.103424,13.793304,-3.8820038,0.6312561,-4.3719025,-2.2001953,9.071687,3.6454468,-1.8366934
1570715098,4.694504,22.134705,-6.5096436,1.2725372,-2.1742706,-1.8539886,6.4470215,10.903166,-4.300006
1570715098,-4.2562103,18.493118,-4.729553,2.2366028,0.5346985,-1.0731506,-4.965138,10.679545,-0.29265952
1570715099,1.5317688,13.017578,-1.7056732,1.680542,3.3310242,0.19026184,1.6657795,3.3449898,0.91191864
1570715099,4.781891,7.719208,2.9199219,0.932724,4.1363525,0.20091248,5.040649,-1.48909,6.493106
1570715099,3.1622162,0.66470337,2.6433868,-0.13360596,2.276413,0.28292847,3.1547904,-8.326603,7.0717525
1570715099,0.5166321,-1.7534485,1.0919495,-1.5259094,-0.80752563,0.48745728,0.25213623,-11.744464,5.0996084
1570715099,-2.148117,1.449997,-0.5169525,-2.918213,-0.6658478,0.37028503,-2.449952,-9.00403,2.4340706
1570715099,-1.7925873,3.2576141,0.94828796,-2.841507,-0.24827576,-0.07286072,-2.4845147,-6.988702,2.9692736
1570715099,-0.17649841,3.074463,-2.0276947,-1.296875,-0.45066833,-0.3743286,-0.61616784,-7.248066,-0.53435016
1570715099,-0.60505676,2.3502197,-2.3784485,0.8315277,-3.5111694,-0.4584961,-0.6888006,-7.8661776,-0.98342633
1570715099,8.868805,3.3761292,-18.76915,1.3758698,-2.8027802,-0.37539673,7.975013,-6.8989954,-15.140411
1570715099,-3.8001251,37.386963,38.522903,0.4277954,-2.896515,-0.10801697,-0.8387394,24.461344,40.596355
1570715099,-1.9194794,14.199127,-15.527405,0.35108948,-0.6530762,0.69200134,-0.9905764,8.627788,-12.326341
1570715099,-1.5723114,8.387192,7.913025,-0.98794556,-0.92684937,0.35643005,-0.8483329,-1.0017052,9.526455
1570715099,8.674866,28.472153,1.7491608,-2.667862,0.042541504,1.8446045,8.250358,17.749012,2.114841
1570715099,-2.1050262,17.15477,0.46466064,-3.0897064,1.3954315,1.054184,-2.2048838,8.223229,0.31943738
1570715099,0.97750854,19.228134,-3.266693,-2.7211304,1.0385742,1.021164,-1.0965132,8.089085,-3.1387897
1570715099,5.861679,14.584595,-6.7813873,-2.5134125,1.2473602,0.562027,4.1729507,4.943531,-7.5056515
1570715099,1.0613098,9.953003,-5.7135773,-1.2116547,-0.60832214,1.2395477,-0.1829313,-0.3227749,-7.6231556
1570715099,-4.349594,4.6630096,-4.630188,-0.677948,-0.9375,1.2406006,-6.238161,-5.292943,-6.594718
1570715099,-7.7792816,2.7811737,-1.7128601,-0.18899536,-0.45173645,0.6983795,-9.646183,-7.734844,-4.438919
1570715099,-5.3431854,3.216919,-1.273529,0.86880493,-0.50286865,-0.19537354,-7.858253,-6.855322,-3.2677994
1570715099,-1.0120697,1.5733032,-2.7507477,1.1755981,0.04788208,-0.50216675,-3.47821,-8.47867,-4.162685
1570715099,3.3082733,0.65512085,-4.266281,2.062973,-0.0128479,-0.54371643,0.9904146,-9.453712,-5.1809797
1570715099,4.3916473,5.445923,2.3441162,2.81398,1.5531006,-0.12931824,2.3401408,-5.12986,1.8015321
1570715099,6.2160187,28.332092,0.7052765,3.6267853,1.4966278,-1.3139038,4.62936,16.123865,1.1505346
1570715099,8.221161,19.624374,0.6466217,1.4568329,-2.3702698,-0.97088623,6.7689,10.685098,2.6828241
1570715099,4.524521,19.440033,-7.7594147,0.8293915,-4.1844177,-1.8316193,4.1372404,8.546231,-5.7447343
1570715099,-8.04744,24.750366,-2.4059753,0.9838562,-0.22270203,-1.6654358,-7.9528193,14.544257,-0.21039319
1570715099,-0.84687805,15.824783,-1.285492,1.7156982,2.7184906,-0.6885834,-1.0303614,5.602148,1.2333388
1570715099,5.9143524,11.159683,0.8321686,1.2267456,3.5771027,-0.5682068,5.846775,0.95026493,3.658178
1570715099,7.0168915,5.265152,3.2239838,0.68878174,3.1168976,-0.4403839,6.874107,-4.6172667,6.5521297
1570715099,4.0025787,-0.80174255,0.93273926,-0.6012573,1.3645477,0.23606873,3.6803095,-10.812867,4.154614
1570715099,1.1283417,-1.5032501,-0.32661438,-2.0095367,-0.73509216,0.72821045,0.5747711,-11.739402,2.5018544
1570715099,-0.46020508,-0.2032013,0.9243469,-2.571991,-0.7606659,0.77508545,-0.90064627,-10.993779,2.1760848
1570715100,-2.6114044,3.5401306,-0.35655212,-2.0265808,-1.3305817,-0.043045044,-3.3891497,-7.00965,1.1390759
1570715100,-4.1939697,7.288254,-6.6868134,0.16679382,-1.7364502,-0.63105774,-4.7717085,-2.9869165,-5.6159654
1570715100,-1.9481964,3.1414948,-1.1334686,1.0062256,-3.2373962,-0.6491699,-3.4751687,-7.0884476,-0.38386
1570715100,9.704376,18.187866,-12.410156,0.7015686,1.577591,-1.1594391,9.113286,9.734402,-4.1129227
1570715100,-0.91630554,18.131592,4.7335205,-0.3988495,-0.80433655,0.46722412,0.9839843,13.221511,3.685415
1570715100,-0.11903381,4.633087,7.0092163,-0.4925995,-0.4133911,0.2616272,-0.5347489,-5.835944,8.162761
1570715100,7.5232544,20.385742,-2.317398,-1.5418854,-1.2698517,2.1002808,5.992716,7.60594,2.3924756
1570715100,3.4591064,21.315887,3.5220642,-2.6337738,1.4561615,1.5218353,3.2752628,11.2915945,4.383153
1570715100,-2.5647125,20.57608,-1.0269165,-3.1163483,1.8396454,1.1362152,-4.369992,9.911277,-1.9294862
1570715100,3.3130493,15.238205,-8.003632,-2.1064758,-0.18008423,0.21263123,1.4010308,5.53176,-9.2166
1570715100,2.8126678,9.6393585,-7.022003,-0.9985962,0.12882996,0.91464233,1.74237,-0.19574833,-8.938112
1570715100,-2.8999023,4.7324524,-4.119034,-0.5586395,-0.21524048,1.3290253,-5.067567,-5.115781,-6.3275557
1570715100,-9.310379,0.71977234,-1.186142,0.08584595,-0.55506897,0.55670166,-11.26925,-9.837273,-4.0869703
1570715100,-6.591751,3.0098267,0.8405609,0.9050293,-0.41764832,-0.43717957,-9.80353,-7.4067516,-1.264749
1570715100,-0.86842346,2.3298645,-3.617447,1.0147552,-0.25679016,-0.68751526,-3.5224648,-7.688264,-5.0651493
1570715100,5.126663,2.505844,-5.696808,2.3111725,1.2398987,-0.7365265,3.1552038,-7.802799,-6.923638
1570715100,5.860489,8.785828,2.9713898,2.8981323,1.7906494,-0.2635498,4.043378,-1.9025078,2.6112344
1570715100,2.7216797,35.159164,5.22554,2.8821564,0.6987457,-0.95703125,0.99372625,21.107487,5.465983
1570715100,6.8193665,16.452072,-0.7958832,1.3140869,-3.0637665,-1.1796722,5.456845,6.894042,1.4223545
1570715100,1.8669586,24.758743,-7.1381226,0.9572296,-3.644333,-1.7431946,2.7690942,12.903,-5.281385
1570715100,-5.531128,20.96872,-0.7372284,1.3982391,0.9086151,-1.1668854,-5.7916636,11.746533,1.47248
1570715100,0.42684937,14.214676,-0.20451355,2.0107727,2.7493896,-0.44250488,-0.064131856,3.8961973,2.4014704
1570715100,5.236801,9.832092,1.8185883,1.504776,3.4780273,-0.45103455,4.6647105,-0.29935074,4.8239174
1570715100,6.059204,3.8489838,1.8281708,0.30741882,3.010376,-0.21774292,5.8549976,-5.5723047,5.5559716
1570715100,2.7851257,-0.5683136,0.62268066,-0.9463959,1.531784,0.05496216,2.016024,-10.639382,3.7276824
1570715100,1.5592957,-2.600998,-0.07043457,-2.0659943,-0.07569885,0.45550537,0.5327529,-12.795357,2.5853071
1570715100,-0.5272522,-0.46775818,0.88604736,-2.905426,-0.70632935,0.31489563,-1.1553497,-11.359373,2.4937716
1570715100,-5.4736633,5.1490326,-2.6825104,-1.3938141,-2.0293884,-0.267807,-6.225066,-5.9493837,-1.1848594
1570715100,-2.5575256,6.9590607,-9.602951,1.1532288,-1.940979,-0.43399048,-3.796262,-2.759367,-8.401657
1570715100,2.1997528,7.7886505,-3.8401031,2.350586,-3.4951935,-0.9122925,0.74322194,-3.5194502,-2.8620467
1570715100,10.981689,26.46103,17.214508,1.408905,1.034317,-0.3189392,10.667259,14.337947,19.185884
1570715100,-1.9410248,9.665695,7.6592407,-1.3426819,-0.23016357,0.46296692,-0.77399266,1.3859701,11.834679
1570715100,-0.4985199,11.494873,5.188431,-2.2172546,-2.436325,0.5098419,-2.0818598,-0.3304329,6.876076
1570715101,8.701202,30.179214,2.9079437,-2.4846497,-0.84161377,1.9937439,7.6422567,19.577164,2.645537
1570715101,-0.09628296,16.891403,-2.222824,-2.2129974,1.9280701,1.499466,-1.2983379,6.9350433,-1.117588
1570715101,0.4519806,20.24089,-2.953064,-3.352829,1.8662872,0.7452545,-1.2817498,9.535468,-3.5414152
1570715101,3.3046722,16.147995,-7.792938,-1.8646545,-0.52630615,0.39904785,1.230404,6.5845633,-8.258444
1570715101,-0.83969116,10.023636,-5.670471,-0.5405426,0.0010070801,0.85816956,-2.0519247,0.25859737,-7.395109
1570715101,-2.9824982,2.778778,-2.6513824,-0.8718262,-0.006454468,0.8848114,-4.9256105,-6.654648,-5.020997
1570715101,-3.8767395,0.39894104,-1.7918701,-0.36050415,0.12243652,0.5162201,-6.5752144,-10.115822,-3.9518373
1570715101,-4.9565125,2.466339,-0.05607605,0.37239075,-0.04586792,-0.23052979,-7.15847,-7.6860685,-2.725942
1570715101,-1.6668854,2.762024,-0.73483276,1.0978394,0.18955994,-0.28059387,-4.6625814,-7.0542994,-2.0576158
1570715101,5.7323914,1.098053,-7.231491,1.6709595,0.4388275,-0.55010986,2.9903836,-8.985025,-8.387881
1570715101,5.208069,4.035736,1.0656128,2.5647125,1.147232,0.23179626,3.4084113,-6.7536373,-1.0168552
1570715101,5.8161926,22.321457,3.1880646,3.192154,-0.06504822,-0.806839,2.9069462,6.339657,3.7972014
1570715101,8.234329,24.246384,2.8193665,1.7710876,-1.701294,-1.0060425,5.489547,19.332664,4.806093
1570715101,8.127792,15.983994,-3.6988525,0.9337921,-3.788147,-1.1264191,6.774783,4.9432592,-1.3048975
1570715101,-2.7382965,24.03331,-4.664917,1.2618866,-1.544693,-0.47554016,-3.2437277,13.1553955,-2.2880971
1570715101,-1.1233978,17.438477,-1.0137482,1.3353882,0.8319092,-0.75675964,-2.674586,7.909607,1.581198
1570715101,4.755554,12.417831,-0.30387878,1.3758698,2.6322021,-0.2592926,3.4530067,2.6723433,2.0999727
1570715101,7.1150513,6.7220306,3.196457,0.7143402,2.5800018,-0.28059387,6.3039184,-3.0091228,5.794593
1570715101,3.8302002,1.0812836,1.5157166,-0.19645691,1.5040894,0.09118652,3.0585358,-8.759527,4.130042
1570715101,2.0022278,-0.763443,1.1278534,-0.9858093,0.23641968,0.38414,1.0211062,-10.962767,3.9748383
1570715101,-1.5328064,1.6427307,-0.289505,-2.1512146,-0.6392212,0.17214966,-1.9516021,-9.398655,1.8959095
1570715101,-5.8387756,6.585556,-6.2450867,-1.3096619,-1.9516296,-0.3743286,-7.4267,-4.0564394,-3.9309254
1570715101,-4.2562103,2.1431122,-1.7966614,0.09542847,-1.5393677,-0.5085602,-5.1943684,-7.240698,-1.2187889
1570715101,-0.12741089,1.7397003,2.4865723,1.1905212,-3.1415253,-0.6406555,-2.0712943,-9.529965,3.6110425
1570715101,11.464111,14.090179,-9.228256,1.9820099,3.7954712,-0.46168518,12.189164,1.3301687,-31.882805
1570715101,7.9111176,14.5247345,21.468994,0.63339233,0.9767914,-0.22946167,7.7420826,4.7705393,21.810907
1570715101,7.9111176,14.5247345,21.468994,0.63339233,0.9767914,-0.22946167,7.7420826,4.7705393,21.810907
1570715101,7.9111176,14.5247345,21.468994,0.63339233,0.9767914,-0.22946167,7.7420826,4.7705393,21.810907
1570715101,7.9111176,14.5247345,21.468994,0.63339233,0.9767914,-0.22946167,7.7420826,4.7705393,21.810907
1570715101,7.9111176,14.5247345,21.468994,0.63339233,0.9767914,-0.22946167,7.7420826,4.7705393,21.810907
1570715101,7.9111176,14.5247345,21.468994,0.63339233,0.9767914,-0.22946167,7.7420826,4.7705393,21.810907
1570715101,7.9111176,14.5247345,21.468994,0.63339233,0.9767914,-0.22946167,7.7420826,4.7705393,21.810907
1570715101,7.9111176,14.5247345,21.468994,0.63339233,0.9767914,-0.22946167,7.7420826,4.7705393,21.810907
1570715101,7.9111176,14.5247345,21.468994,0.63339233,0.9767914,-0.22946167,7.7420826,4.7705393,21.810907
1570715102,7.9111176,14.5247345,21.468994,0.63339233,0.9767914,-0.22946167,7.7420826,4.7705393,21.810907
1570715102,-3.68161,1.3135223,-1.1119232,1.122345,-0.054397583,-0.45103455,-8.581645,-6.4613647,-2.961176
1570715102,-3.3164978,1.2393036,-1.289093,1.1500397,-0.041610718,-0.48086548,-8.581645,-6.4613647,-2.961176
1570715105,-3.3164978,1.2393036,-1.289093,1.1500397,-0.041610718,-0.48086548,-8.581645,-6.4613647,-2.961176
1570715105,-3.3164978,1.2393036,-1.289093,1.1500397,-0.041610718,-0.48086548,-8.581645,-6.4613647,-2.961176
1570715105,-3.3164978,1.2393036,-1.289093,1.1500397,-0.041610718,-0.48086548,-8.581645,-6.4613647,-2.961176
1570715105,-3.3164978,1.2393036,-1.289093,1.1500397,-0.041610718,-0.48086548,-8.581645,-6.4613647,-2.961176
1570715105,-3.3164978,1.2393036,-1.289093,1.1500397,-0.041610718,-0.48086548,-8.581645,-6.4613647,-2.961176
1570715105,-3.3164978,1.2393036,-1.289093,1.1500397,-0.041610718,-0.48086548,-8.581645,-6.4613647,-2.961176
1570715105,-3.3164978,1.2393036,-1.289093,1.1500397,-0.041610718,-0.48086548,-8.581645,-6.4613647,-2.961176
1570715105,-3.3164978,1.2393036,-1.289093,1.1500397,-0.041610718,-0.48086548,-8.581645,-6.4613647,-2.961176
1570715105,-3.3164978,1.2393036,-1.289093,1.1500397,-0.041610718,-0.48086548,-8.581645,-6.4613647,-2.961176
1570715105,-3.3164978,1.2393036,-1.289093,1.1500397,-0.041610718,-0.48086548,-8.581645,-6.4613647,-2.961176
1570715105,-3.3164978,1.2393036,-1.289093,1.1500397,-0.041610718,-0.48086548,-8.581645,-6.4613647,-2.961176
1570715105,-3.3164978,1.2393036,-1.289093,1.1500397,-0.041610718,-0.48086548,-8.581645,-6.4613647,-2.961176
1570715105,-3.3164978,1.2393036,-1.289093,1.1500397,-0.041610718,-0.48086548,-8.581645,-6.4613647,-2.961176
1570715105,-3.3164978,1.2393036,-1.289093,1.1500397,-0.041610718,-0.48086548,-8.581645,-6.4613647,-2.961176
1570715105,-3.3164978,1.2393036,-1.289093,1.1500397,-0.041610718,-0.48086548,-8.581645,-6.4613647,-2.961176
1570715105,-3.3164978,1.2393036,-1.289093,1.1500397,-0.041610718,-0.48086548,-8.581645,-6.4613647,-2.961176
1570715105,-3.3164978,1.2393036,-1.289093,1.1500397,-0.041610718,-0.48086548,-8.581645,-6.4613647,-2.961176
1570715105,-3.3164978,1.2393036,-1.289093,1.1500397,-0.041610718,-0.48086548,-8.581645,-6.4613647,-2.961176
1570715105,-3.3164978,1.2393036,-1.289093,1.1500397,-0.041610718,-0.48086548,-8.581645,-6.4613647,-2.961176
1570715105,-3.3164978,1.2393036,-1.289093,1.1500397,-0.041610718,-0.48086548,-8.581645,-6.4613647,-2.961176
1570715105,-3.3164978,1.2393036,-1.289093,1.1500397,-0.041610718,-0.48086548,-8.581645,-6.4613647,-2.961176
1570715105,-3.3164978,1.2393036,-1.289093,1.1500397,-0.041610718,-0.48086548,-8.581645,-6.4613647,-2.961176
1570715105,-3.3164978,1.2393036,-1.289093,1.1500397,-0.041610718,-0.48086548,-8.581645,-6.4613647,-2.961176
1570715105,-3.3164978,1.2393036,-1.289093,1.1500397,-0.041610718,-0.48086548,-8.581645,-6.4613647,-2.961176
1570715105,-3.3164978,1.2393036,-1.289093,1.1500397,-0.041610718,-0.48086548,-8.581645,-6.4613647,-2.961176
1570715105,-3.3164978,1.2393036,-1.289093,1.1500397,-0.041610718,-0.48086548,-8.581645,-6.4613647,-2.961176
1570715105,-3.3164978,1.2393036,-1.289093,1.1500397,-0.041610718,-0.48086548,-8.581645,-6.4613647,-2.961176
1570715105,-3.3164978,1.2393036,-1.289093,1.1500397,-0.041610718,-0.48086548,-8.581645,-6.4613647,-2.961176
1570715105,-3.3164978,1.2393036,-1.289093,1.1500397,-0.041610718,-0.48086548,-8.581645,-6.4613647,-2.961176
1570715105,-3.3164978,1.2393036,-1.289093,1.1500397,-0.041610718,-0.48086548,-8.581645,-6.4613647,-2.961176
1570715105,-3.3164978,1.2393036,-1.289093,1.1500397,-0.041610718,-0.48086548,-8.581645,-6.4613647,-2.961176
1570715105,-3.3164978,1.2393036,-1.289093,1.1500397,-0.041610718,-0.48086548,-8.581645,-6.4613647,-2.961176
1570715105,-3.3164978,1.2393036,-1.289093,1.1500397,-0.041610718,-0.48086548,-8.581645,-6.4613647,-2.961176
1570715105,-3.3164978,1.2393036,-1.289093,1.1500397,-0.041610718,-0.48086548,-8.581645,-6.4613647,-2.961176
1570715105,-3.3164978,1.2393036,-1.289093,1.1500397,-0.041610718,-0.48086548,-8.581645,-6.4613647,-2.961176
1570715105,-3.3164978,1.2393036,-1.289093,1.1500397,-0.041610718,-0.48086548,-8.581645,-6.4613647,-2.961176
1570715105,-3.3164978,1.2393036,-1.289093,1.1500397,-0.041610718,-0.48086548,-8.581645,-6.4613647,-2.961176
1570715105,-3.3164978,1.2393036,-1.289093,1.1500397,-0.041610718,-0.48086548,-8.581645,-6.4613647,-2.961176
1570715105,-3.3164978,1.2393036,-1.289093,1.1500397,-0.041610718,-0.48086548,-8.581645,-6.4613647,-2.961176
1570715105,-3.3164978,1.2393036,-1.289093,1.1500397,-0.041610718,-0.48086548,-8.581645,-6.4613647,-2.961176
1570715105,-3.3164978,1.2393036,-1.289093,1.1500397,-0.041610718,-0.48086548,-8.581645,-6.4613647,-2.961176
1570715105,-3.3164978,1.2393036,-1.289093,1.1500397,-0.041610718,-0.48086548,-8.581645,-6.4613647,-2.961176
1570715105,-3.3164978,1.2393036,-1.289093,1.1500397,-0.041610718,-0.48086548,-8.581645,-6.4613647,-2.961176
1570715105,-3.3164978,1.2393036,-1.289093,1.1500397,-0.041610718,-0.48086548,-8.581645,-6.4613647,-2.961176
1570715105,-3.3164978,1.2393036,-1.289093,1.1500397,-0.041610718,-0.48086548,-8.581645,-6.4613647,-2.961176
1570715105,-3.3164978,1.2393036,-1.289093,1.1500397,-0.041610718,-0.48086548,-8.581645,-6.4613647,-2.961176
1570715105,-3.3164978,1.2393036,-1.289093,1.1500397,-0.041610718,-0.48086548,-8.581645,-6.4613647,-2.961176
1570715105,-3.3164978,1.2393036,-1.289093,1.1500397,-0.041610718,-0.48086548,-8.581645,-6.4613647,-2.961176
1570715105,-3.3164978,1.2393036,-1.289093,1.1500397,-0.041610718,-0.48086548,-8.581645,-6.4613647,-2.961176
1570715105,-3.3164978,1.2393036,-1.289093,1.1500397,-0.041610718,-0.48086548,-8.581645,-6.4613647,-2.961176
1570715105,-3.3164978,1.2393036,-1.289093,1.1500397,-0.041610718,-0.48086548,-8.581645,-6.4613647,-2.961176
1570715105,-3.3164978,1.2393036,-1.289093,1.1500397,-0.041610718,-0.48086548,-8.581645,-6.4613647,-2.961176
1570715105,-3.3164978,1.2393036,-1.289093,1.1500397,-0.041610718,-0.48086548,-8.581645,-6.4613647,-2.961176
1570715105,-3.3164978,1.2393036,-1.289093,1.1500397,-0.041610718,-0.48086548,-8.581645,-6.4613647,-2.961176
1570715105,-3.3164978,1.2393036,-1.289093,1.1500397,-0.041610718,-0.48086548,-8.581645,-6.4613647,-2.961176
1570715105,-3.3164978,1.2393036,-1.289093,1.1500397,-0.041610718,-0.48086548,-8.581645,-6.4613647,-2.961176
1570715105,-3.3164978,1.2393036,-1.289093,1.1500397,-0.041610718,-0.48086548,-8.581645,-6.4613647,-2.961176
1570715105,-3.3164978,1.2393036,-1.289093,1.1500397,-0.041610718,-0.48086548,-8.581645,-6.4613647,-2.961176
1570715105,-3.3164978,1.2393036,-1.289093,1.1500397,-0.041610718,-0.48086548,-8.581645,-6.4613647,-2.961176
1570715105,-3.3164978,1.2393036,-1.289093,1.1500397,-0.041610718,-0.48086548,-8.581645,-6.4613647,-2.961176
1570715105,-3.3164978,1.2393036,-1.289093,1.1500397,-0.041610718,-0.48086548,-8.581645,-6.4613647,-2.961176
1570715105,-3.3164978,1.2393036,-1.289093,1.1500397,-0.041610718,-0.48086548,-8.581645,-6.4613647,-2.961176
1570715105,-3.3164978,1.2393036,-1.289093,1.1500397,-0.041610718,-0.48086548,-8.581645,-6.4613647,-2.961176
1570715105,-3.3164978,1.2393036,-1.289093,1.1500397,-0.041610718,-0.48086548,-8.581645,-6.4613647,-2.961176
1570715105,-3.3164978,1.2393036,-1.289093,1.1500397,-0.041610718,-0.48086548,-8.581645,-6.4613647,-2.961176
1570715105,-3.3164978,1.2393036,-1.289093,1.1500397,-0.041610718,-0.48086548,-8.581645,-6.4613647,-2.961176
1570715105,-3.3164978,1.2393036,-1.289093,1.1500397,-0.041610718,-0.48086548,-8.581645,-6.4613647,-2.961176
1570715105,-3.3164978,1.2393036,-1.289093,1.1500397,-0.041610718,-0.48086548,-8.581645,-6.4613647,-2.961176
1570715105,-3.3164978,1.2393036,-1.289093,1.1500397,-0.041610718,-0.48086548,-8.581645,-6.4613647,-2.961176
1570715105,-3.3164978,1.2393036,-1.289093,1.1500397,-0.041610718,-0.48086548,-8.581645,-6.4613647,-2.961176
1570715105,-3.3164978,1.2393036,-1.289093,1.1500397,-0.041610718,-0.48086548,-8.581645,-6.4613647,-2.961176
1570715105,-3.3164978,1.2393036,-1.289093,1.1500397,-0.041610718,-0.48086548,-8.581645,-6.4613647,-2.961176
1570715105,-3.3164978,1.2393036,-1.289093,1.1500397,-0.041610718,-0.48086548,-8.581645,-6.4613647,-2.961176
1570715105,-3.3164978,1.2393036,-1.289093,1.1500397,-0.041610718,-0.48086548,-8.581645,-6.4613647,-2.961176
1570715105,-3.3164978,1.2393036,-1.289093,1.1500397,-0.041610718,-0.48086548,-8.581645,-6.4613647,-2.961176
1570715105,-3.3164978,1.2393036,-1.289093,1.1500397,-0.041610718,-0.48086548,-8.581645,-6.4613647,-2.961176
1570715105,-3.3164978,1.2393036,-1.289093,1.1500397,-0.041610718,-0.48086548,-8.581645,-6.4613647,-2.961176
1570715105,-3.3164978,1.2393036,-1.289093,1.1500397,-0.041610718,-0.48086548,-8.581645,-6.4613647,-2.961176
1570715105,-3.3164978,1.2393036,-1.289093,1.1500397,-0.041610718,-0.48086548,-8.581645,-6.4613647,-2.961176
1570715105,-3.3164978,1.2393036,-1.289093,1.1500397,-0.041610718,-0.48086548,-8.581645,-6.4613647,-2.961176
1570715105,-3.3164978,1.2393036,-1.289093,1.1500397,-0.041610718,-0.48086548,-8.581645,-6.4613647,-2.961176
1570715105,-3.3164978,1.2393036,-1.289093,1.1500397,-0.041610718,-0.48086548,-8.581645,-6.4613647,-2.961176
1570715105,-3.3164978,1.2393036,-1.289093,1.1500397,-0.041610718,-0.48086548,-8.581645,-6.4613647,-2.961176
1570715105,-3.3164978,1.2393036,-1.289093,1.1500397,-0.041610718,-0.48086548,-8.581645,-6.4613647,-2.961176
1570715105,-3.3164978,1.2393036,-1.289093,1.1500397,-0.041610718,-0.48086548,-8.581645,-6.4613647,-2.961176
1570715105,-3.3164978,1.2393036,-1.289093,1.1500397,-0.041610718,-0.48086548,-8.581645,-6.4613647,-2.961176
1570715105,-3.3164978,1.2393036,-1.289093,1.1500397,-0.041610718,-0.48086548,-8.581645,-6.4613647,-2.961176
1570715105,-3.3164978,1.2393036,-1.289093,1.1500397,-0.041610718,-0.48086548,-8.581645,-6.4613647,-2.961176
1570715105,-3.3164978,1.2393036,-1.289093,1.1500397,-0.041610718,-0.48086548,-8.581645,-6.4613647,-2.961176
1570715105,-3.3164978,1.2393036,-1.289093,1.1500397,-0.041610718,-0.48086548,-8.581645,-6.4613647,-2.961176
1570715105,-3.3164978,1.2393036,-1.289093,1.1500397,-0.041610718,-0.48086548,-8.581645,-6.4613647,-2.961176
1570715105,-3.3164978,1.2393036,-1.289093,1.1500397,-0.041610718,-0.48086548,-8.581645,-6.4613647,-2.961176
1570715105,-3.3164978,1.2393036,-1.289093,1.1500397,-0.041610718,-0.48086548,-8.581645,-6.4613647,-2.961176
1570715105,-3.3164978,1.2393036,-1.289093,1.1500397,-0.041610718,-0.48086548,-8.581645,-6.4613647,-2.961176
1570715105,-3.3164978,1.2393036,-1.289093,1.1500397,-0.041610718,-0.48086548,-8.581645,-6.4613647,-2.961176
1570715105,-3.3164978,1.2393036,-1.289093,1.1500397,-0.041610718,-0.48086548,-8.581645,-6.4613647,-2.961176
1570715105,-3.3164978,1.2393036,-1.289093,1.1500397,-0.041610718,-0.48086548,-8.581645,-6.4613647,-2.961176
1570715105,-3.3164978,1.2393036,-1.289093,1.1500397,-0.041610718,-0.48086548,-8.581645,-6.4613647,-2.961176
1570715105,-3.3164978,1.2393036,-1.289093,1.1500397,-0.041610718,-0.48086548,-8.581645,-6.4613647,-2.961176
1570715105,-3.3164978,1.2393036,-1.289093,1.1500397,-0.041610718,-0.48086548,-8.581645,-6.4613647,-2.961176
1570715105,-3.3164978,1.2393036,-1.289093,1.1500397,-0.041610718,-0.48086548,-8.581645,-6.4613647,-2.961176
1570715105,-3.3164978,1.2393036,-1.289093,1.1500397,-0.041610718,-0.48086548,-8.581645,-6.4613647,-2.961176
1570715105,-3.3164978,1.2393036,-1.289093,1.1500397,-0.041610718,-0.48086548,-8.581645,-6.4613647,-2.961176
1570715105,-3.3164978,1.2393036,-1.289093,1.1500397,-0.041610718,-0.48086548,-8.581645,-6.4613647,-2.961176
1570715105,-3.3164978,1.2393036,-1.289093,1.1500397,-0.041610718,-0.48086548,-8.581645,-6.4613647,-2.961176
1570715105,-3.3164978,1.2393036,-1.289093,1.1500397,-0.041610718,-0.48086548,-8.581645,-6.4613647,-2.961176
1570715105,-3.3164978,1.2393036,-1.289093,1.1500397,-0.041610718,-0.48086548,-8.581645,-6.4613647,-2.961176
1570715105,-3.3164978,1.2393036,-1.289093,1.1500397,-0.041610718,-0.48086548,-8.581645,-6.4613647,-2.961176
1570715105,-3.3164978,1.2393036,-1.289093,1.1500397,-0.041610718,-0.48086548,-8.581645,-6.4613647,-2.961176
1570715105,-3.3164978,1.2393036,-1.289093,1.1500397,-0.041610718,-0.48086548,-8.581645,-6.4613647,-2.961176
1570715105,-3.3164978,1.2393036,-1.289093,1.1500397,-0.041610718,-0.48086548,-8.581645,-6.4613647,-2.961176
1570715105,-3.3164978,1.2393036,-1.289093,1.1500397,-0.041610718,-0.48086548,-8.581645,-6.4613647,-2.961176
1570715105,-3.3164978,1.2393036,-1.289093,1.1500397,-0.041610718,-0.48086548,-8.581645,-6.4613647,-2.961176
1570715105,-3.3164978,1.2393036,-1.289093,1.1500397,-0.041610718,-0.48086548,-8.581645,-6.4613647,-2.961176
1570715105,-3.3164978,1.2393036,-1.289093,1.1500397,-0.041610718,-0.48086548,-8.581645,-6.4613647,-2.961176
1570715105,-3.3164978,1.2393036,-1.289093,1.1500397,-0.041610718,-0.48086548,-8.581645,-6.4613647,-2.961176
1570715105,-3.3164978,1.2393036,-1.289093,1.1500397,-0.041610718,-0.48086548,-8.581645,-6.4613647,-2.961176
1570715105,-3.3164978,1.2393036,-1.289093,1.1500397,-0.041610718,-0.48086548,-8.581645,-6.4613647,-2.961176
1570715105,-3.3164978,1.2393036,-1.289093,1.1500397,-0.041610718,-0.48086548,-8.581645,-6.4613647,-2.961176
1570715105,-3.3164978,1.2393036,-1.289093,1.1500397,-0.041610718,-0.48086548,-8.581645,-6.4613647,-2.961176
1570715105,5.1949005,8.079544,-4.6122437,1.1500397,-0.041610718,-0.48086548,-2.6420841,-6.8888016,1.7799052
1570715105,-4.8487854,3.0636902,-2.850113,1.1500397,-0.041610718,-0.48086548,-2.6420841,-6.8888016,1.7799052
1570715105,-3.147705,2.1957855,1.5468445,1.903183,-3.8914795,-0.6672821,7.77314,7.129014,-0.46905828
1570715105,-3.147705,2.1957855,1.5468445,1.903183,-3.8914795,-0.6672821,7.77314,7.129014,-0.46905828
1570715105,-3.7318878,5.8648987,-5.985306,-0.23693848,-2.5087585,-0.7610321,0.8959272,-10.8691635,2.454906
1570715105,-3.7318878,5.8648987,-5.985306,-0.23693848,-2.5087585,-0.7610321,0.8959272,-10.8691635,2.454906
1570715105,-3.7318878,5.8648987,-5.985306,-0.23693848,-2.5087585,-0.7610321,0.8959272,-10.8691635,2.454906
1570715105,-3.7318878,5.8648987,-5.985306,-0.23693848,-2.5087585,-0.7610321,0.8959272,-10.8691635,2.454906
1570715105,-3.7318878,5.8648987,-5.985306,-0.23693848,-2.5087585,-0.7610321,0.8959272,-10.8691635,2.454906
1570715105,-3.7318878,5.8648987,-5.985306,-0.23693848,-2.5087585,-0.7610321,0.8959272,-10.8691635,2.454906
1570715106,-2.282196,7.5671844,-1.4064026,2.8448792,-3.5548553,-1.2446594,0.8959272,-10.8691635,2.454906
1570715106,-4.345993,3.9124298,-3.0596008,-0.36050415,0.19488525,0.5396576,-6.98732,-6.468384,-5.4672966
1570715106,-4.681183,4.2871246,-2.5675964,0.3521576,-0.20672607,0.1593628,-6.967804,-5.6512613,-5.27791
1570715106,0.36579895,1.1938171,-4.2638855,1.3630981,0.26306152,0.08479309,-2.7542694,-8.824008,-6.071151
1570715106,1.8633575,0.7604675,-1.4219666,2.016098,0.61779785,0.25630188,-0.39267206,-9.463569,-3.4836335
1570715106,2.4343872,4.5839996,2.287857,2.6126404,1.2228546,0.31062317,-0.28380418,-6.7096176,0.8402059
1570715106,5.153,19.716553,-1.3692932,3.2358246,1.3453674,-0.9314728,2.144947,6.187806,-0.9825081
1570715106,8.583893,22.574036,2.4829712,2.1503296,-1.3518829,-0.63212585,6.405355,12.865639,3.6977763
1570715106,8.0009,20.184631,-3.8053894,1.0307312,-4.8033447,-1.4108429,5.9134865,9.094312,-2.0168166
1570715106,-4.0359497,25.329758,-1.6637726,1.6251526,1.7501678,-1.0763397,-2.0795207,15.356,-3.1256585
1570715106,-3.5606995,17.403763,-0.739624,1.5058441,0.84895325,-0.8483734,-4.6265407,6.995516,1.6238945
1570715106,5.078781,11.736679,0.89323425,1.7923889,3.236206,-0.89845276,4.1718698,1.402092,3.7371025
1570715106,5.319397,6.24559,1.8724518,1.3726807,3.3683014,-0.6065674,4.524066,-3.9754066,5.2082233
1570715106,2.584015,1.0609436,0.38087463,0.07199097,2.1389923,-0.16447449,2.0324655,-8.3250885,3.9222069
1570715106,2.4200134,-2.23349,0.24440002,-1.1413422,0.57624817,-0.011077881,1.2100359,-12.261961,3.4419217
1570715106,1.5078278,-4.3152466,1.1553955,-1.7634583,-0.6733093,0.3681488,0.24134374,-14.606852,3.7726476
1570715106,0.29995728,0.45640564,-0.00579834,-2.1789093,-0.6626587,0.12527466,-0.87603617,-10.224989,2.0546734
1570715106,-3.238678,7.384033,-7.8934937,-0.49899292,-1.7577515,-0.15489197,-4.470071,-3.2921305,-5.766228
1570715106,-2.131363,4.9084167,-8.914612,0.9295349,-1.6128693,0.04005432,-4.5939226,-4.505788,-7.106617
1570715106,9.863586,26.20485,3.596283,1.9170227,-1.4104767,-0.70243835,8.826598,13.564741,3.6134272
1570715106,7.19046,19.68544,5.0771027,-0.20817566,0.12564087,0.48640442,7.7574744,10.995535,4.376264
1570715106,-5.8782806,3.4323883,7.2785645,-1.3245697,-1.7705383,0.32554626,-6.7349906,-7.012059,9.630594
1570715106,2.7037354,20.872955,-1.9486847,-2.396225,-2.0688019,1.7870941,0.009511948,8.112371,5.9345884
1570715106,-0.24234009,21.451157,2.9187164,-2.6295166,1.2004852,0.8336792,1.4587542,14.299166,6.604723
1570715106,-0.32254028,15.887039,-1.2411957,-2.9107513,1.8268738,0.4565735,-2.7766688,4.710518,-1.6774168
1570715106,2.3314362,17.19188,-4.10347,-3.0577545,1.4060822,-0.056884766,-0.17535889,7.1503773,-4.6542444
1570715106,5.0811768,11.909073,-7.5020447,-1.3256378,0.3589325,0.26908875,3.4691072,1.5350008,-9.30637
1570715106,-1.5842896,8.193268,-4.2447357,-0.7503967,-0.6626587,0.81770325,-3.3770318,-2.019988,-6.59116
1570715106,-4.653656,2.296341,-2.4933777,-0.03453064,-0.82670593,0.59825134,-6.670632,-7.994089,-4.703451
1570715106,-5.6472473,1.9671478,-1.8768616,0.9018402,-0.17475891,0.09118652,-7.987562,-8.397679,-3.9030828
1570715106,-2.0152435,2.1874084,-2.4299164,1.5122223,0.27371216,-0.4627533,-4.5110664,-8.131558,-3.823042
1570715106,3.9020233,1.6834259,-3.289444,1.9681549,-0.082092285,-0.713089,1.7889857,-8.696145,-4.2229075
1570715106,4.900406,2.3023376,-1.961853,2.5657806,1.2558899,-0.06967163,3.0947647,-8.147267,-2.4101171
1570715107,3.9151917,13.363541,2.2124329,2.78096,-0.17475891,0.08692932,2.1348128,2.5545568,2.917448
1570715107,4.5341034,40.02298,0.769928,3.003601,-1.591568,-0.97940063,3.384787,28.796171,3.4548645
1570715107,5.9430847,13.458115,-4.534424,0.6120758,-3.675232,-1.5802155,4.878899,2.829835,-2.4423177
1570715107,-2.385147,20.79036,-3.361267,1.5164948,0.79463196,-1.1349335,-0.91409093,10.063194,-2.7285469
1570715107,-2.3911285,16.234192,-1.8936157,1.7508545,1.7107544,0.02619934,-3.2937331,6.0963936,1.0569615
1570715107,2.3050995,11.4841,-0.45710754,1.204361,3.395996,0.07521057,1.3254272,1.3851175,2.8795273
1570715107,4.3449554,5.600342,3.3724213,0.31381226,3.0007935,-0.07606506,2.9078197,-4.405673,6.7641015
1570715107,3.0496979,0.098464966,1.7790833,-0.535202,1.8119507,-0.14956665,1.6918558,-9.93878,5.1552143
1570715107,1.7783661,-0.8209076,-0.6402588,-2.1778412,0.07344055,0.15083313,0.052955747,-11.236738,2.697899
1570715107,-0.5595703,2.976303,-0.6079407,-3.5690765,-0.101257324,-0.32746887,-1.5095286,-7.986019,1.0272775
1570715107,-7.966034,7.1853027,-2.8237762,-1.7293701,-3.2949219,-0.8707428,-9.295788,-3.245304,-1.221324
1570715107,1.2492523,3.5844269,-9.376694,0.59503174,-1.9505615,-0.6917877,-0.091172695,-6.6406097,-8.366061
1570715107,0.15629578,0.39175415,7.2043457,1.4078369,-1.5329742,-0.34983826,-0.6008056,-9.769695,7.5820622
1570715107,16.034637,11.182434,-39.736374,1.1788025,4.9949646,-0.5096283,12.111568,-2.429618,-33.958862
1570715107,1.1690521,35.41295,9.395035,0.46507263,-5.638504,1.9490051,-0.06970501,25.346209,14.704957
1570715107,-8.259323,11.114197,0.14624023,-1.2223053,0.462265,-0.21134949,-8.881241,1.0064764,0.45965338
1570715107,4.3377686,21.404465,1.5779724,-1.6281738,-1.7854462,1.2704315,1.7319868,7.893138,4.8059235
1570715107,3.0077972,18.300385,2.6266327,-2.1693268,2.0527039,0.9764252,2.064468,8.523048,3.485201
1570715107,-0.07833862,16.389816,-0.9275665,-2.95549,1.9078217,0.66856384,-1.8348246,5.65501,-0.6516672
1570715107,1.6371155,17.239761,-3.1924744,-2.938446,1.3080902,-0.17619324,-0.6072494,7.136899,-3.8468251
1570715107,4.9506836,12.349594,-6.886734,-1.3511963,-0.24507141,0.24671936,3.3934917,2.4040146,-8.427616
1570715107,-0.38719177,8.444656,-5.554352,-0.78448486,-0.34521484,0.8666992,-1.546285,-1.4983864,-7.6116967
1570715107,-3.899475,2.581253,-2.7064514,-0.37861633,-0.15771484,0.9678955,-5.532066,-7.25904,-5.5671654
1570715107,-5.5658417,2.6710358,-2.9327087,0.51408386,-0.6488037,0.30529785,-8.011736,-7.4836435,-4.999726
1570715107,-3.388321,2.406479,-1.2663422,1.4898529,0.4569397,-0.0068206787,-6.0708036,-7.800249,-3.0492246
1570715107,1.1941833,2.3526154,-4.3859863,1.8999786,-0.06504822,-0.35516357,-1.2481263,-7.8520546,-5.3179936
1570715107,2.6175385,3.4958496,0.04208374,2.5529938,1.322998,0.021942139,0.4893291,-6.936551,-0.7898006
1570715107,3.2807312,14.851547,0.5855713,3.255005,1.6180725,-0.72480774,0.95069194,2.7171059,1.3632264
1570715107,8.25589,33.02832,2.390808,2.573227,-0.38674927,-0.95596313,5.0123158,26.930574,4.4351034
1570715107,9.427841,16.61847,-3.9717865,0.7271271,-3.996933,-1.1892548,8.274981,6.078123,-2.207673
1570715107,7.7638702,20.738876,-6.5682983,0.94018555,-4.029953,-1.6143036,6.930744,9.691443,-4.1310263
1570715107,7.7638702,20.738876,-6.5682983,0.94018555,-4.029953,-1.6143036,6.930744,9.691443,-4.1310263
1570715107,7.7638702,20.738876,-6.5682983,0.94018555,-4.029953,-1.6143036,6.930744,9.691443,-4.1310263
1570715107,7.7638702,20.738876,-6.5682983,0.94018555,-4.029953,-1.6143036,6.930744,9.691443,-4.1310263
1570715108,7.7638702,20.738876,-6.5682983,0.94018555,-4.029953,-1.6143036,6.930744,9.691443,-4.1310263
1570715108,7.7638702,20.738876,-6.5682983,0.94018555,-4.029953,-1.6143036,6.930744,9.691443,-4.1310263
1570715108,7.7638702,20.738876,-6.5682983,0.94018555,-4.029953,-1.6143036,6.930744,9.691443,-4.1310263
1570715108,7.7638702,20.738876,-6.5682983,0.94018555,-4.029953,-1.6143036,6.930744,9.691443,-4.1310263
1570715108,7.7638702,20.738876,-6.5682983,0.94018555,-4.029953,-1.6143036,6.930744,9.691443,-4.1310263
1570715108,7.7638702,20.738876,-6.5682983,0.94018555,-4.029953,-1.6143036,6.930744,9.691443,-4.1310263
1570715108,10.537552,16.594513,-14.683441,1.8914642,-0.027755737,-0.96128845,9.000677,-0.5491009,-9.244483
1570715108,10.537552,16.594513,-14.683441,1.8914642,-0.027755737,-0.96128845,9.000677,-0.5491009,-9.244483
1570715108,10.537552,16.594513,-14.683441,1.8914642,-0.027755737,-0.96128845,9.000677,-0.5491009,-9.244483
1570715108,10.537552,16.594513,-14.683441,1.8914642,-0.027755737,-0.96128845,9.000677,-0.5491009,-9.244483
1570715108,10.537552,16.594513,-14.683441,1.8914642,-0.027755737,-0.96128845,9.000677,-0.5491009,-9.244483
1570715108,10.537552,16.594513,-14.683441,1.8914642,-0.027755737,-0.96128845,9.000677,-0.5491009,-9.244483
1570715108,10.537552,16.594513,-14.683441,1.8914642,-0.027755737,-0.96128845,9.000677,-0.5491009,-9.244483
1570715108,10.537552,16.594513,-14.683441,1.8914642,-0.027755737,-0.96128845,9.000677,-0.5491009,-9.244483
1570715108,10.537552,16.594513,-14.683441,1.8914642,-0.027755737,-0.96128845,9.000677,-0.5491009,-9.244483
1570715108,10.537552,16.594513,-14.683441,1.8914642,-0.027755737,-0.96128845,9.000677,-0.5491009,-9.244483
1570715108,10.537552,16.594513,-14.683441,1.8914642,-0.027755737,-0.96128845,9.000677,-0.5491009,-9.244483
1570715108,-1.8153229,2.0533295,-2.573578,1.809433,-0.0639801,-0.40522766,-4.3918295,-8.347692,-3.798765
1570715108,1.2648163,2.98349,-2.7076569,2.2600403,0.42178345,-0.3881836,-1.2315593,-7.540594,-3.7530222
1570715108,2.5516968,7.0979156,1.9754028,2.7607117,1.4625397,-0.18365479,-0.020284653,-4.3471327,1.565819
1570715108,5.047653,23.297089,0.41079712,3.3977509,1.6457672,-1.0337372,2.680572,9.027619,0.41889632
1570715108,8.975342,23.556854,0.09475708,1.985199,-2.292511,-0.9314728,7.349288,12.281234,1.544968
1570715108,5.6378174,20.262436,-7.8096924,1.0062256,-2.9796143,-1.7218933,5.3034654,8.758322,-5.059458
1570715108,-5.0032043,21.686981,-4.474579,1.9479218,0.52297974,-0.872879,-5.3845706,11.835365,-1.865376
1570715108,-0.9007416,15.590149,-0.98023987,1.7753448,2.4947815,-0.2667389,-2.2018623,5.8161764,1.7601388
1570715108,4.7567596,8.327347,2.6745148,1.6837311,3.7528687,-0.24543762,3.5846353,-1.7107525,6.4437695
1570715108,5.7000732,2.6722412,1.8317566,0.5087433,2.7312775,-0.007888794,4.280401,-7.2240725,5.9670134
1570715108,3.6386719,-1.8743591,0.8202057,-1.0657043,1.1344452,0.27227783,2.2100139,-11.511932,4.4945397
1570715108,1.7843628,-3.498825,0.5819855,-2.4484253,-1.0014038,0.559906,0.035084605,-13.461453,3.945441
1570715108,1.4599457,-1.2901611,0.26715088,-3.3730774,-1.384903,0.39479065,-0.18705761,-11.871397,2.6249626
1570715108,-3.6756134,5.663788,0.03012085,-2.987442,-2.1423035,-0.18258667,-4.23282,-6.385764,2.0034509
1570715108,-3.8875122,11.6588745,-23.774231,1.1170197,-2.3148804,-0.21453857,-5.679615,1.2312613,-21.186613
1570715108,0.90448,18.071747,23.692017,1.584671,-5.6438293,-1.0933838,-0.49554598,7.7909546,21.686943
1570715109,14.732193,23.383286,-14.940826,1.2576294,2.3840027,0.14338684,13.942627,15.03005,-12.30837
1570715109,-1.317337,5.905609,11.956833,-1.6281738,-1.9654694,0.4139557,-1.5881252,-4.5702105,14.012989
1570715109,0.15390015,17.268494,-1.5237122,-2.1469574,-2.4171448,1.0722961,-3.2709782,3.269639,5.122661
1570715109,2.714508,24.64502,3.7973938,-1.8401642,0.827652,1.3279572,1.7434547,15.202632,5.6517177
1570715109,-0.39196777,14.282913,0.44432068,-2.5123444,2.0484467,0.7676239,-2.3548937,3.6001978,0.51000285
1570715109,-0.55358887,16.577759,-3.4725952,-4.2391357,1.4082184,-0.089904785,-2.840396,6.095311,-3.0903823
1570715109,4.8549194,16.169556,-6.898697,-2.1629333,-0.5326996,-0.07925415,2.5891795,5.7659883,-8.910645
1570715109,0.8015442,10.642532,-7.661255,-0.6278839,-0.014968872,0.82514954,-0.9813001,0.42242336,-10.335053
1570715109,-3.4254303,4.667801,-3.5611877,-0.535202,-0.97691345,0.9849396,-5.7266493,-5.508748,-6.36409
1570715109,-6.3882446,2.3861237,-3.9155273,0.6813202,-0.90341187,0.35749817,-9.116071,-7.6647825,-6.423656
1570715109,-4.3591614,2.1838226,-1.7415924,1.6539154,-0.11404419,-0.3881836,-7.145455,-8.184864,-3.7150867
1570715109,1.631134,1.4811249,-3.4462585,2.1460571,-0.35266113,-0.5735321,-0.95517826,-8.770886,-4.7353716
1570715109,2.2691803,3.8872986,0.3569336,2.8491364,1.4060822,-0.13038635,-0.14286137,-6.7124567,-0.4137989
1570715109,4.1701813,17.640793,0.59394836,3.7886963,1.977066,-0.6939087,2.002985,6.303152,1.1900758
1570715109,6.283066,32.075424,2.718811,2.7032013,-0.2727661,-0.6949768,4.223383,23.732563,4.218449
1570715109,5.6031036,17.395386,-5.8572235,1.3598938,-3.1915894,-1.4257507,4.2194595,6.7173605,-3.5055184
1570715109,-0.55358887,22.593185,-3.124237,2.190796,0.4335022,-1.1700897,-0.6268623,12.4467745,-0.86154747
1570715109,-0.87680054,16.754929,0.1330719,2.0235596,2.309433,-0.6917877,-1.9003574,6.685667,3.347574
1570715109,3.3094635,9.884766,1.7479553,1.8808136,3.645279,-0.523468,1.9370584,-0.045244217,5.551999
1570715109,6.825348,3.8645477,2.8911896,0.7111511,2.741928,-0.34024048,5.3484297,-5.9646435,7.0132675
1570715109,3.9882202,-2.0610962,-0.33499146,-0.9954071,0.89689636,-0.09310913,2.551597,-11.907031,3.6233606
1570715109,0.5573273,-4.7174683,2.1238403,-2.5048828,-0.8629303,0.22434998,-0.91388583,-14.994687,5.4405327
1570715109,1.354599,-2.0491333,0.9566803,-3.653244,-0.8480072,0.35324097,0.06416929,-12.973209,2.9089377
1570715109,-7.582962,5.936737,1.3756561,-2.6103516,-2.9593658,-0.62893677,-8.433946,-4.921694,2.9816246
1570715109,-2.3240967,7.835327,-15.540573,0.946579,-1.6927643,-0.14849854,-4.4153376,-1.9216833,-15.797639
1570715109,4.8632965,5.4016266,15.136337,0.6866455,-1.9676056,-0.3466339,3.0257354,-5.2492495,15.398925
1570715109,10.8715515,33.781296,14.661087,1.6869354,-0.19075012,1.0371399,9.806421,24.967632,17.592125
1570715109,-3.594223,0.87898254,6.3077087,0.25201416,-0.47943115,-0.70350647,-4.54999,-8.599068,8.505192
1570715109,-5.3359985,13.078629,13.019867,-2.2801056,-2.1614838,0.8794861,-8.076085,-0.27035046,13.719254
1570715109,16.254913,33.094162,-2.1521912,-3.4252777,2.9123688,1.9404907,14.848378,24.012623,-4.242728
1570715109,0.03060913,13.65683,-0.96707153,-2.2588043,2.5065002,0.42674255,-1.9554135,2.9671946,-0.31714168
1570715109,2.7204895,16.626846,-2.8860168,-3.3059692,1.6148834,-0.23371887,1.1145561,5.756896,-3.3013341
1570715109,6.43869,15.087372,-7.2135315,-2.730713,0.2854309,-0.035583496,4.6580567,4.5279913,-8.773353
1570715110,3.133484,11.52121,-8.384308,-0.9815521,-0.7979431,1.0648346,1.7677379,1.1160545,-10.645727
1570715110,-4.302902,5.5273285,-4.731949,0.014465332,-1.6086121,1.2928009,-6.325284,-4.633239,-7.10676
1570715110,-10.159119,2.01622,-2.7387695,1.1138153,-1.4594727,0.20303345,-12.719463,-8.136497,-4.400058
1570715110,-3.9090576,2.0677032,-3.4319,2.208908,-0.7201843,-0.52560425,-6.621293,-8.395055,-4.411062
1570715110,1.1283417,1.8091278,-4.7463074,2.3942719,-1.2144623,-0.5660858,-1.5839598,-8.824401,-5.198259
1570715110,3.0413055,6.18573,1.6629639,3.2326355,2.2433777,0.13059998,0.6374421,-5.144845,0.44098794
1570715110,2.9216003,20.292358,4.066742,4.153015,3.137146,-0.45103455,0.71419,8.813714,5.363017
1570715110,6.826538,23.835785,-1.309433,1.840332,-1.4200592,-0.8952484,4.370351,17.93174,1.3527336
1570715110,6.006531,16.400589,-9.048691,0.9018402,-3.789215,-2.2364197,4.5595107,5.6591454,-6.026973
1570715110,-3.9294128,23.704102,-5.2850037,1.6166229,0.30247498,-1.3597107,-4.2257013,13.391501,-1.9394779
1570715110,-3.8539886,14.795273,0.14624023,1.6198273,3.794403,-0.48937988,-4.9643264,5.525426,3.6068928
1570715110,4.465866,7.7838593,2.3309479,1.3471069,4.2588654,-0.08564758,2.3221054,-1.4811087,6.3155484
1570715110,6.7080383,5.3549347,2.6900787,0.9646759,3.808258,-0.12294006,5.330879,-4.408784,6.9793673
1570715110,6.7080383,5.3549347,2.6900787,0.9646759,3.808258,-0.12294006,5.330879,-4.408784,6.9793673
1570715110,6.7080383,5.3549347,2.6900787,0.9646759,3.808258,-0.12294006,5.330879,-4.408784,6.9793673
1570715110,6.7080383,5.3549347,2.6900787,0.9646759,3.808258,-0.12294006,5.330879,-4.408784,6.9793673
1570715110,6.7080383,5.3549347,2.6900787,0.9646759,3.808258,-0.12294006,5.330879,-4.408784,6.9793673
1570715110,6.7080383,5.3549347,2.6900787,0.9646759,3.808258,-0.12294006,5.330879,-4.408784,6.9793673
1570715110,6.7080383,5.3549347,2.6900787,0.9646759,3.808258,-0.12294006,5.330879,-4.408784,6.9793673
1570715110,6.7080383,5.3549347,2.6900787,0.9646759,3.808258,-0.12294006,5.330879,-4.408784,6.9793673
1570715110,6.7080383,5.3549347,2.6900787,0.9646759,3.808258,-0.12294006,5.330879,-4.408784,6.9793673
1570715110,-3.772583,3.6981506,8.138077,0.050689697,-0.93322754,-0.0909729,5.330879,-4.408784,6.9793673
1570715110,5.33136,19.261658,1.8425293,-1.7485504,-2.4906464,1.5431366,1.7651769,6.842326,8.459852
1570715110,5.33136,19.261658,1.8425293,-1.7485504,-2.4906464,1.5431366,1.7651769,6.842326,8.459852
1570715110,5.33136,19.261658,1.8425293,-1.7485504,-2.4906464,1.5431366,1.7651769,6.842326,8.459852
1570715110,5.33136,19.261658,1.8425293,-1.7485504,-2.4906464,1.5431366,1.7651769,6.842326,8.459852
1570715110,5.33136,19.261658,1.8425293,-1.7485504,-2.4906464,1.5431366,1.7651769,6.842326,8.459852
1570715110,5.33136,19.261658,1.8425293,-1.7485504,-2.4906464,1.5431366,1.7651769,6.842326,8.459852
1570715110,5.33136,19.261658,1.8425293,-1.7485504,-2.4906464,1.5431366,1.7651769,6.842326,8.459852
1570715110,5.33136,19.261658,1.8425293,-1.7485504,-2.4906464,1.5431366,1.7651769,6.842326,8.459852
1570715110,5.33136,19.261658,1.8425293,-1.7485504,-2.4906464,1.5431366,1.7651769,6.842326,8.459852
1570715110,2.406845,2.8721466,-0.3361969,2.558319,0.96507263,0.1327362,-8.562325,-8.507003,-2.5347326
1570715110,2.6067657,5.9355316,2.189682,2.8789673,1.2825165,0.21156311,0.44779515,-4.538535,1.9898921
1570715111,2.6067657,5.9355316,2.189682,2.8789673,1.2825165,0.21156311,0.44779515,-4.538535,1.9898921
1570715111,2.6067657,5.9355316,2.189682,2.8789673,1.2825165,0.21156311,0.44779515,-4.538535,1.9898921
1570715111,2.6067657,5.9355316,2.189682,2.8789673,1.2825165,0.21156311,0.44779515,-4.538535,1.9898921
1570715111,2.6067657,5.9355316,2.189682,2.8789673,1.2825165,0.21156311,0.44779515,-4.538535,1.9898921
1570715111,2.6067657,5.9355316,2.189682,2.8789673,1.2825165,0.21156311,0.44779515,-4.538535,1.9898921
1570715111,2.6067657,5.9355316,2.189682,2.8789673,1.2825165,0.21156311,0.44779515,-4.538535,1.9898921
1570715111,2.6067657,5.9355316,2.189682,2.8789673,1.2825165,0.21156311,0.44779515,-4.538535,1.9898921
1570715111,2.6067657,5.9355316,2.189682,2.8789673,1.2825165,0.21156311,0.44779515,-4.538535,1.9898921
1570715111,2.6067657,5.9355316,2.189682,2.8789673,1.2825165,0.21156311,0.44779515,-4.538535,1.9898921
1570715111,2.6067657,5.9355316,2.189682,2.8789673,1.2825165,0.21156311,0.44779515,-4.538535,1.9898921
1570715111,2.6067657,5.9355316,2.189682,2.8789673,1.2825165,0.21156311,0.44779515,-4.538535,1.9898921
1570715111,-3.8456116,4.430771,-8.923004,-0.037734985,-0.13108826,-0.58099365,-4.699319,-5.385502,-9.911421
1570715111,5.781479,9.878784,11.960419,1.6677551,-3.3950653,-0.9911194,3.278919,-3.4294872,18.044067
1570715111,7.660919,23.328217,7.407852,2.1790771,-1.7332458,0.9689636,8.2252445,16.217558,19.83059
1570715111,-2.7143555,2.880539,7.0894165,-0.8473358,-0.15026855,-0.34877014,-2.4626079,-7.821659,6.370423
1570715111,3.6841583,19.959564,4.889145,-1.8369598,-2.770813,1.3908081,-0.19069523,5.914213,13.952057
1570715111,-1.5531616,17.66713,10.582565,-1.884903,2.3243408,0.39372253,2.0766091,12.396303,10.711811
1570715111,1.7640076,16.21025,-2.1342468,-2.7413788,1.5957031,0.6003876,-0.4646281,5.388797,-2.6599905
1570715111,2.1865845,16.971603,-3.0979004,-3.7469788,1.5083466,-0.05369568,0.647161,6.577015,-3.037519
1570715111,7.3065796,16.666351,-7.828842,-2.1629333,-0.40060425,0.36709595,5.1902575,6.7441273,-9.180468
1570715111,-1.9984894,10.132568,-8.161636,-0.6172333,-0.6264343,1.3151703,-2.0493236,1.1265364,-11.17164
1570715111,-5.646042,3.4671173,-3.0871277,-0.08354187,-1.1121979,0.9721527,-7.052509,-5.517771,-6.485396
1570715111,-6.2685394,2.141922,-4.213608,1.0136871,-0.71698,0.15510559,-9.9292,-7.1585464,-5.8855066
1570715111,-4.107773,3.0098267,-2.5376587,1.873352,-0.04800415,-0.3839264,-7.02048,-7.2370577,-3.611281
1570715111,0.23530579,2.2628326,-2.4802094,2.2483215,-0.07676697,-0.47872925,-2.2304742,-7.751526,-3.4986768
1570715111,2.4643097,2.2807922,-1.2914734,2.7372894,1.5435028,-0.080322266,0.13667393,-7.9328327,-2.0783298
1570715111,3.9690704,12.306503,2.9905548,2.939682,1.1940918,-0.15596008,1.9567947,-1.1959124,3.6444561
1570715111,5.181732,40.02298,3.3700256,3.5394287,0.13735962,-1.3799438,4.517988,29.15382,8.168098
1570715111,5.686905,14.569031,-4.347687,0.9742737,-2.8911896,-1.6132355,4.5315356,5.8900433,-1.5669291
1570715111,0.90448,21.952744,-5.9374237,1.3811951,-0.5007324,-1.3575745,1.4257796,10.401613,-4.1949224
1570715111,-3.4469757,19.13237,-3.1134644,1.6858673,1.8705444,-0.6811371,-4.7983704,11.164216,-0.9907067
1570715111,0.8230896,12.420227,1.5061493,1.4376678,4.2119904,-0.3839264,-0.67609406,3.292735,3.831162
1570715111,6.7607117,5.8804626,3.213211,0.64404297,3.362976,-0.32533264,4.8362675,-2.7760563,6.670589
1570715111,6.2064514,-0.763443,1.1637726,-0.70458984,1.4167328,-0.14956665,6.2406197,-9.3360815,5.446855
1570715112,2.220108,-3.06427,2.8744354,-2.393036,-0.8629303,0.30210876,1.162038,-12.98523,5.549604
1570715112,2.9802551,-1.0471497,-0.27993774,-3.4582977,-0.85440063,0.47787476,2.0283146,-11.988497,1.9491856
1570715112,-3.5535126,4.8521576,3.5136871,-3.556305,-1.8482971,-0.52134705,-2.891963,-6.678405,5.037546
1570715112,-5.1767883,9.997299,-14.830688,0.051757812,-4.0864105,-0.5128174,-7.477143,0.5113735,-10.225611
1570715112,-5.40184,4.5947876,-1.9881897,-0.09844971,-0.73509216,-0.50109863,-5.788833,-3.649744,-8.483548
1570715112,7.11145,5.9906006,13.927261,1.0531006,-3.2981262,-1.1818085,5.0244713,-6.964032,19.113808
1570715112,5.7695007,29.062332,16.338226,1.5356598,-2.066681,1.0616455,5.0878744,23.46471,24.058754
1570715112,-2.9334106,3.3102875,3.2515106,-0.004714966,-0.39207458,-0.15914917,-2.4206579,-5.439517,1.117109
1570715112,4.101944,14.243408,11.858673,-0.66304016,-2.199829,1.3759003,1.868674,1.1411648,15.288402
1570715112,1.7280884,18.709793,8.466095,-2.951233,3.584549,1.0083771,7.8960614,16.408371,2.3275552
1570715112,-4.27417,16.96083,-3.024887,-3.1099548,1.5999603,0.69944763,-7.180786,6.140854,-3.24939
1570715112,-0.44943237,15.970825,-2.771103,-3.131256,0.50486755,-0.31681824,-2.863471,6.7438583,-3.4794366
1570715112,5.4522705,13.545502,-8.554291,-2.3131409,0.368515,-0.0632782,3.0182014,4.1087627,-10.552855
1570715112,1.0672913,9.6154175,-6.716736,-0.6800842,-0.5753021,0.9615021,1.4489194,0.4641409,-9.548822
1570715112,-4.3160706,4.1051636,-2.9925537,0.31274414,-2.2914429,0.8880005,-5.5454044,-4.9428377,-6.277837
1570715112,-6.527115,1.3853607,-2.988968,1.3023682,0.12564087,0.3095703,-10.400717,-8.01042,-5.49288
1570715112,-0.94143677,2.6734314,-3.5372467,2.238739,-0.18754578,-0.28485107,-4.5749326,-7.4596786,-4.9797487
1570715112,1.8238678,2.821869,-1.6721649,2.8555298,0.5038147,-0.115478516,-0.649729,-7.6510983,-3.5150979
1570715112,2.327835,9.4765625,1.7096558,3.0930786,1.5978394,-0.26567078,0.28973484,-2.0318518,1.5151708
1570715112,2.0501099,28.79657,4.0056915,3.5234528,1.5871887,-1.1487885,0.9622855,11.498351,1.8221868
1570715112,7.8392944,19.811127,-0.8246155,1.9777527,-1.7598724,-0.8015137,4.896842,13.27886,3.3900585
1570715112,4.1605988,23.195328,-7.7582245,1.2448425,-2.4629517,-1.6111145,5.5205746,10.250624,-4.683505
1570715112,-4.1221466,21.519394,-4.9522095,1.7188873,-0.2908783,-1.1519775,-4.0261955,13.275374,-2.9417777
1570715112,-0.17289734,13.8759,0.60472107,1.5825348,3.3310242,-0.6150818,-1.3743374,4.554967,3.5141668
1570715112,2.9132233,6.743576,2.533249,1.473877,3.8508759,-0.3381195,1.5910633,-1.8788958,6.1701593
1570715112,6.229187,0.5737152,1.9406891,0.14337158,2.5405884,0.03791809,4.8467555,-8.228607,6.037937
1570715112,3.9774475,-3.2761536,1.8150024,-1.6004791,0.5815735,0.28825378,3.1295054,-12.8353405,5.2590218
1570715112,2.7827454,-3.5131836,1.4833984,-3.0204773,-0.7691803,0.55563354,0.6519507,-13.665162,4.734723
1570715112,1.8454132,0.55696106,1.030899,-4.0122375,-1.2538757,0.30210876,1.0304214,-10.864292,2.4415114
1570715112,-4.361557,7.7347717,1.1781311,-2.9608154,-3.4568481,-0.46488953,-4.2936516,-4.1143103,3.2994614
1570715112,-3.8288422,9.804565,-19.417984,0.62272644,-2.13591,-0.52453613,-5.5685363,0.1644907,-18.512463
1570715112,-1.0300293,16.687897,19.43991,1.1361847,-4.5604553,-1.5514526,-3.7014751,5.592778,12.655708
1570715112,9.749863,24.50856,-19.626282,1.0562897,0.368515,0.79426575,6.5841136,16.45235,-12.971162
1570715113,1.3162842,6.762726,8.639664,-1.1019287,0.72325134,0.4065094,2.461463,-2.4888468,9.252999
1570715113,2.1303253,17.555786,8.616928,-1.6196442,-2.485321,1.7167816,0.15903616,4.213764,9.750192
1570715113,2.3290405,23.210892,5.7977448,-2.346161,2.8314056,0.97854614,3.4957643,15.551869,4.710338
1570715113,-3.44339,17.645569,-1.814621,-3.307022,2.5587006,0.23925781,-5.7713966,6.968034,-3.1576705
1570715113,1.038559,19.268845,-2.399994,-3.7086334,0.9363098,-0.51174927,-1.83846,9.14622,-3.246455
1570715121,1.038559,19.268845,-2.399994,-3.7086334,0.9363098,-0.51174927,-1.83846,9.14622,-3.246455
1570715121,1.038559,19.268845,-2.399994,-3.7086334,0.9363098,-0.51174927,-1.83846,9.14622,-3.246455
1570715121,1.038559,19.268845,-2.399994,-3.7086334,0.9363098,-0.51174927,-1.83846,9.14622,-3.246455
1570715121,1.038559,19.268845,-2.399994,-3.7086334,0.9363098,-0.51174927,-1.83846,9.14622,-3.246455
1570715121,1.038559,19.268845,-2.399994,-3.7086334,0.9363098,-0.51174927,-1.83846,9.14622,-3.246455
1570715121,1.038559,19.268845,-2.399994,-3.7086334,0.9363098,-0.51174927,-1.83846,9.14622,-3.246455
1570715121,1.038559,19.268845,-2.399994,-3.7086334,0.9363098,-0.51174927,-1.83846,9.14622,-3.246455
1570715121,1.038559,19.268845,-2.399994,-3.7086334,0.9363098,-0.51174927,-1.83846,9.14622,-3.246455
1570715121,1.038559,19.268845,-2.399994,-3.7086334,0.9363098,-0.51174927,-1.83846,9.14622,-3.246455
1570715121,1.038559,19.268845,-2.399994,-3.7086334,0.9363098,-0.51174927,-1.83846,9.14622,-3.246455
1570715121,1.038559,19.268845,-2.399994,-3.7086334,0.9363098,-0.51174927,-1.83846,9.14622,-3.246455
1570715121,1.038559,19.268845,-2.399994,-3.7086334,0.9363098,-0.51174927,-1.83846,9.14622,-3.246455
1570715121,1.038559,19.268845,-2.399994,-3.7086334,0.9363098,-0.51174927,-1.83846,9.14622,-3.246455
1570715121,1.038559,19.268845,-2.399994,-3.7086334,0.9363098,-0.51174927,-1.83846,9.14622,-3.246455
1570715121,1.038559,19.268845,-2.399994,-3.7086334,0.9363098,-0.51174927,-1.83846,9.14622,-3.246455
1570715121,1.038559,19.268845,-2.399994,-3.7086334,0.9363098,-0.51174927,-1.83846,9.14622,-3.246455
1570715121,1.038559,19.268845,-2.399994,-3.7086334,0.9363098,-0.51174927,-1.83846,9.14622,-3.246455
1570715121,1.038559,19.268845,-2.399994,-3.7086334,0.9363098,-0.51174927,-1.83846,9.14622,-3.246455
1570715121,1.038559,19.268845,-2.399994,-3.7086334,0.9363098,-0.51174927,-1.83846,9.14622,-3.246455
1570715121,1.038559,19.268845,-2.399994,-3.7086334,0.9363098,-0.51174927,-1.83846,9.14622,-3.246455
1570715121,1.038559,19.268845,-2.399994,-3.7086334,0.9363098,-0.51174927,-1.83846,9.14622,-3.246455
1570715121,1.038559,19.268845,-2.399994,-3.7086334,0.9363098,-0.51174927,-1.83846,9.14622,-3.246455
1570715121,1.038559,19.268845,-2.399994,-3.7086334,0.9363098,-0.51174927,-1.83846,9.14622,-3.246455
1570715121,1.038559,19.268845,-2.399994,-3.7086334,0.9363098,-0.51174927,-1.83846,9.14622,-3.246455
1570715121,1.038559,19.268845,-2.399994,-3.7086334,0.9363098,-0.51174927,-1.83846,9.14622,-3.246455
1570715121,1.038559,19.268845,-2.399994,-3.7086334,0.9363098,-0.51174927,-1.83846,9.14622,-3.246455
1570715121,1.038559,19.268845,-2.399994,-3.7086334,0.9363098,-0.51174927,-1.83846,9.14622,-3.246455
1570715121,1.038559,19.268845,-2.399994,-3.7086334,0.9363098,-0.51174927,-1.83846,9.14622,-3.246455
1570715121,1.038559,19.268845,-2.399994,-3.7086334,0.9363098,-0.51174927,-1.83846,9.14622,-3.246455
1570715121,1.038559,19.268845,-2.399994,-3.7086334,0.9363098,-0.51174927,-1.83846,9.14622,-3.246455
1570715121,1.038559,19.268845,-2.399994,-3.7086334,0.9363098,-0.51174927,-1.83846,9.14622,-3.246455
1570715121,1.038559,19.268845,-2.399994,-3.7086334,0.9363098,-0.51174927,-1.83846,9.14622,-3.246455
1570715121,1.038559,19.268845,-2.399994,-3.7086334,0.9363098,-0.51174927,-1.83846,9.14622,-3.246455
1570715121,1.038559,19.268845,-2.399994,-3.7086334,0.9363098,-0.51174927,-1.83846,9.14622,-3.246455
1570715121,1.038559,19.268845,-2.399994,-3.7086334,0.9363098,-0.51174927,-1.83846,9.14622,-3.246455
1570715121,1.038559,19.268845,-2.399994,-3.7086334,0.9363098,-0.51174927,-1.83846,9.14622,-3.246455
1570715121,1.038559,19.268845,-2.399994,-3.7086334,0.9363098,-0.51174927,-1.83846,9.14622,-3.246455
1570715121,1.038559,19.268845,-2.399994,-3.7086334,0.9363098,-0.51174927,-1.83846,9.14622,-3.246455
1570715121,1.038559,19.268845,-2.399994,-3.7086334,0.9363098,-0.51174927,-1.83846,9.14622,-3.246455
1570715121,1.038559,19.268845,-2.399994,-3.7086334,0.9363098,-0.51174927,-1.83846,9.14622,-3.246455
1570715121,1.038559,19.268845,-2.399994,-3.7086334,0.9363098,-0.51174927,-1.83846,9.14622,-3.246455
1570715121,1.038559,19.268845,-2.399994,-3.7086334,0.9363098,-0.51174927,-1.83846,9.14622,-3.246455
1570715121,1.038559,19.268845,-2.399994,-3.7086334,0.9363098,-0.51174927,-1.83846,9.14622,-3.246455
1570715121,1.038559,19.268845,-2.399994,-3.7086334,0.9363098,-0.51174927,-1.83846,9.14622,-3.246455
1570715121,1.038559,19.268845,-2.399994,-3.7086334,0.9363098,-0.51174927,-1.83846,9.14622,-3.246455
1570715121,1.038559,19.268845,-2.399994,-3.7086334,0.9363098,-0.51174927,-1.83846,9.14622,-3.246455
1570715121,1.038559,19.268845,-2.399994,-3.7086334,0.9363098,-0.51174927,-1.83846,9.14622,-3.246455
1570715121,1.038559,19.268845,-2.399994,-3.7086334,0.9363098,-0.51174927,-1.83846,9.14622,-3.246455
1570715121,1.038559,19.268845,-2.399994,-3.7086334,0.9363098,-0.51174927,-1.83846,9.14622,-3.246455
1570715121,1.038559,19.268845,-2.399994,-3.7086334,0.9363098,-0.51174927,-1.83846,9.14622,-3.246455
1570715121,1.038559,19.268845,-2.399994,-3.7086334,0.9363098,-0.51174927,-1.83846,9.14622,-3.246455
1570715121,1.038559,19.268845,-2.399994,-3.7086334,0.9363098,-0.51174927,-1.83846,9.14622,-3.246455
1570715121,1.038559,19.268845,-2.399994,-3.7086334,0.9363098,-0.51174927,-1.83846,9.14622,-3.246455
1570715121,1.038559,19.268845,-2.399994,-3.7086334,0.9363098,-0.51174927,-1.83846,9.14622,-3.246455
1570715121,1.038559,19.268845,-2.399994,-3.7086334,0.9363098,-0.51174927,-1.83846,9.14622,-3.246455
1570715121,1.038559,19.268845,-2.399994,-3.7086334,0.9363098,-0.51174927,-1.83846,9.14622,-3.246455
1570715121,1.038559,19.268845,-2.399994,-3.7086334,0.9363098,-0.51174927,-1.83846,9.14622,-3.246455
1570715121,1.038559,19.268845,-2.399994,-3.7086334,0.9363098,-0.51174927,-1.83846,9.14622,-3.246455
1570715121,1.038559,19.268845,-2.399994,-3.7086334,0.9363098,-0.51174927,-1.83846,9.14622,-3.246455
1570715121,1.038559,19.268845,-2.399994,-3.7086334,0.9363098,-0.51174927,-1.83846,9.14622,-3.246455
1570715121,1.038559,19.268845,-2.399994,-3.7086334,0.9363098,-0.51174927,-1.83846,9.14622,-3.246455
1570715121,1.038559,19.268845,-2.399994,-3.7086334,0.9363098,-0.51174927,-1.83846,9.14622,-3.246455
1570715121,1.038559,19.268845,-2.399994,-3.7086334,0.9363098,-0.51174927,-1.83846,9.14622,-3.246455
1570715121,1.038559,19.268845,-2.399994,-3.7086334,0.9363098,-0.51174927,-1.83846,9.14622,-3.246455
1570715121,1.038559,19.268845,-2.399994,-3.7086334,0.9363098,-0.51174927,-1.83846,9.14622,-3.246455
1570715121,1.038559,19.268845,-2.399994,-3.7086334,0.9363098,-0.51174927,-1.83846,9.14622,-3.246455
1570715121,1.038559,19.268845,-2.399994,-3.7086334,0.9363098,-0.51174927,-1.83846,9.14622,-3.246455
1570715121,1.038559,19.268845,-2.399994,-3.7086334,0.9363098,-0.51174927,-1.83846,9.14622,-3.246455
1570715121,1.038559,19.268845,-2.399994,-3.7086334,0.9363098,-0.51174927,-1.83846,9.14622,-3.246455
1570715121,1.038559,19.268845,-2.399994,-3.7086334,0.9363098,-0.51174927,-1.83846,9.14622,-3.246455
1570715121,1.038559,19.268845,-2.399994,-3.7086334,0.9363098,-0.51174927,-1.83846,9.14622,-3.246455
1570715121,1.038559,19.268845,-2.399994,-3.7086334,0.9363098,-0.51174927,-1.83846,9.14622,-3.246455
1570715121,1.038559,19.268845,-2.399994,-3.7086334,0.9363098,-0.51174927,-1.83846,9.14622,-3.246455
1570715121,1.038559,19.268845,-2.399994,-3.7086334,0.9363098,-0.51174927,-1.83846,9.14622,-3.246455
1570715121,1.038559,19.268845,-2.399994,-3.7086334,0.9363098,-0.51174927,-1.83846,9.14622,-3.246455
1570715121,1.038559,19.268845,-2.399994,-3.7086334,0.9363098,-0.51174927,-1.83846,9.14622,-3.246455
1570715121,1.038559,19.268845,-2.399994,-3.7086334,0.9363098,-0.51174927,-1.83846,9.14622,-3.246455
1570715121,1.038559,19.268845,-2.399994,-3.7086334,0.9363098,-0.51174927,-1.83846,9.14622,-3.246455
1570715121,1.038559,19.268845,-2.399994,-3.7086334,0.9363098,-0.51174927,-1.83846,9.14622,-3.246455
1570715121,1.038559,19.268845,-2.399994,-3.7086334,0.9363098,-0.51174927,-1.83846,9.14622,-3.246455
1570715121,1.038559,19.268845,-2.399994,-3.7086334,0.9363098,-0.51174927,-1.83846,9.14622,-3.246455
1570715121,1.038559,19.268845,-2.399994,-3.7086334,0.9363098,-0.51174927,-1.83846,9.14622,-3.246455
1570715121,1.038559,19.268845,-2.399994,-3.7086334,0.9363098,-0.51174927,-1.83846,9.14622,-3.246455
1570715121,1.038559,19.268845,-2.399994,-3.7086334,0.9363098,-0.51174927,-1.83846,9.14622,-3.246455
1570715121,1.038559,19.268845,-2.399994,-3.7086334,0.9363098,-0.51174927,-1.83846,9.14622,-3.246455
1570715121,1.038559,19.268845,-2.399994,-3.7086334,0.9363098,-0.51174927,-1.83846,9.14622,-3.246455
1570715121,1.038559,19.268845,-2.399994,-3.7086334,0.9363098,-0.51174927,-1.83846,9.14622,-3.246455
1570715121,1.038559,19.268845,-2.399994,-3.7086334,0.9363098,-0.51174927,-1.83846,9.14622,-3.246455
1570715121,1.038559,19.268845,-2.399994,-3.7086334,0.9363098,-0.51174927,-1.83846,9.14622,-3.246455
1570715121,1.038559,19.268845,-2.399994,-3.7086334,0.9363098,-0.51174927,-1.83846,9.14622,-3.246455
1570715121,1.038559,19.268845,-2.399994,-3.7086334,0.9363098,-0.51174927,-1.83846,9.14622,-3.246455
1570715121,1.038559,19.268845,-2.399994,-3.7086334,0.9363098,-0.51174927,-1.83846,9.14622,-3.246455
1570715121,1.038559,19.268845,-2.399994,-3.7086334,0.9363098,-0.51174927,-1.83846,9.14622,-3.246455
1570715121,1.038559,19.268845,-2.399994,-3.7086334,0.9363098,-0.51174927,-1.83846,9.14622,-3.246455
1570715121,1.038559,19.268845,-2.399994,-3.7086334,0.9363098,-0.51174927,-1.83846,9.14622,-3.246455
1570715121,1.038559,19.268845,-2.399994,-3.7086334,0.9363098,-0.51174927,-1.83846,9.14622,-3.246455
1570715121,1.038559,19.268845,-2.399994,-3.7086334,0.9363098,-0.51174927,-1.83846,9.14622,-3.246455
1570715121,1.038559,19.268845,-2.399994,-3.7086334,0.9363098,-0.51174927,-1.83846,9.14622,-3.246455
1570715121,1.038559,19.268845,-2.399994,-3.7086334,0.9363098,-0.51174927,-1.83846,9.14622,-3.246455
1570715121,1.038559,19.268845,-2.399994,-3.7086334,0.9363098,-0.51174927,-1.83846,9.14622,-3.246455
1570715121,1.038559,19.268845,-2.399994,-3.7086334,0.9363098,-0.51174927,-1.83846,9.14622,-3.246455
1570715121,1.038559,19.268845,-2.399994,-3.7086334,0.9363098,-0.51174927,-1.83846,9.14622,-3.246455
1570715121,1.038559,19.268845,-2.399994,-3.7086334,0.9363098,-0.51174927,-1.83846,9.14622,-3.246455
1570715121,1.038559,19.268845,-2.399994,-3.7086334,0.9363098,-0.51174927,-1.83846,9.14622,-3.246455
1570715121,1.038559,19.268845,-2.399994,-3.7086334,0.9363098,-0.51174927,-1.83846,9.14622,-3.246455
1570715121,1.038559,19.268845,-2.399994,-3.7086334,0.9363098,-0.51174927,-1.83846,9.14622,-3.246455
1570715121,1.038559,19.268845,-2.399994,-3.7086334,0.9363098,-0.51174927,-1.83846,9.14622,-3.246455
1570715121,1.038559,19.268845,-2.399994,-3.7086334,0.9363098,-0.51174927,-1.83846,9.14622,-3.246455
1570715121,1.038559,19.268845,-2.399994,-3.7086334,0.9363098,-0.51174927,-1.83846,9.14622,-3.246455
1570715121,1.038559,19.268845,-2.399994,-3.7086334,0.9363098,-0.51174927,-1.83846,9.14622,-3.246455
1570715121,1.038559,19.268845,-2.399994,-3.7086334,0.9363098,-0.51174927,-1.83846,9.14622,-3.246455
1570715121,1.038559,19.268845,-2.399994,-3.7086334,0.9363098,-0.51174927,-1.83846,9.14622,-3.246455
1570715121,1.038559,19.268845,-2.399994,-3.7086334,0.9363098,-0.51174927,-1.83846,9.14622,-3.246455
1570715121,1.038559,19.268845,-2.399994,-3.7086334,0.9363098,-0.51174927,-1.83846,9.14622,-3.246455
1570715121,1.038559,19.268845,-2.399994,-3.7086334,0.9363098,-0.51174927,-1.83846,9.14622,-3.246455
1570715121,1.038559,19.268845,-2.399994,-3.7086334,0.9363098,-0.51174927,-1.83846,9.14622,-3.246455
1570715121,1.038559,19.268845,-2.399994,-3.7086334,0.9363098,-0.51174927,-1.83846,9.14622,-3.246455
1570715121,1.038559,19.268845,-2.399994,-3.7086334,0.9363098,-0.51174927,-1.83846,9.14622,-3.246455
1570715121,1.038559,19.268845,-2.399994,-3.7086334,0.9363098,-0.51174927,-1.83846,9.14622,-3.246455
1570715121,1.038559,19.268845,-2.399994,-3.7086334,0.9363098,-0.51174927,-1.83846,9.14622,-3.246455
1570715121,1.038559,19.268845,-2.399994,-3.7086334,0.9363098,-0.51174927,-1.83846,9.14622,-3.246455
1570715121,1.038559,19.268845,-2.399994,-3.7086334,0.9363098,-0.51174927,-1.83846,9.14622,-3.246455
1570715121,1.038559,19.268845,-2.399994,-3.7086334,0.9363098,-0.51174927,-1.83846,9.14622,-3.246455
1570715121,1.038559,19.268845,-2.399994,-3.7086334,0.9363098,-0.51174927,-1.83846,9.14622,-3.246455
1570715121,1.038559,19.268845,-2.399994,-3.7086334,0.9363098,-0.51174927,-1.83846,9.14622,-3.246455
1570715121,1.038559,19.268845,-2.399994,-3.7086334,0.9363098,-0.51174927,-1.83846,9.14622,-3.246455
1570715121,1.038559,19.268845,-2.399994,-3.7086334,0.9363098,-0.51174927,-1.83846,9.14622,-3.246455
1570715121,1.038559,19.268845,-2.399994,-3.7086334,0.9363098,-0.51174927,-1.83846,9.14622,-3.246455
1570715121,1.038559,19.268845,-2.399994,-3.7086334,0.9363098,-0.51174927,-1.83846,9.14622,-3.246455
1570715121,1.038559,19.268845,-2.399994,-3.7086334,0.9363098,-0.51174927,-1.83846,9.14622,-3.246455
1570715121,1.038559,19.268845,-2.399994,-3.7086334,0.9363098,-0.51174927,-1.83846,9.14622,-3.246455
1570715121,1.038559,19.268845,-2.399994,-3.7086334,0.9363098,-0.51174927,-1.83846,9.14622,-3.246455
1570715121,1.038559,19.268845,-2.399994,-3.7086334,0.9363098,-0.51174927,-1.83846,9.14622,-3.246455
1570715121,1.038559,19.268845,-2.399994,-3.7086334,0.9363098,-0.51174927,-1.83846,9.14622,-3.246455
1570715121,1.038559,19.268845,-2.399994,-3.7086334,0.9363098,-0.51174927,-1.83846,9.14622,-3.246455
1570715121,1.038559,19.268845,-2.399994,-3.7086334,0.9363098,-0.51174927,-1.83846,9.14622,-3.246455
1570715121,1.038559,19.268845,-2.399994,-3.7086334,0.9363098,-0.51174927,-1.83846,9.14622,-3.246455
1570715121,1.038559,19.268845,-2.399994,-3.7086334,0.9363098,-0.51174927,-1.83846,9.14622,-3.246455
1570715121,1.038559,19.268845,-2.399994,-3.7086334,0.9363098,-0.51174927,-1.83846,9.14622,-3.246455
1570715121,1.038559,19.268845,-2.399994,-3.7086334,0.9363098,-0.51174927,-1.83846,9.14622,-3.246455
1570715121,1.038559,19.268845,-2.399994,-3.7086334,0.9363098,-0.51174927,-1.83846,9.14622,-3.246455
1570715121,1.038559,19.268845,-2.399994,-3.7086334,0.9363098,-0.51174927,-1.83846,9.14622,-3.246455
1570715121,1.038559,19.268845,-2.399994,-3.7086334,0.9363098,-0.51174927,-1.83846,9.14622,-3.246455
1570715121,1.038559,19.268845,-2.399994,-3.7086334,0.9363098,-0.51174927,-1.83846,9.14622,-3.246455
1570715121,1.038559,19.268845,-2.399994,-3.7086334,0.9363098,-0.51174927,-1.83846,9.14622,-3.246455
1570715121,1.038559,19.268845,-2.399994,-3.7086334,0.9363098,-0.51174927,-1.83846,9.14622,-3.246455
1570715121,1.038559,19.268845,-2.399994,-3.7086334,0.9363098,-0.51174927,-1.83846,9.14622,-3.246455
1570715121,1.038559,19.268845,-2.399994,-3.7086334,0.9363098,-0.51174927,-1.83846,9.14622,-3.246455
1570715121,1.038559,19.268845,-2.399994,-3.7086334,0.9363098,-0.51174927,-1.83846,9.14622,-3.246455
1570715121,1.038559,19.268845,-2.399994,-3.7086334,0.9363098,-0.51174927,-1.83846,9.14622,-3.246455
1570715121,1.038559,19.268845,-2.399994,-3.7086334,0.9363098,-0.51174927,-1.83846,9.14622,-3.246455
1570715121,1.038559,19.268845,-2.399994,-3.7086334,0.9363098,-0.51174927,-1.83846,9.14622,-3.246455
1570715121,1.038559,19.268845,-2.399994,-3.7086334,0.9363098,-0.51174927,-1.83846,9.14622,-3.246455
1570715121,1.038559,19.268845,-2.399994,-3.7086334,0.9363098,-0.51174927,-1.83846,9.14622,-3.246455
1570715121,1.038559,19.268845,-2.399994,-3.7086334,0.9363098,-0.51174927,-1.83846,9.14622,-3.246455
1570715121,1.038559,19.268845,-2.399994,-3.7086334,0.9363098,-0.51174927,-1.83846,9.14622,-3.246455
1570715121,1.038559,19.268845,-2.399994,-3.7086334,0.9363098,-0.51174927,-1.83846,9.14622,-3.246455
1570715121,1.038559,19.268845,-2.399994,-3.7086334,0.9363098,-0.51174927,-1.83846,9.14622,-3.246455
1570715121,1.038559,19.268845,-2.399994,-3.7086334,0.9363098,-0.51174927,-1.83846,9.14622,-3.246455
1570715121,1.038559,19.268845,-2.399994,-3.7086334,0.9363098,-0.51174927,-1.83846,9.14622,-3.246455
1570715121,1.038559,19.268845,-2.399994,-3.7086334,0.9363098,-0.51174927,-1.83846,9.14622,-3.246455
1570715121,1.038559,19.268845,-2.399994,-3.7086334,0.9363098,-0.51174927,-1.83846,9.14622,-3.246455
1570715121,1.038559,19.268845,-2.399994,-3.7086334,0.9363098,-0.51174927,-1.83846,9.14622,-3.246455
1570715121,1.038559,19.268845,-2.399994,-3.7086334,0.9363098,-0.51174927,-1.83846,9.14622,-3.246455
1570715121,1.038559,19.268845,-2.399994,-3.7086334,0.9363098,-0.51174927,-1.83846,9.14622,-3.246455
1570715121,1.038559,19.268845,-2.399994,-3.7086334,0.9363098,-0.51174927,-1.83846,9.14622,-3.246455
1570715121,1.038559,19.268845,-2.399994,-3.7086334,0.9363098,-0.51174927,-1.83846,9.14622,-3.246455
1570715121,1.038559,19.268845,-2.399994,-3.7086334,0.9363098,-0.51174927,-1.83846,9.14622,-3.246455
1570715121,1.038559,19.268845,-2.399994,-3.7086334,0.9363098,-0.51174927,-1.83846,9.14622,-3.246455
1570715121,1.038559,19.268845,-2.399994,-3.7086334,0.9363098,-0.51174927,-1.83846,9.14622,-3.246455
1570715121,1.038559,19.268845,-2.399994,-3.7086334,0.9363098,-0.51174927,-1.83846,9.14622,-3.246455
1570715121,1.038559,19.268845,-2.399994,-3.7086334,0.9363098,-0.51174927,-1.83846,9.14622,-3.246455
1570715121,1.038559,19.268845,-2.399994,-3.7086334,0.9363098,-0.51174927,-1.83846,9.14622,-3.246455
1570715121,1.038559,19.268845,-2.399994,-3.7086334,0.9363098,-0.51174927,-1.83846,9.14622,-3.246455
1570715121,1.038559,19.268845,-2.399994,-3.7086334,0.9363098,-0.51174927,-1.83846,9.14622,-3.246455
1570715121,1.038559,19.268845,-2.399994,-3.7086334,0.9363098,-0.51174927,-1.83846,9.14622,-3.246455
1570715121,1.038559,19.268845,-2.399994,-3.7086334,0.9363098,-0.51174927,-1.83846,9.14622,-3.246455
1570715121,1.038559,19.268845,-2.399994,-3.7086334,0.9363098,-0.51174927,-1.83846,9.14622,-3.246455
1570715121,1.038559,19.268845,-2.399994,-3.7086334,0.9363098,-0.51174927,-1.83846,9.14622,-3.246455
1570715121,1.038559,19.268845,-2.399994,-3.7086334,0.9363098,-0.51174927,-1.83846,9.14622,-3.246455
1570715121,1.038559,19.268845,-2.399994,-3.7086334,0.9363098,-0.51174927,-1.83846,9.14622,-3.246455
1570715121,1.038559,19.268845,-2.399994,-3.7086334,0.9363098,-0.51174927,-1.83846,9.14622,-3.246455
1570715121,1.038559,19.268845,-2.399994,-3.7086334,0.9363098,-0.51174927,-1.83846,9.14622,-3.246455
1570715121,1.038559,19.268845,-2.399994,-3.7086334,0.9363098,-0.51174927,-1.83846,9.14622,-3.246455
1570715121,1.038559,19.268845,-2.399994,-3.7086334,0.9363098,-0.51174927,-1.83846,9.14622,-3.246455
1570715121,1.038559,19.268845,-2.399994,-3.7086334,0.9363098,-0.51174927,-1.83846,9.14622,-3.246455
1570715121,1.038559,19.268845,-2.399994,-3.7086334,0.9363098,-0.51174927,-1.83846,9.14622,-3.246455
1570715121,1.038559,19.268845,-2.399994,-3.7086334,0.9363098,-0.51174927,-1.83846,9.14622,-3.246455
1570715121,1.038559,19.268845,-2.399994,-3.7086334,0.9363098,-0.51174927,-1.83846,9.14622,-3.246455
1570715121,1.038559,19.268845,-2.399994,-3.7086334,0.9363098,-0.51174927,-1.83846,9.14622,-3.246455
1570715121,1.038559,19.268845,-2.399994,-3.7086334,0.9363098,-0.51174927,-1.83846,9.14622,-3.246455
1570715121,1.038559,19.268845,-2.399994,-3.7086334,0.9363098,-0.51174927,-1.83846,9.14622,-3.246455
1570715121,1.038559,19.268845,-2.399994,-3.7086334,0.9363098,-0.51174927,-1.83846,9.14622,-3.246455
1570715121,1.038559,19.268845,-2.399994,-3.7086334,0.9363098,-0.51174927,-1.83846,9.14622,-3.246455
1570715121,1.038559,19.268845,-2.399994,-3.7086334,0.9363098,-0.51174927,-1.83846,9.14622,-3.246455
1570715121,1.038559,19.268845,-2.399994,-3.7086334,0.9363098,-0.51174927,-1.83846,9.14622,-3.246455
1570715121,1.038559,19.268845,-2.399994,-3.7086334,0.9363098,-0.51174927,-1.83846,9.14622,-3.246455
1570715121,1.038559,19.268845,-2.399994,-3.7086334,0.9363098,-0.51174927,-1.83846,9.14622,-3.246455
1570715121,1.038559,19.268845,-2.399994,-3.7086334,0.9363098,-0.51174927,-1.83846,9.14622,-3.246455
1570715121,1.038559,19.268845,-2.399994,-3.7086334,0.9363098,-0.51174927,-1.83846,9.14622,-3.246455
1570715121,1.038559,19.268845,-2.399994,-3.7086334,0.9363098,-0.51174927,-1.83846,9.14622,-3.246455
1570715121,1.038559,19.268845,-2.399994,-3.7086334,0.9363098,-0.51174927,-1.83846,9.14622,-3.246455
1570715121,1.038559,19.268845,-2.399994,-3.7086334,0.9363098,-0.51174927,-1.83846,9.14622,-3.246455
1570715121,1.038559,19.268845,-2.399994,-3.7086334,0.9363098,-0.51174927,-1.83846,9.14622,-3.246455
1570715121,1.038559,19.268845,-2.399994,-3.7086334,0.9363098,-0.51174927,-1.83846,9.14622,-3.246455
1570715121,1.038559,19.268845,-2.399994,-3.7086334,0.9363098,-0.51174927,-1.83846,9.14622,-3.246455
1570715121,1.038559,19.268845,-2.399994,-3.7086334,0.9363098,-0.51174927,-1.83846,9.14622,-3.246455
1570715121,1.038559,19.268845,-2.399994,-3.7086334,0.9363098,-0.51174927,-1.83846,9.14622,-3.246455
1570715121,1.038559,19.268845,-2.399994,-3.7086334,0.9363098,-0.51174927,-1.83846,9.14622,-3.246455
1570715121,1.038559,19.268845,-2.399994,-3.7086334,0.9363098,-0.51174927,-1.83846,9.14622,-3.246455
1570715121,1.038559,19.268845,-2.399994,-3.7086334,0.9363098,-0.51174927,-1.83846,9.14622,-3.246455
1570715121,1.038559,19.268845,-2.399994,-3.7086334,0.9363098,-0.51174927,-1.83846,9.14622,-3.246455
1570715121,1.038559,19.268845,-2.399994,-3.7086334,0.9363098,-0.51174927,-1.83846,9.14622,-3.246455
1570715121,1.038559,19.268845,-2.399994,-3.7086334,0.9363098,-0.51174927,-1.83846,9.14622,-3.246455
1570715121,1.038559,19.268845,-2.399994,-3.7086334,0.9363098,-0.51174927,-1.83846,9.14622,-3.246455
1570715121,1.038559,19.268845,-2.399994,-3.7086334,0.9363098,-0.51174927,-1.83846,9.14622,-3.246455
1570715121,1.038559,19.268845,-2.399994,-3.7086334,0.9363098,-0.51174927,-1.83846,9.14622,-3.246455
1570715121,1.038559,19.268845,-2.399994,-3.7086334,0.9363098,-0.51174927,-1.83846,9.14622,-3.246455
1570715121,1.038559,19.268845,-2.399994,-3.7086334,0.9363098,-0.51174927,-1.83846,9.14622,-3.246455
1570715121,1.038559,19.268845,-2.399994,-3.7086334,0.9363098,-0.51174927,-1.83846,9.14622,-3.246455
1570715121,1.038559,19.268845,-2.399994,-3.7086334,0.9363098,-0.51174927,-1.83846,9.14622,-3.246455
1570715121,1.038559,19.268845,-2.399994,-3.7086334,0.9363098,-0.51174927,-1.83846,9.14622,-3.246455
1570715121,1.038559,19.268845,-2.399994,-3.7086334,0.9363098,-0.51174927,-1.83846,9.14622,-3.246455
1570715121,1.038559,19.268845,-2.399994,-3.7086334,0.9363098,-0.51174927,-1.83846,9.14622,-3.246455
1570715121,1.038559,19.268845,-2.399994,-3.7086334,0.9363098,-0.51174927,-1.83846,9.14622,-3.246455
1570715121,1.038559,19.268845,-2.399994,-3.7086334,0.9363098,-0.51174927,-1.83846,9.14622,-3.246455
1570715121,1.038559,19.268845,-2.399994,-3.7086334,0.9363098,-0.51174927,-1.83846,9.14622,-3.246455
1570715121,1.038559,19.268845,-2.399994,-3.7086334,0.9363098,-0.51174927,-1.83846,9.14622,-3.246455
1570715121,1.038559,19.268845,-2.399994,-3.7086334,0.9363098,-0.51174927,-1.83846,9.14622,-3.246455
1570715121,1.038559,19.268845,-2.399994,-3.7086334,0.9363098,-0.51174927,-1.83846,9.14622,-3.246455
1570715121,1.038559,19.268845,-2.399994,-3.7086334,0.9363098,-0.51174927,-1.83846,9.14622,-3.246455
1570715121,1.038559,19.268845,-2.399994,-3.7086334,0.9363098,-0.51174927,-1.83846,9.14622,-3.246455
1570715121,1.038559,19.268845,-2.399994,-3.7086334,0.9363098,-0.51174927,-1.83846,9.14622,-3.246455
1570715121,1.038559,19.268845,-2.399994,-3.7086334,0.9363098,-0.51174927,-1.83846,9.14622,-3.246455
1570715121,1.038559,19.268845,-2.399994,-3.7086334,0.9363098,-0.51174927,-1.83846,9.14622,-3.246455
1570715121,1.038559,19.268845,-2.399994,-3.7086334,0.9363098,-0.51174927,-1.83846,9.14622,-3.246455
1570715121,1.038559,19.268845,-2.399994,-3.7086334,0.9363098,-0.51174927,-1.83846,9.14622,-3.246455
1570715121,1.038559,19.268845,-2.399994,-3.7086334,0.9363098,-0.51174927,-1.83846,9.14622,-3.246455
1570715121,1.038559,19.268845,-2.399994,-3.7086334,0.9363098,-0.51174927,-1.83846,9.14622,-3.246455
1570715121,1.038559,19.268845,-2.399994,-3.7086334,0.9363098,-0.51174927,-1.83846,9.14622,-3.246455
1570715121,1.038559,19.268845,-2.399994,-3.7086334,0.9363098,-0.51174927,-1.83846,9.14622,-3.246455
1570715121,1.038559,19.268845,-2.399994,-3.7086334,0.9363098,-0.51174927,-1.83846,9.14622,-3.246455
1570715121,1.038559,19.268845,-2.399994,-3.7086334,0.9363098,-0.51174927,-1.83846,9.14622,-3.246455
1570715121,1.038559,19.268845,-2.399994,-3.7086334,0.9363098,-0.51174927,-1.83846,9.14622,-3.246455
1570715121,1.038559,19.268845,-2.399994,-3.7086334,0.9363098,-0.51174927,-1.83846,9.14622,-3.246455
1570715121,1.038559,19.268845,-2.399994,-3.7086334,0.9363098,-0.51174927,-1.83846,9.14622,-3.246455
1570715121,1.038559,19.268845,-2.399994,-3.7086334,0.9363098,-0.51174927,-1.83846,9.14622,-3.246455
1570715121,1.038559,19.268845,-2.399994,-3.7086334,0.9363098,-0.51174927,-1.83846,9.14622,-3.246455
1570715121,1.038559,19.268845,-2.399994,-3.7086334,0.9363098,-0.51174927,-1.83846,9.14622,-3.246455
1570715121,1.038559,19.268845,-2.399994,-3.7086334,0.9363098,-0.51174927,-1.83846,9.14622,-3.246455
1570715121,1.038559,19.268845,-2.399994,-3.7086334,0.9363098,-0.51174927,-1.83846,9.14622,-3.246455
1570715121,1.038559,19.268845,-2.399994,-3.7086334,0.9363098,-0.51174927,-1.83846,9.14622,-3.246455
1570715121,1.038559,19.268845,-2.399994,-3.7086334,0.9363098,-0.51174927,-1.83846,9.14622,-3.246455
1570715121,1.038559,19.268845,-2.399994,-3.7086334,0.9363098,-0.51174927,-1.83846,9.14622,-3.246455
1570715121,1.038559,19.268845,-2.399994,-3.7086334,0.9363098,-0.51174927,-1.83846,9.14622,-3.246455
1570715121,1.038559,19.268845,-2.399994,-3.7086334,0.9363098,-0.51174927,-1.83846,9.14622,-3.246455
1570715121,1.038559,19.268845,-2.399994,-3.7086334,0.9363098,-0.51174927,-1.83846,9.14622,-3.246455
1570715121,1.038559,19.268845,-2.399994,-3.7086334,0.9363098,-0.51174927,-1.83846,9.14622,-3.246455
1570715121,1.038559,19.268845,-2.399994,-3.7086334,0.9363098,-0.51174927,-1.83846,9.14622,-3.246455
1570715121,1.038559,19.268845,-2.399994,-3.7086334,0.9363098,-0.51174927,-1.83846,9.14622,-3.246455
1570715121,1.038559,19.268845,-2.399994,-3.7086334,0.9363098,-0.51174927,-1.83846,9.14622,-3.246455
1570715121,1.038559,19.268845,-2.399994,-3.7086334,0.9363098,-0.51174927,-1.83846,9.14622,-3.246455
1570715121,1.038559,19.268845,-2.399994,-3.7086334,0.9363098,-0.51174927,-1.83846,9.14622,-3.246455
1570715121,1.038559,19.268845,-2.399994,-3.7086334,0.9363098,-0.51174927,-1.83846,9.14622,-3.246455
1570715121,1.038559,19.268845,-2.399994,-3.7086334,0.9363098,-0.51174927,-1.83846,9.14622,-3.246455
1570715121,1.038559,19.268845,-2.399994,-3.7086334,0.9363098,-0.51174927,-1.83846,9.14622,-3.246455
1570715121,1.038559,19.268845,-2.399994,-3.7086334,0.9363098,-0.51174927,-1.83846,9.14622,-3.246455
1570715121,1.038559,19.268845,-2.399994,-3.7086334,0.9363098,-0.51174927,-1.83846,9.14622,-3.246455
1570715121,1.038559,19.268845,-2.399994,-3.7086334,0.9363098,-0.51174927,-1.83846,9.14622,-3.246455
1570715121,1.038559,19.268845,-2.399994,-3.7086334,0.9363098,-0.51174927,-1.83846,9.14622,-3.246455
1570715121,1.038559,19.268845,-2.399994,-3.7086334,0.9363098,-0.51174927,-1.83846,9.14622,-3.246455
1570715121,1.038559,19.268845,-2.399994,-3.7086334,0.9363098,-0.51174927,-1.83846,9.14622,-3.246455
1570715121,1.038559,19.268845,-2.399994,-3.7086334,0.9363098,-0.51174927,-1.83846,9.14622,-3.246455
1570715121,1.038559,19.268845,-2.399994,-3.7086334,0.9363098,-0.51174927,-1.83846,9.14622,-3.246455
1570715121,1.038559,19.268845,-2.399994,-3.7086334,0.9363098,-0.51174927,-1.83846,9.14622,-3.246455
1570715121,1.038559,19.268845,-2.399994,-3.7086334,0.9363098,-0.51174927,-1.83846,9.14622,-3.246455
1570715121,-3.7857513,20.914856,-3.210434,-3.7086334,0.9363098,-0.51174927,7.3287244,12.466677,2.1148186
1570715121,6.052017,31.286545,-8.824829,-3.7086334,0.9363098,-0.51174927,7.3287244,12.466677,2.1148186
1570715121,6.052017,31.286545,-8.824829,-3.7086334,0.9363098,-0.51174927,7.3287244,12.466677,2.1148186
1570715121,2.7683716,-1.446991,2.5787506,-3.7086334,0.9363098,-0.51174927,7.3287244,12.466677,2.1148186
1570715124,3.912796,9.619019,3.8357086,1.5654907,3.777359,-0.30082703,1.7830637,0.5906038,6.972597
1570715124,3.912796,9.619019,3.8357086,1.5654907,3.777359,-0.30082703,1.7830637,0.5906038,6.972597
1570715124,3.912796,9.619019,3.8357086,1.5654907,3.777359,-0.30082703,1.7830637,0.5906038,6.972597
1570715124,3.912796,9.619019,3.8357086,1.5654907,3.777359,-0.30082703,1.7830637,0.5906038,6.972597
1570715124,3.912796,9.619019,3.8357086,1.5654907,3.777359,-0.30082703,1.7830637,0.5906038,6.972597
1570715124,3.912796,9.619019,3.8357086,1.5654907,3.777359,-0.30082703,1.7830637,0.5906038,6.972597
1570715124,3.912796,9.619019,3.8357086,1.5654907,3.777359,-0.30082703,1.7830637,0.5906038,6.972597
1570715124,3.912796,9.619019,3.8357086,1.5654907,3.777359,-0.30082703,1.7830637,0.5906038,6.972597
1570715124,3.912796,9.619019,3.8357086,1.5654907,3.777359,-0.30082703,1.7830637,0.5906038,6.972597
1570715124,3.912796,9.619019,3.8357086,1.5654907,3.777359,-0.30082703,1.7830637,0.5906038,6.972597
1570715124,3.912796,9.619019,3.8357086,1.5654907,3.777359,-0.30082703,1.7830637,0.5906038,6.972597
1570715124,3.912796,9.619019,3.8357086,1.5654907,3.777359,-0.30082703,1.7830637,0.5906038,6.972597
1570715124,3.912796,9.619019,3.8357086,1.5654907,3.777359,-0.30082703,1.7830637,0.5906038,6.972597
1570715124,3.912796,9.619019,3.8357086,1.5654907,3.777359,-0.30082703,1.7830637,0.5906038,6.972597
1570715124,3.912796,9.619019,3.8357086,1.5654907,3.777359,-0.30082703,1.7830637,0.5906038,6.972597
1570715124,3.912796,9.619019,3.8357086,1.5654907,3.777359,-0.30082703,1.7830637,0.5906038,6.972597
1570715124,3.912796,9.619019,3.8357086,1.5654907,3.777359,-0.30082703,1.7830637,0.5906038,6.972597
1570715124,3.912796,9.619019,3.8357086,1.5654907,3.777359,-0.30082703,1.7830637,0.5906038,6.972597
1570715124,3.912796,9.619019,3.8357086,1.5654907,3.777359,-0.30082703,1.7830637,0.5906038,6.972597
1570715124,3.912796,9.619019,3.8357086,1.5654907,3.777359,-0.30082703,1.7830637,0.5906038,6.972597
1570715124,3.912796,9.619019,3.8357086,1.5654907,3.777359,-0.30082703,1.7830637,0.5906038,6.972597
1570715124,3.912796,9.619019,3.8357086,1.5654907,3.777359,-0.30082703,1.7830637,0.5906038,6.972597
1570715124,3.912796,9.619019,3.8357086,1.5654907,3.777359,-0.30082703,1.7830637,0.5906038,6.972597
1570715124,3.912796,9.619019,3.8357086,1.5654907,3.777359,-0.30082703,1.7830637,0.5906038,6.972597
1570715124,3.912796,9.619019,3.8357086,1.5654907,3.777359,-0.30082703,1.7830637,0.5906038,6.972597
1570715124,3.912796,9.619019,3.8357086,1.5654907,3.777359,-0.30082703,1.7830637,0.5906038,6.972597
1570715124,3.912796,9.619019,3.8357086,1.5654907,3.777359,-0.30082703,1.7830637,0.5906038,6.972597
1570715124,3.912796,9.619019,3.8357086,1.5654907,3.777359,-0.30082703,1.7830637,0.5906038,6.972597
1570715124,3.912796,9.619019,3.8357086,1.5654907,3.777359,-0.30082703,1.7830637,0.5906038,6.972597
1570715124,3.912796,9.619019,3.8357086,1.5654907,3.777359,-0.30082703,1.7830637,0.5906038,6.972597
1570715124,3.912796,9.619019,3.8357086,1.5654907,3.777359,-0.30082703,1.7830637,0.5906038,6.972597
1570715124,3.912796,9.619019,3.8357086,1.5654907,3.777359,-0.30082703,1.7830637,0.5906038,6.972597
1570715124,3.912796,9.619019,3.8357086,1.5654907,3.777359,-0.30082703,1.7830637,0.5906038,6.972597
1570715124,3.912796,9.619019,3.8357086,1.5654907,3.777359,-0.30082703,1.7830637,0.5906038,6.972597
1570715124,3.912796,9.619019,3.8357086,1.5654907,3.777359,-0.30082703,1.7830637,0.5906038,6.972597
1570715124,3.912796,9.619019,3.8357086,1.5654907,3.777359,-0.30082703,1.7830637,0.5906038,6.972597
1570715124,3.912796,9.619019,3.8357086,1.5654907,3.777359,-0.30082703,1.7830637,0.5906038,6.972597
1570715124,3.912796,9.619019,3.8357086,1.5654907,3.777359,-0.30082703,1.7830637,0.5906038,6.972597
1570715124,3.912796,9.619019,3.8357086,1.5654907,3.777359,-0.30082703,1.7830637,0.5906038,6.972597
1570715124,3.912796,9.619019,3.8357086,1.5654907,3.777359,-0.30082703,1.7830637,0.5906038,6.972597
1570715124,3.912796,9.619019,3.8357086,1.5654907,3.777359,-0.30082703,1.7830637,0.5906038,6.972597
1570715124,3.912796,9.619019,3.8357086,1.5654907,3.777359,-0.30082703,1.7830637,0.5906038,6.972597
1570715124,3.912796,9.619019,3.8357086,1.5654907,3.777359,-0.30082703,1.7830637,0.5906038,6.972597
1570715124,3.912796,9.619019,3.8357086,1.5654907,3.777359,-0.30082703,1.7830637,0.5906038,6.972597
1570715124,3.912796,9.619019,3.8357086,1.5654907,3.777359,-0.30082703,1.7830637,0.5906038,6.972597
1570715124,3.912796,9.619019,3.8357086,1.5654907,3.777359,-0.30082703,1.7830637,0.5906038,6.972597
1570715124,3.912796,9.619019,3.8357086,1.5654907,3.777359,-0.30082703,1.7830637,0.5906038,6.972597
1570715124,3.912796,9.619019,3.8357086,1.5654907,3.777359,-0.30082703,1.7830637,0.5906038,6.972597
1570715124,3.912796,9.619019,3.8357086,1.5654907,3.777359,-0.30082703,1.7830637,0.5906038,6.972597
1570715124,3.912796,9.619019,3.8357086,1.5654907,3.777359,-0.30082703,1.7830637,0.5906038,6.972597
1570715124,3.912796,9.619019,3.8357086,1.5654907,3.777359,-0.30082703,1.7830637,0.5906038,6.972597
1570715124,3.912796,9.619019,3.8357086,1.5654907,3.777359,-0.30082703,1.7830637,0.5906038,6.972597
1570715124,3.912796,9.619019,3.8357086,1.5654907,3.777359,-0.30082703,1.7830637,0.5906038,6.972597
1570715124,3.912796,9.619019,3.8357086,1.5654907,3.777359,-0.30082703,1.7830637,0.5906038,6.972597
1570715124,3.912796,9.619019,3.8357086,1.5654907,3.777359,-0.30082703,1.7830637,0.5906038,6.972597
1570715124,3.912796,9.619019,3.8357086,1.5654907,3.777359,-0.30082703,1.7830637,0.5906038,6.972597
1570715124,3.912796,9.619019,3.8357086,1.5654907,3.777359,-0.30082703,1.7830637,0.5906038,6.972597
1570715124,3.912796,9.619019,3.8357086,1.5654907,3.777359,-0.30082703,1.7830637,0.5906038,6.972597
1570715124,3.912796,9.619019,3.8357086,1.5654907,3.777359,-0.30082703,1.7830637,0.5906038,6.972597
1570715124,3.912796,9.619019,3.8357086,1.5654907,3.777359,-0.30082703,1.7830637,0.5906038,6.972597
1570715124,3.912796,9.619019,3.8357086,1.5654907,3.777359,-0.30082703,1.7830637,0.5906038,6.972597
1570715124,3.912796,9.619019,3.8357086,1.5654907,3.777359,-0.30082703,1.7830637,0.5906038,6.972597
1570715124,3.912796,9.619019,3.8357086,1.5654907,3.777359,-0.30082703,1.7830637,0.5906038,6.972597
1570715124,3.912796,9.619019,3.8357086,1.5654907,3.777359,-0.30082703,1.7830637,0.5906038,6.972597
1570715124,3.912796,9.619019,3.8357086,1.5654907,3.777359,-0.30082703,1.7830637,0.5906038,6.972597
1570715124,3.912796,9.619019,3.8357086,1.5654907,3.777359,-0.30082703,1.7830637,0.5906038,6.972597
1570715124,3.912796,9.619019,3.8357086,1.5654907,3.777359,-0.30082703,1.7830637,0.5906038,6.972597
1570715124,3.912796,9.619019,3.8357086,1.5654907,3.777359,-0.30082703,1.7830637,0.5906038,6.972597
1570715124,3.912796,9.619019,3.8357086,1.5654907,3.777359,-0.30082703,1.7830637,0.5906038,6.972597
1570715124,3.912796,9.619019,3.8357086,1.5654907,3.777359,-0.30082703,1.7830637,0.5906038,6.972597
1570715124,3.912796,9.619019,3.8357086,1.5654907,3.777359,-0.30082703,1.7830637,0.5906038,6.972597
1570715124,3.912796,9.619019,3.8357086,1.5654907,3.777359,-0.30082703,1.7830637,0.5906038,6.972597
1570715124,3.912796,9.619019,3.8357086,1.5654907,3.777359,-0.30082703,1.7830637,0.5906038,6.972597
1570715124,3.912796,9.619019,3.8357086,1.5654907,3.777359,-0.30082703,1.7830637,0.5906038,6.972597
1570715124,3.912796,9.619019,3.8357086,1.5654907,3.777359,-0.30082703,1.7830637,0.5906038,6.972597
1570715124,3.912796,9.619019,3.8357086,1.5654907,3.777359,-0.30082703,1.7830637,0.5906038,6.972597
1570715124,3.912796,9.619019,3.8357086,1.5654907,3.777359,-0.30082703,1.7830637,0.5906038,6.972597
1570715124,3.912796,9.619019,3.8357086,1.5654907,3.777359,-0.30082703,1.7830637,0.5906038,6.972597
1570715124,3.912796,9.619019,3.8357086,1.5654907,3.777359,-0.30082703,1.7830637,0.5906038,6.972597
1570715124,3.912796,9.619019,3.8357086,1.5654907,3.777359,-0.30082703,1.7830637,0.5906038,6.972597
1570715124,3.912796,9.619019,3.8357086,1.5654907,3.777359,-0.30082703,1.7830637,0.5906038,6.972597
1570715124,3.912796,9.619019,3.8357086,1.5654907,3.777359,-0.30082703,1.7830637,0.5906038,6.972597
1570715124,3.912796,9.619019,3.8357086,1.5654907,3.777359,-0.30082703,1.7830637,0.5906038,6.972597
1570715124,3.912796,9.619019,3.8357086,1.5654907,3.777359,-0.30082703,1.7830637,0.5906038,6.972597
1570715124,3.5859985,-4.569031,2.272293,1.5654907,3.777359,-0.30082703,1.7830637,0.5906038,6.972597
1570715124,-4.2645874,-0.8280792,21.278656,1.5654907,3.777359,-0.30082703,1.7830637,0.5906038,6.972597
1570715124,-2.5371704,19.11322,8.397858,1.5654907,3.777359,-0.30082703,1.7830637,0.5906038,6.972597
1570715124,0.67344666,7.5204926,-4.681671,1.5654907,3.777359,-0.30082703,1.7830637,0.5906038,6.972597
1570715124,2.7312622,7.030884,2.6433868,1.5654907,3.777359,-0.30082703,1.7830637,0.5906038,6.972597
1570715124,-9.263687,21.46791,-5.358032,1.5654907,3.777359,-0.30082703,1.7830637,0.5906038,6.972597
1570715124,2.5971832,-4.0159607,2.8552704,1.5654907,3.777359,-0.30082703,1.7830637,0.5906038,6.972597
1570715124,4.417984,10.498886,-31.981552,1.5654907,3.777359,-0.30082703,1.7830637,0.5906038,6.972597
1570715124,1.2707977,20.561707,-2.6944885,1.5654907,3.777359,-0.30082703,1.7830637,0.5906038,6.972597
1570715124,-8.871033,3.6622467,-3.2319794,1.5654907,3.777359,-0.30082703,1.7830637,0.5906038,6.972597
1570715124,2.0082092,33.602936,5.3847504,1.5654907,3.777359,-0.30082703,1.7830637,0.5906038,6.972597
1570715124,-3.899475,16.022308,-1.3621063,1.5654907,3.777359,-0.30082703,1.7830637,0.5906038,6.972597
1570715124,0.137146,-1.8540039,3.264679,1.5654907,3.777359,-0.30082703,1.7830637,0.5906038,6.972597
1570715124,3.9415283,12.233475,-39.736374,1.5654907,3.777359,-0.30082703,1.7830637,0.5906038,6.972597
1570715124,-4.6273193,20.177444,4.07872,1.5654907,3.777359,-0.30082703,1.7830637,0.5906038,6.972597
1570715124,-3.9186249,5.1047516,-3.5575867,1.5654907,3.777359,-0.30082703,1.7830637,0.5906038,6.972597
1570715124,2.2631989,1.4476013,-1.1131134,1.5654907,3.777359,-0.30082703,1.7830637,0.5906038,6.972597
1570715124,4.5783844,-4.5558624,2.9893494,1.5654907,3.777359,-0.30082703,1.7830637,0.5906038,6.972597
1570715124,4.5783844,-4.5558624,2.9893494,1.5654907,3.777359,-0.30082703,1.7830637,0.5906038,6.972597
1570715124,4.5783844,-4.5558624,2.9893494,1.5654907,3.777359,-0.30082703,1.7830637,0.5906038,6.972597
1570715124,-2.1265717,24.563614,-1.9462891,1.9212952,1.7490997,-0.95170593,1.7830637,0.5906038,6.972597
1570715124,-4.1748047,17.27327,-3.8604584,2.285614,1.5381775,-0.39564514,1.7830637,0.5906038,6.972597
1570715124,3.073639,12.114975,3.556778,2.1844177,4.379242,-0.18258667,1.7830637,0.5906038,6.972597
1570715124,5.542053,3.0780487,3.738739,1.2320709,3.2351532,0.24458313,1.7830637,0.5906038,6.972597
1570715124,4.410797,-1.4793091,1.8018341,-0.037734985,2.0654907,0.2893219,2.5119195,20.166843,2.2464294
1570715124,1.4048767,-4.70549,1.9742126,-2.31633,-0.6392212,-0.0952301,0.1999402,-14.549739,5.424757
1570715124,0.7799835,-3.4748688,3.529251,-3.766159,-1.5297852,-0.22839355,0.09072673,-14.446732,5.7079077
1570715124,-6.360718,4.265579,0.9566803,-3.097168,-4.9151917,-0.7961731,-5.136303,-9.216421,4.7768207
1570715124,-1.8009644,12.340027,-14.149536,-0.018554688,-2.4757385,-0.6300049,-2.6062982,1.8313704,-12.0777025
1570715124,-5.32164,9.043213,-10.990387,1.1266022,1.8396454,-0.6257324,-4.243889,-1.0432472,-14.320201
1570715124,4.5125427,26.641785,0.33059692,2.7607117,-3.325821,-1.0656891,2.929959,11.572857,7.436904
1570715125,5.1015167,10.647324,1.5671997,0.36813354,0.32910156,-0.019607544,9.103637,6.563633,0.8472152
1570715125,-1.1545258,8.370438,13.52504,-2.8873138,-0.9406891,0.8475189,-1.1357976,-3.7057266,14.531388
1570715125,7.651352,34.989166,-14.56015,-2.3046112,-2.2221985,1.9064026,6.506274,22.244513,-7.07188
1570715125,-4.998413,19.096466,2.945053,-1.9626617,2.4575043,0.6515198,-5.468246,8.777927,5.141472
1570715125,-0.014892578,21.800705,-2.2371979,-3.5307312,3.9403534,-0.11973572,-1.3289926,10.8130045,-3.8301263
1570715125,6.485367,15.537476,-7.6085815,-2.3908997,-1.1835632,-0.3839264,4.8079095,6.34254,-6.6130495
1570715125,2.9096375,10.023636,-7.136917,-1.3895569,-1.6213989,0.70584106,3.3033593,-0.0046224594,-9.7662115
1570715125,-4.478882,2.4376068,-1.0041809,-1.392746,-0.72125244,1.2416687,-4.89581,-6.942725,-5.0578656
1570715125,-8.8423,2.5309753,-3.8460999,-0.05796814,-0.21737671,0.52474976,-9.731149,-8.245804,-6.187381
1570715125,-6.2218475,2.8230743,-3.3696442,0.9891815,-0.068237305,-0.2624817,-8.245758,-7.571825,-5.540876
1570715125,2.6522522,1.042984,-4.460205,1.9053192,1.0236511,-0.21774292,-0.19620979,-8.2232895,-7.831243
1570715125,2.192566,1.3123322,0.043289185,2.42836,1.6862488,0.1401825,1.128764,-9.085963,-1.5415277
1570715125,2.5074005,7.3229675,2.2016602,2.9130554,1.530716,0.27441406,1.1418146,-4.4692726,0.6622385
1570715125,1.1271515,37.476746,5.4398193,4.260605,0.12564087,-1.3192291,1.4682164,21.126732,4.5964327
1570715125,4.2970734,22.487854,2.3429108,2.7117157,-0.8938141,-0.67900085,1.1133702,17.999683,4.1145554
1570715125,13.684738,24.435532,-4.5811157,1.3194122,-4.2291565,-0.92614746,12.574401,11.052964,-1.8758662
1570715125,-2.416275,21.810287,-6.4497833,2.269638,2.2508392,-0.8057709,-0.3248251,11.919128,-4.858813
1570715125,-4.0227814,15.429733,-5.5806885,1.7391357,2.3776093,-0.25502014,-5.0871925,6.4878254,-0.66694427
1570715125,2.5864105,9.020462,4.3779907,1.5271454,3.7198486,0.17427063,2.1791272,-1.6180077,8.735115
1570715125,6.4470673,-0.5671234,2.4961395,0.21687317,2.9198303,0.32341003,5.4035516,-9.47533,6.8778744
1570715125,2.6977386,-4.3858643,4.107437,-1.806076,-0.42190552,0.37242126,1.4689553,-14.298343,8.449247
1570715125,1.7041473,-5.701477,2.0436401,-3.9099731,-0.87890625,0.11036682,1.1750548,-16.235577,3.951263
1570715125,-4.978073,-0.71195984,0.91477966,-3.5147552,-3.3545837,-0.5458374,-4.888077,-10.121932,4.6999073
1570715125,-0.4697876,9.557968,-9.447327,-1.0934143,-3.2682953,-0.40948486,-1.8841112,-0.4420166,-6.8998113
1570715125,-2.3540192,4.786316,-9.811249,0.35429382,0.64016724,-0.7748718,-1.9445463,-5.062546,-8.836389
1570715125,-1.277832,-0.026031494,15.285965,0.82406616,-1.8355103,-0.7972412,-3.099656,-9.890198,15.600203
1570715125,0.6854248,26.513702,10.54306,1.1585541,3.0061188,-0.12399292,6.9003024,15.187764,-28.074501
1570715125,-0.45661926,14.973648,2.0292816,-0.40205383,-3.5175629,0.72714233,1.3871583,7.65065,5.4831657
1570715125,2.6654205,26.70404,11.45166,-2.3078156,0.9767914,1.4334259,1.0668855,14.377989,11.97212
1570715125,0.46635437,15.808029,4.9861145,-1.3075256,3.8753662,0.5108948,-0.9228812,6.9743023,5.6626763
1570715125,2.2464447,17.519882,-5.942215,-1.8422852,1.4902496,-0.4393158,2.5903602,8.681028,2.015236
1570715125,3.6350708,20.187027,-0.39485168,-3.8662872,3.951004,-1.2265472,2.9059124,8.128628,-4.920105
1570715125,10.693176,14.335587,-11.568588,-2.4505615,-0.99502563,-0.1421051,12.518889,4.8679113,-10.208349
1570715125,0.8015442,10.504868,-6.243881,-1.648407,-1.8376465,1.4845581,0.56892484,-1.4249725,-8.902297
1570715126,-3.7666016,7.964615,-4.4458466,-1.2819519,-2.7910614,1.0296783,-4.7941713,-3.2927494,-7.208604
1570715126,-6.160797,2.8290558,-3.8221588,-0.80578613,-2.5694733,0.11141968,-7.207286,-5.996068,-7.351741
1570715126,-3.8216705,1.5314026,-0.8772888,0.53964233,0.93203735,-0.7588959,-5.4977407,-8.267334,-3.7584698
1570715126,-1.7291412,2.0521393,-3.2523346,2.3399353,0.40899658,-0.72694397,-3.149965,-8.58501,-5.4627466
1570715126,1.1606598,2.9715118,-3.27388,2.3410034,0.6976929,0.46936035,-0.43739468,-7.843567,-6.1873384
1570715126,4.536484,11.267426,1.2200317,2.208908,0.04574585,-0.12612915,2.7232385,-2.6544247,-0.9798348
1570715126,3.8816833,39.976288,6.920624,2.906662,1.4220734,-1.4129639,4.225331,27.944725,5.032804
1570715126,-7.749359,21.180618,16.249634,2.0810852,-2.9327393,-1.2766113,-5.7902865,3.2048864,12.56751
1570715126,3.1670074,26.772278,4.518051,2.730896,-1.6650696,-0.8409271,4.754719,17.1973,6.405034
1570715126,1.5856323,15.422562,-9.594574,5.1437225,3.9286346,-2.0382843,3.2052007,5.5124006,-5.9614005
1570715126,-7.6883087,12.800903,-4.293808,0.2871704,0.93203735,-1.5503845,-8.075418,4.9630566,-2.8602252
1570715126,0.12397766,5.9666595,2.8828125,0.5300598,0.5389557,-1.0656891,0.41019905,-4.2619486,5.9677544
1570715126,2.3457947,1.3709869,1.5061493,-0.80152893,-0.15878296,0.87416077,3.332912,-8.227478,5.5362635
1570715126,1.3126984,1.968338,0.34136963,-1.7932892,-0.71058655,1.5718994,2.0888748,-8.062092,4.0282054
1570715126,0.18623352,-2.9720917,1.8987885,-2.6934357,0.7104645,1.6134491,0.21057738,-13.651862,3.3978057
1570715126,0.51423645,5.4602814,-2.4263306,-3.286789,-0.57637024,0.768692,1.4132476,-6.69256,-0.03591466
1570715126,-2.0415802,9.613022,-10.375076,0.39476013,-3.5143738,-1.431076,-1.3647673,0.4885645,-5.334955
1570715126,-7.6092987,2.1167755,-8.21431,0.26693726,-2.1124878,-1.1178894,-7.323207,-8.405112,-10.244452
1570715126,-6.7461853,3.7256927,2.1525726,0.1295166,-2.9114227,-0.6587677,-6.8681555,-7.967781,-3.5731504
1570715129,-6.7461853,3.7256927,2.1525726,0.1295166,-2.9114227,-0.6587677,-6.4819307,-2.3230047,0.89208794
1570715129,-6.7461853,3.7256927,2.1525726,0.1295166,-2.9114227,-0.6587677,-6.4819307,-2.3230047,0.89208794
1570715129,-6.7461853,3.7256927,2.1525726,0.1295166,-2.9114227,-0.6587677,-6.4819307,-2.3230047,0.89208794
1570715129,-6.7461853,3.7256927,2.1525726,0.1295166,-2.9114227,-0.6587677,-6.4819307,-2.3230047,0.89208794
1570715129,-6.7461853,3.7256927,2.1525726,0.1295166,-2.9114227,-0.6587677,-6.4819307,-2.3230047,0.89208794
1570715129,-6.7461853,3.7256927,2.1525726,0.1295166,-2.9114227,-0.6587677,-6.4819307,-2.3230047,0.89208794
1570715129,-6.7461853,3.7256927,2.1525726,0.1295166,-2.9114227,-0.6587677,-6.4819307,-2.3230047,0.89208794
1570715129,-6.7461853,3.7256927,2.1525726,0.1295166,-2.9114227,-0.6587677,-6.4819307,-2.3230047,0.89208794
1570715129,-6.7461853,3.7256927,2.1525726,0.1295166,-2.9114227,-0.6587677,-6.4819307,-2.3230047,0.89208794
1570715129,-6.7461853,3.7256927,2.1525726,0.1295166,-2.9114227,-0.6587677,-6.4819307,-2.3230047,0.89208794
1570715129,-6.7461853,3.7256927,2.1525726,0.1295166,-2.9114227,-0.6587677,-6.4819307,-2.3230047,0.89208794
1570715129,-6.7461853,3.7256927,2.1525726,0.1295166,-2.9114227,-0.6587677,-6.4819307,-2.3230047,0.89208794
1570715129,-6.7461853,3.7256927,2.1525726,0.1295166,-2.9114227,-0.6587677,-6.4819307,-2.3230047,0.89208794
1570715129,-6.7461853,3.7256927,2.1525726,0.1295166,-2.9114227,-0.6587677,-6.4819307,-2.3230047,0.89208794
1570715129,-6.7461853,3.7256927,2.1525726,0.1295166,-2.9114227,-0.6587677,-6.4819307,-2.3230047,0.89208794
1570715129,-6.7461853,3.7256927,2.1525726,0.1295166,-2.9114227,-0.6587677,-6.4819307,-2.3230047,0.89208794
1570715129,-6.7461853,3.7256927,2.1525726,0.1295166,-2.9114227,-0.6587677,-6.4819307,-2.3230047,0.89208794
1570715129,-6.7461853,3.7256927,2.1525726,0.1295166,-2.9114227,-0.6587677,-6.4819307,-2.3230047,0.89208794
1570715129,-6.7461853,3.7256927,2.1525726,0.1295166,-2.9114227,-0.6587677,-6.4819307,-2.3230047,0.89208794
1570715129,-6.7461853,3.7256927,2.1525726,0.1295166,-2.9114227,-0.6587677,-6.4819307,-2.3230047,0.89208794
1570715129,-6.7461853,3.7256927,2.1525726,0.1295166,-2.9114227,-0.6587677,-6.4819307,-2.3230047,0.89208794
1570715129,-6.7461853,3.7256927,2.1525726,0.1295166,-2.9114227,-0.6587677,-6.4819307,-2.3230047,0.89208794
1570715129,-6.7461853,3.7256927,2.1525726,0.1295166,-2.9114227,-0.6587677,-6.4819307,-2.3230047,0.89208794
1570715129,-6.7461853,3.7256927,2.1525726,0.1295166,-2.9114227,-0.6587677,-6.4819307,-2.3230047,0.89208794
1570715129,-6.7461853,3.7256927,2.1525726,0.1295166,-2.9114227,-0.6587677,-6.4819307,-2.3230047,0.89208794
1570715129,-6.7461853,3.7256927,2.1525726,0.1295166,-2.9114227,-0.6587677,-6.4819307,-2.3230047,0.89208794
1570715129,-6.7461853,3.7256927,2.1525726,0.1295166,-2.9114227,-0.6587677,-6.4819307,-2.3230047,0.89208794
1570715129,-6.7461853,3.7256927,2.1525726,0.1295166,-2.9114227,-0.6587677,-6.4819307,-2.3230047,0.89208794
1570715129,-6.7461853,3.7256927,2.1525726,0.1295166,-2.9114227,-0.6587677,-6.4819307,-2.3230047,0.89208794
1570715129,-6.7461853,3.7256927,2.1525726,0.1295166,-2.9114227,-0.6587677,-6.4819307,-2.3230047,0.89208794
1570715129,-6.7461853,3.7256927,2.1525726,0.1295166,-2.9114227,-0.6587677,-6.4819307,-2.3230047,0.89208794
1570715129,-6.7461853,3.7256927,2.1525726,0.1295166,-2.9114227,-0.6587677,-6.4819307,-2.3230047,0.89208794
1570715129,-6.7461853,3.7256927,2.1525726,0.1295166,-2.9114227,-0.6587677,-6.4819307,-2.3230047,0.89208794
1570715129,-6.7461853,3.7256927,2.1525726,0.1295166,-2.9114227,-0.6587677,-6.4819307,-2.3230047,0.89208794
1570715129,-6.7461853,3.7256927,2.1525726,0.1295166,-2.9114227,-0.6587677,-6.4819307,-2.3230047,0.89208794
1570715129,-6.7461853,3.7256927,2.1525726,0.1295166,-2.9114227,-0.6587677,-6.4819307,-2.3230047,0.89208794
1570715129,-6.7461853,3.7256927,2.1525726,0.1295166,-2.9114227,-0.6587677,-6.4819307,-2.3230047,0.89208794
1570715129,-6.7461853,3.7256927,2.1525726,0.1295166,-2.9114227,-0.6587677,-6.4819307,-2.3230047,0.89208794
1570715129,-6.7461853,3.7256927,2.1525726,0.1295166,-2.9114227,-0.6587677,-8.256389,-3.5990543,-7.444273
1570715129,-6.7461853,3.7256927,2.1525726,0.1295166,-2.9114227,-0.6587677,-1.4991213,-5.869481,-1.7859205
1570715129,-6.7461853,3.7256927,2.1525726,0.1295166,-2.9114227,-0.6587677,6.598735,0.91039276,4.781274
1570715129,-6.7461853,3.7256927,2.1525726,0.1295166,-2.9114227,-0.6587677,-2.1685011,15.0947485,1.1917628
1570715129,-6.7461853,3.7256927,2.1525726,0.1295166,-2.9114227,-0.6587677,1.9753206,13.444455,-4.304135
1570715129,-6.7461853,3.7256927,2.1525726,0.1295166,-2.9114227,-0.6587677,0.93333757,14.182521,-3.9593077
1570715129,-6.7461853,3.7256927,2.1525726,0.1295166,-2.9114227,-0.6587677,0.93333757,14.182521,-3.9593077
1570715129,-6.7461853,3.7256927,2.1525726,0.1295166,-2.9114227,-0.6587677,0.93333757,14.182521,-3.9593077
1570715129,-6.7461853,3.7256927,2.1525726,0.1295166,-2.9114227,-0.6587677,0.93333757,14.182521,-3.9593077
1570715129,-6.7461853,3.7256927,2.1525726,0.1295166,-2.9114227,-0.6587677,0.93333757,14.182521,-3.9593077
1570715129,-6.7461853,3.7256927,2.1525726,0.1295166,-2.9114227,-0.6587677,0.93333757,14.182521,-3.9593077
1570715129,-6.7461853,3.7256927,2.1525726,0.1295166,-2.9114227,-0.6587677,0.93333757,14.182521,-3.9593077
1570715129,-6.7461853,3.7256927,2.1525726,0.1295166,-2.9114227,-0.6587677,0.93333757,14.182521,-3.9593077
1570715129,-6.7461853,3.7256927,2.1525726,0.1295166,-2.9114227,-0.6587677,0.93333757,14.182521,-3.9593077
1570715129,-6.7461853,3.7256927,2.1525726,0.1295166,-2.9114227,-0.6587677,0.93333757,14.182521,-3.9593077
1570715129,-6.7461853,3.7256927,2.1525726,0.1295166,-2.9114227,-0.6587677,0.93333757,14.182521,-3.9593077
1570715129,-6.7461853,3.7256927,2.1525726,0.1295166,-2.9114227,-0.6587677,0.93333757,14.182521,-3.9593077
1570715129,-6.7461853,3.7256927,2.1525726,0.1295166,-2.9114227,-0.6587677,0.93333757,14.182521,-3.9593077
1570715129,-6.7461853,3.7256927,2.1525726,0.1295166,-2.9114227,-0.6587677,0.93333757,14.182521,-3.9593077
1570715129,-6.7461853,3.7256927,2.1525726,0.1295166,-2.9114227,-0.6587677,0.93333757,14.182521,-3.9593077
1570715129,-6.7461853,3.7256927,2.1525726,0.1295166,-2.9114227,-0.6587677,0.93333757,14.182521,-3.9593077
1570715129,-6.7461853,3.7256927,2.1525726,0.1295166,-2.9114227,-0.6587677,0.93333757,14.182521,-3.9593077
1570715129,-6.7461853,3.7256927,2.1525726,0.1295166,-2.9114227,-0.6587677,0.93333757,14.182521,-3.9593077
1570715129,-6.7461853,3.7256927,2.1525726,0.1295166,-2.9114227,-0.6587677,0.93333757,14.182521,-3.9593077
1570715129,-6.7461853,3.7256927,2.1525726,0.1295166,-2.9114227,-0.6587677,0.93333757,14.182521,-3.9593077
1570715129,-6.7461853,3.7256927,2.1525726,0.1295166,-2.9114227,-0.6587677,0.93333757,14.182521,-3.9593077
1570715129,-6.7461853,3.7256927,2.1525726,0.1295166,-2.9114227,-0.6587677,0.93333757,14.182521,-3.9593077
1570715129,-6.7461853,3.7256927,2.1525726,0.1295166,-2.9114227,-0.6587677,0.93333757,14.182521,-3.9593077
1570715129,-6.7461853,3.7256927,2.1525726,0.1295166,-2.9114227,-0.6587677,0.93333757,14.182521,-3.9593077
1570715129,-6.7461853,3.7256927,2.1525726,0.1295166,-2.9114227,-0.6587677,0.93333757,14.182521,-3.9593077
1570715129,-6.7461853,3.7256927,2.1525726,0.1295166,-2.9114227,-0.6587677,0.93333757,14.182521,-3.9593077
1570715129,-6.7461853,3.7256927,2.1525726,0.1295166,-2.9114227,-0.6587677,0.93333757,14.182521,-3.9593077
1570715129,-6.7461853,3.7256927,2.1525726,0.1295166,-2.9114227,-0.6587677,0.93333757,14.182521,-3.9593077
1570715129,-6.7461853,3.7256927,2.1525726,0.1295166,-2.9114227,-0.6587677,0.93333757,14.182521,-3.9593077
1570715129,-6.7461853,3.7256927,2.1525726,0.1295166,-2.9114227,-0.6587677,0.93333757,14.182521,-3.9593077
1570715129,-6.7461853,3.7256927,2.1525726,0.1295166,-2.9114227,-0.6587677,0.93333757,14.182521,-3.9593077
1570715129,-6.7461853,3.7256927,2.1525726,0.1295166,-2.9114227,-0.6587677,0.93333757,14.182521,-3.9593077
1570715129,-6.7461853,3.7256927,2.1525726,0.1295166,-2.9114227,-0.6587677,0.93333757,14.182521,-3.9593077
1570715129,-6.7461853,3.7256927,2.1525726,0.1295166,-2.9114227,-0.6587677,0.93333757,14.182521,-3.9593077
1570715129,-6.7461853,3.7256927,2.1525726,0.1295166,-2.9114227,-0.6587677,0.93333757,14.182521,-3.9593077
1570715129,-6.7461853,3.7256927,2.1525726,0.1295166,-2.9114227,-0.6587677,0.93333757,14.182521,-3.9593077
1570715129,-6.7461853,3.7256927,2.1525726,0.1295166,-2.9114227,-0.6587677,0.93333757,14.182521,-3.9593077
1570715129,-6.7461853,3.7256927,2.1525726,0.1295166,-2.9114227,-0.6587677,0.93333757,14.182521,-3.9593077
1570715129,-6.7461853,3.7256927,2.1525726,0.1295166,-2.9114227,-0.6587677,0.93333757,14.182521,-3.9593077
1570715129,-6.7461853,3.7256927,2.1525726,0.1295166,-2.9114227,-0.6587677,0.93333757,14.182521,-3.9593077
1570715129,-6.7461853,3.7256927,2.1525726,0.1295166,-2.9114227,-0.6587677,0.93333757,14.182521,-3.9593077
1570715129,-6.7461853,3.7256927,2.1525726,0.1295166,-2.9114227,-0.6587677,-0.62211275,-8.831998,-3.2116501
1570715129,0.9523773,1.9767151,-5.530411,0.1295166,-2.9114227,-0.6587677,2.0587425,-5.4727135,-0.97894007
1570715129,-6.8862457,18.20462,1.7096558,0.66215515,-0.73083496,-0.7237396,2.0587425,-5.4727135,-0.97894007
1570715129,-6.8862457,18.20462,1.7096558,0.66215515,-0.73083496,-0.7237396,2.0587425,-5.4727135,-0.97894007
1570715129,-1.7854004,4.8054657,2.2914429,-2.47612,-0.77238464,-1.4321442,1.319493,-2.8307061,-4.0176373
1570715129,-0.73313904,3.647873,1.6138763,-2.3344421,0.065979004,-1.4396057,2.2701514,-3.2591271,-5.9025507
1570715129,-1.1533356,3.944748,3.8871765,-1.8731842,-0.3430786,-0.97621155,2.5719492,-2.7830396,-4.19766
1570715129,3.2472076,3.6418915,0.8309784,-1.0380096,-0.14920044,-0.95809937,6.11208,-2.169489,-7.2986712
1570715129,2.0896149,4.4176025,4.581497,0.15188599,0.66360474,-1.5866089,6.3794856,-1.8829956,-4.0879335
1570715129,-1.495697,9.52684,7.133713,1.1521759,-1.382782,-1.2308044,4.2572207,2.2691765,-0.9581814
1570715129,-2.5144348,8.766678,12.8403015,2.4571228,-2.8730774,-0.6630249,1.0379386,3.2998934,0.6931224
1570715129,-1.5818939,11.616974,9.770935,-1.6313629,2.1645508,-0.02279663,3.5500538,5.836469,-2.0380034
1570715129,-7.9768066,6.089966,17.353363,-2.5581512,-2.8219452,0.58013916,-4.7027025,0.086437225,11.590175
1570715129,-1.6285706,6.700485,8.511581,-0.90379333,-1.4999542,0.210495,0.73768973,1.4402552,0.37127304
1570715129,-2.7083588,6.561615,5.6505127,-0.6236267,0.39408875,0.036849976,-0.8405826,0.94691324,-2.5854464
1570715129,-3.5403442,6.3329773,3.4765778,-1.824173,-0.11404419,-0.07499695,-0.052867413,1.0585485,-5.554289
1570715129,-5.409027,6.719635,5.9497833,-2.651886,-0.21205139,0.7164917,-2.57112,2.47895,-3.592001
1570715129,-4.550705,5.395645,7.370743,-2.524063,-0.09486389,1.5378113,-2.3106966,1.4293778,-4.226856
1570715129,-3.0267944,4.0608673,7.470093,-0.46170044,-0.494339,1.8861542,-1.9377408,0.08876729,-0.9992094
1570715129,-3.1501007,2.6590729,7.837616,0.9380493,0.34828186,1.7540588,-1.2581406,-0.6377094,-1.9785786
1570715129,-3.5834503,2.3741608,6.6943817,1.9756165,0.64974976,1.5974731,-1.4757276,-1.9175134,-2.5288
1570715129,-5.057068,3.9339752,5.451782,2.0086365,1.352829,2.0139923,-2.8498292,-0.7616248,-3.6664314
1570715129,-1.6213989,4.332611,8.6983185,1.2001038,0.96507263,2.1183777,-0.16568542,-1.4354558,-0.8702946
1570715129,-4.021576,6.929123,9.390244,0.6014252,0.5623932,1.6049194,-0.7870083,0.5264144,0.45825386
1570715129,-5.7190704,8.268677,12.456024,6.2561035E-4,0.733902,2.408142,-4.308055,2.596486,2.628728
1570715129,0.08328247,5.4722595,10.726212,-0.45957947,-0.37290955,2.3804321,0.7623322,-0.32717943,3.2533207
1570715129,-1.198822,6.671753,11.254135,-1.2894135,0.7584076,1.7093201,0.6029775,0.73272085,1.3974085
1570715129,-1.0396118,5.9618683,12.330322,-1.3554688,0.36958313,1.835022,-0.7416619,0.8000436,3.190772
1570715129,-0.55596924,5.6230927,12.687073,-1.3117828,0.3131256,1.7998657,-0.30731225,0.5757885,3.1799765
1570715129,2.9682922,4.1566467,8.571426,0.22964478,0.0617218,0.95191956,3.3732848,-1.1278744,-0.50002575
1570715130,2.947937,4.193756,6.6668396,-0.10165405,0.50486755,0.5396576,3.2697926,-0.8511381,-3.3801298
1570715130,2.6414795,3.2241058,7.9716797,-0.6236267,-1.0227203,0.21368408,2.9540508,-1.8948703,-1.2706823
1570715130,2.8785095,2.0461578,6.9146423,0.11354065,-1.0578766,-0.07286072,2.8735595,-2.9233036,-2.1233282
1570715130,2.4319916,1.4775238,5.8755646,1.3023682,-0.028823853,-0.24118042,2.2614963,-3.7493176,-3.1990814
1570715130,2.2260895,1.418869,5.7534637,1.7093048,0.368515,-0.6534271,1.8931113,-4.3758974,-2.8155994
1570715130,2.2775574,4.8557434,7.9549255,1.5878601,-0.7244415,-1.0241394,2.3590748,-2.1197414,-0.19034767
