time,ax,ay,az,gx,gy,gz,la_x,la_y,la_z,fox,foy,foz
1570727040,0.24847412,0.8334961,10.276108,-2.712616,-1.1111298,-0.42652893,0.5924829,-1.3228116,0.34533024
1570727040,0.13833618,1.4799194,9.046677,-2.4356384,-0.92684937,-0.94851685,0.19908875,0.09060395,-1.159172
1570727040,0.79315186,1.6403351,9.047882,-1.6217804,0.08729553,-0.34451294,0.7058943,0.9957681,-1.3283157
1570727040,0.78837585,0.23612976,10.654388,-0.88035583,0.64016724,0.1359253,0.8113812,0.022631168,0.26202297
1570727040,0.23890686,0.13079834,10.3658905,-0.37435913,0.6508179,-0.19216919,0.7568637,-0.26519302,0.17397404
1570727040,-3.3164978,2.9056702,9.144852,-2.027649,-0.18754578,-0.12612915,-2.452794,2.041654,-0.28766632
1570727040,-0.39556885,0.56773376,7.075058,-2.269455,-0.5635834,0.22753906,-0.42445537,1.657066,-2.944582
1570727040,0.3430481,-0.7849884,8.810852,-2.7349854,-0.06716919,0.16043091,0.5794218,0.6462213,-1.4052525
1570727040,-1.4346466,-2.4178314,8.257797,-2.8063507,-1.3018188,0.4704132,-1.0948828,0.35199046,-1.7042885
1570727040,1.2468567,-4.800064,6.0694885,-2.844696,-2.3521729,0.6951904,0.4253266,-1.277869,-3.4053364
1570727040,2.1734161,-4.5079803,2.6218414,-3.6766815,-1.2251129,0.17533875,1.1661133,-0.47076988,-6.551648
1570727040,-0.43507385,-6.7309875,7.1911774,-4.7792206,2.325409,-0.06967163,-1.071117,-1.1897087,-1.5189714
1570727041,-0.98812866,-6.8961945,11.833527,-4.0910645,0.5964813,-0.07392883,-1.3208134,-0.32223988,3.995872
1570727041,-1.135376,-7.084137,12.453629,-2.332306,0.3397522,-0.44996643,-1.3584569,0.21332598,5.304379
1570727041,-0.5284424,-8.800781,9.488419,-0.48194885,0.19488525,-0.27101135,-0.86505187,-1.2269182,2.8263931
1570727041,-0.15734863,-8.912109,7.1756134,-0.31362915,-0.042678833,-0.24118042,-0.48683342,-1.3880177,0.48318243
1570727041,-0.5320282,-7.124832,6.580658,-0.34985352,0.51553345,0.036849976,-0.8934111,0.5014925,-0.16313791
1570727041,0.72013855,-7.724579,5.6900177,-0.27314758,0.18955994,0.023010254,0.4928597,0.024850368,-0.971447
1570727041,0.2448883,-7.401367,5.4996796,-0.3221588,0.5165863,-0.1335907,0.10205267,0.33886147,-1.085897
1570727041,0.08566284,-7.2241974,5.4015045,-0.34985352,1.2654724,-0.0014953613,0.07691583,0.57841825,-1.1108532
1570727041,0.7297058,-8.405731,5.885132,-0.3956604,1.0279236,-0.3050995,0.98928565,-0.48608494,-0.5611725
1570727041,-1.5543518,-7.4157257,5.3500366,-0.37968445,0.80101013,-0.48298645,-1.1737549,0.524529,-0.91348314
1570727041,-2.6844177,-7.1811066,4.3720093,-0.39033508,1.3176727,-0.08351135,-2.212611,0.81008244,-1.5152526
1570727041,-1.3065643,-8.605652,2.8959808,-0.7471924,1.9877167,0.35749817,-0.73741937,-0.263649,-3.0890574
1570727041,-1.8811646,-9.295181,2.9570312,-1.3703766,1.5882416,-0.09950256,-0.28012943,-1.1635303,-2.1792393
1570727041,-2.2367096,-8.884567,4.7694397,-1.456665,1.2026215,0.13485718,-0.88964784,-0.23905754,-0.96505594
1570727041,-0.71998596,-10.793945,3.362854,-1.2755737,0.9352417,-0.16340637,1.0072643,-1.6695442,-0.75041914
1570727041,-4.03714,-9.946396,4.8364716,-1.2521362,0.638031,-0.30189514,-2.2355447,-0.94558525,0.0020871162
1570727041,-3.3344421,-9.2365265,4.4797363,-1.1285553,0.7126007,0.34259033,-1.676647,0.012150764,0.10531807
1570727041,-1.3759918,-9.35144,3.6764832,-1.1977997,0.8436279,0.34365845,0.5810257,-0.015321732,-0.28608656
1570727041,-1.8763733,-8.580505,6.158081,-1.4215088,0.6923523,0.14978027,0.11482167,0.8612642,1.9843366
1570727041,-2.5934448,-7.4312897,8.247025,-0.039855957,0.55174255,0.22753906,-0.36096072,2.1107054,5.4657335
1570727041,-2.922638,-7.7341614,4.2032166,-0.19432068,0.42497253,0.5322113,-0.86599493,1.5760031,0.398772
1570727041,-1.4789429,-7.148773,7.8208466,-0.014297485,1.1440277,0.50131226,0.858258,2.2181816,4.6444616
1570727041,-3.2590332,-7.23497,4.765854,-0.75679016,0.97465515,0.2616272,-0.26512408,2.0564718,1.6462324
1570727041,-1.7889862,-7.202652,3.5699463,-0.8462677,-0.37184143,0.04963684,0.934041,2.268507,1.2835886
1570727041,-10.664291,-3.9381561,3.6417694,-0.48406982,-0.6924896,-0.1655426,-9.220704,5.8476267,1.2542093
1570727041,-1.4142914,-6.958435,4.0021057,-0.34132385,0.18103027,0.058166504,1.2106555,1.9151325,1.4916182
1570727041,-3.8659668,-6.2533417,1.2379913,-0.898468,-0.6200409,0.75271606,-1.047307,3.818367,-0.7846005
1570727041,-0.9498291,-9.669876,1.0093536,-1.2233734,-1.8749237,0.7133026,1.5294573,0.4715042,-1.2347157
1570727041,-2.8807526,-14.929932,2.569168,-0.6481323,-2.690918,-0.65023804,0.33304787,-5.5926247,0.8052883
1570727041,-2.5359802,-10.744873,-0.9862213,-0.9890137,-1.8323212,-0.9964447,-0.1273098,-1.4428024,-2.5170023
1570727041,-0.18966675,-4.3116455,-1.7308197,-1.3373566,-0.48794556,-0.523468,1.5931163,5.2475863,-3.5529084
1570727041,-2.1624908,-3.9249878,-0.43914795,-1.3085938,-0.030960083,-0.21134949,0.38032818,6.422756,-1.8433132
1570727041,-0.86602783,-10.658676,-1.2424011,-1.4609222,0.058532715,-0.15489197,0.18585277,-0.12729359,-1.4556888
1570727041,-3.6504822,-11.136322,-0.13748169,-1.2436066,0.44841003,-0.0909729,-1.1101315,-1.1715088,-1.0450784
1570727042,-2.641327,-12.011398,0.5520477,-0.40737915,0.07344055,0.5077057,-1.2689571,-1.9043703,0.54049623
1570727042,-18.173706,-6.18631,2.1585693,1.1042328,0.16824341,1.2746887,-9.306105,0.60497665,1.8233366
1570727042,-0.7475128,-10.687408,-8.172409,0.5289917,1.1855774,1.6837616,3.626203,-3.8204308,-8.431621
1570727042,0.5202179,-0.088272095,4.700012,1.0637512,1.6947784,0.977478,4.0498257,9.484535,4.0114193
1570727042,-1.2706451,-2.8284454,-3.5647736,0.4821167,1.770401,1.6038666,2.216068,6.840166,-4.0982327
1570727042,-2.0020752,0.17747498,2.8480988,-0.13467407,1.371994,0.64938354,2.2647147,8.288653,3.6229718
1570727042,-0.5679474,0.07333374,2.292633,0.7196655,-0.9630585,-0.34344482,3.362602,9.650934,1.5681634
1570727042,-1.3891602,-2.6153564,6.7410583,-0.6364136,0.8233948,-0.3690033,2.4147065,5.4380455,6.766234
1570727042,-1.8249054,-3.8483734,1.0440674,0.6088867,0.2609253,-0.5319977,2.0759156,5.211544,1.1124716
1570727042,-2.7299042,-18.855225,-2.933899,1.2448425,2.2987823,-1.8752899,2.485628,-6.537898,-7.1131077
1570727042,-2.0020752,-6.9847717,-0.7659607,0.76760864,-0.81073,-6.658325,-0.14706326,0.8117418,-0.14461645
1570727042,-1.2478943,-1.3248901,0.3617096,-0.053710938,-1.4690552,-6.919327,-1.224533,8.233593,-0.267636
1570727042,-2.1888275,-15.808609,-2.1186829,-1.3405457,0.52511597,-1.7229614,-5.230784,4.8390245,-3.372665
1570727042,14.090546,-32.952286,0.040893555,-0.8505249,-0.9939575,0.48213196,14.676906,-28.476643,0.08373298
1570727042,-0.2818451,-1.0471497,0.39283752,-0.9517212,-1.4296417,-0.10694885,-1.3300757,7.8936024,0.5640969
1570727042,-0.3440857,-0.16609192,0.31503296,-0.96025085,-1.624588,0.10183716,-1.6638389,9.779054,1.0596782
1570727042,-0.2638855,-4.590576,6.9433746,1.0839996,4.3568726,0.35217285,-1.7390143,6.8794537,8.323382
1570727042,1.1714478,-5.988785,3.651352,1.8488464,2.7760162,0.46936035,0.051496983,3.4068575,4.5955076
1570727042,0.07849121,-7.460022,-1.1753693,1.4472504,-2.1391144,0.04219055,-1.1299314,2.8739529,-1.0671684
1570727042,1.9734955,-8.991119,-3.4893646,0.6717377,-2.2690735,-0.09843445,0.75837326,0.21964073,-4.3078475
1570727042,2.947937,-6.00914,-0.105148315,-0.6523895,-1.176117,-0.07392883,1.3562384,3.409217,-1.6088941
1570727042,3.0592651,-8.068146,3.5364227,0.2871704,2.8761444,-0.7450409,2.3141923,1.6889639,3.6969943
1570727042,0.58724976,-9.662689,-0.8497467,0.72180176,2.3807983,-1.0230865,-0.59037423,-0.017908096,-1.6955545
1570727042,-3.2662048,-10.068512,1.4546661,-0.08779907,1.7906494,-1.1232147,-4.4522457,-0.39201927,-0.17004085
1570727042,-3.5583038,-10.189407,11.887405,0.9007721,3.5600586,-0.30189514,-5.962789,-0.7488222,9.775773
1570727042,0.87576294,-13.592773,9.47644,2.8704376,-0.21737671,0.34577942,-1.2438195,-3.7353287,8.678795
1570727042,4.251587,-15.652985,-1.906784,3.351944,-0.93536377,0.72395325,2.6291728,-6.6559286,-3.9295366
1570727042,8.594666,-13.933945,-0.779129,2.1524506,1.561615,0.7409973,7.19963,-5.810815,-4.3166046
1570727042,4.7447815,-12.481857,3.0420227,2.0352783,0.7818451,0.24671936,4.0745816,-3.5437431,-1.01859
1570727042,-1.4825287,-10.844223,-0.90242004,1.5175629,0.671051,0.25523376,-2.2244554,-2.6639166,-5.10421
1570727042,2.1327057,-8.031036,0.7028961,0.49916077,0.8670654,1.1884003,0.85914105,0.18678474,-4.3732424
1570727042,2.2212982,-5.143631,0.15820312,0.11140442,0.12243652,1.0946655,1.7217809,3.0723114,-4.1575904
1570727042,2.821045,-3.6963348,0.107925415,-0.5202942,0.36639404,0.7452545,3.2256846,4.125211,-4.470882
1570727043,2.7623901,-2.3292542,-3.040451,-0.35731506,-1.0088654,-0.20283508,2.9773111,6.129115,-9.210683
1570727043,2.734848,-2.3855133,1.5432587,-1.3011322,-0.9215088,-0.33065796,2.5100904,6.090128,-3.0888605
1570727043,-0.8851776,-3.8771057,0.39404297,-1.5546722,-1.4264526,-0.105895996,-0.9370647,5.400628,-3.3648705
1570727043,-1.9984894,-8.130402,2.145401,-1.8348389,-1.4509583,1.1415405,-2.7601645,0.9444046,-1.8399899
1570727043,-2.069107,-8.174698,5.546356,-1.9221802,-0.0011291504,2.1109314,-2.101264,0.7310829,2.6380236
1570727043,-2.744278,-7.187088,5.695999,-1.9115295,1.5168762,2.1940155,-2.3566172,1.5254288,3.212033
1570727043,2.1159515,-7.3283386,6.217926,-1.3618469,1.4700012,2.4294434,1.1334326,2.0674143,3.6893058
1570727043,-1.8656006,-9.114426,4.205612,-0.9890137,0.26838684,2.3079987,0.14172018,0.43314266,2.452933
1570727043,-0.39915466,-10.992676,8.84317,-0.9527893,-0.7223053,1.9884186,2.5453246,-1.6887465,7.168749
1570727043,-1.6920319,-12.919998,-3.2631073,0.26054382,1.050293,0.4938507,0.99575543,-3.6688833,-3.9507504
1570727043,-0.15255737,-14.885635,3.0695648,-0.68540955,2.2348633,0.9316864,3.0046194,-6.1831274,1.6386131
1570727043,-8.238968,-10.17984,-4.5883026,0.2818451,2.883606,1.0627136,-3.913379,-0.978117,-5.866774
1570727043,-3.3392334,-11.432007,-1.7846832,0.45761108,2.7067719,2.1109314,0.56985044,-2.7175283,-2.361175
1570727043,-4.4513397,-11.242859,-3.3038025,0.43312073,1.9472351,1.0488586,0.5971751,-2.4738712,-3.5364358
1570727043,-4.7158966,-9.515442,-2.3521118,-0.24333191,0.38023376,-0.20069885,-0.4197173,-1.4109402,-3.0614667
1570727043,-3.9030762,-9.698608,-0.1697998,-0.8238983,-0.6360321,-1.0443878,0.4546733,-1.1189203,-0.15188268
1570727043,-4.49205,-8.79599,-0.09916687,-0.1453247,0.3919525,-1.0443878,-0.41852808,-0.1376419,-0.17736435
1570727043,-5.5526733,-6.495163,1.288269,0.28398132,1.3538818,-0.5927124,-1.7377977,2.2335262,1.4353471
1570727043,-2.6066132,-6.238983,3.9613953,0.94444275,0.67211914,-0.36688232,1.3325763,1.817153,5.507374
1570727043,-2.7981415,-5.084976,3.2084198,1.4131622,-0.6860962,-0.60124207,0.91215444,3.7378426,3.045313
1570727043,-5.4221954,-4.0075836,-0.46188354,1.5942535,-0.14813232,-0.44889832,-1.8813334,4.885165,-1.1381412
1570727043,-6.6911163,-3.0056152,0.8800659,0.885849,0.6060791,0.18173218,-3.3892956,5.777857,-0.19886899
1570727043,-1.5304108,-3.7118988,2.1873016,0.35855103,0.1554718,0.7921295,1.1844842,5.208028,1.0590345
1570727043,1.0577087,-7.23497,9.131683,-0.5149689,-0.10978699,0.37242126,4.769324,1.9842014,8.5089035
1570727043,-3.1548767,-9.143143,2.1477966,1.2565613,1.003418,-0.8249359,0.7167647,-0.25151634,1.2847638
1570727043,-7.1280518,-9.414886,-3.6904755,1.1287384,1.7448425,-1.3660889,-3.4282737,-1.1673555,-5.6087093
1570727043,-7.9456787,-10.234909,-1.0161438,0.37345886,0.98316956,-1.3586426,-4.7486057,-1.3267708,-2.6089778
1570727043,-10.669083,-12.1813965,4.779022,0.17532349,0.0010070801,-1.22229,-7.774811,-3.1792345,3.0335183
1570727043,-10.722946,-11.432007,10.477219,1.5686951,0.041488647,-0.14103699,-8.264566,-2.395362,9.023225
1570727043,-5.641266,-11.848602,5.438614,1.7093048,-0.70526123,1.1628418,-3.0986102,-3.0922575,3.8400922
1570727043,-0.1262207,-12.558472,2.3800201,1.5665588,-2.0826569,1.8808289,2.9428077,-3.912012,-0.21798396
1570727043,2.3290405,-14.352936,-0.973053,1.4824066,-1.8419037,1.2991943,5.364906,-5.6443167,-3.6448693
1570727043,-1.4585876,-9.623184,1.2834778,0.49276733,-1.0450897,-0.021728516,3.2574437,-3.2904654,-4.2334538
1570727044,-3.2973328,-6.637619,0.37487793,0.6056824,-0.5667877,0.36495972,-0.64060736,1.2706661,-2.3869085
1570727044,-2.005661,-6.127655,-0.00340271,0.038970947,-0.29940796,0.6515198,1.2701523,1.6329784,-3.5629
1570727044,-0.09628296,-5.4069977,0.22644043,-0.3019104,0.2939453,0.67282104,3.3202536,2.5804558,-3.707554
1570727044,1.0768738,-5.1376495,0.08039856,-0.7663727,-0.04586792,0.31596375,4.6696734,2.829534,-3.6199155
1570727044,1.1498871,-4.3236237,0.083984375,-1.1892853,-0.082092285,-0.11973572,4.7392254,3.7028809,-3.3693645
1570727044,1.0888367,-3.5359344,0.37608337,-1.5376282,0.16719055,-0.523468,4.5484743,4.634695,-2.7532313
1570727044,1.2025604,-2.9744873,1.5995178,-1.6856995,0.27371216,-0.9367981,4.547099,5.414755,-1.140008
1570727044,-1.495697,-5.7505646,1.8018341,-1.5259094,-0.0597229,-1.3032532,1.6401823,2.951188,-0.46267986
1570727044,-4.633301,-8.544601,1.710846,-2.12352,-1.1856995,-1.7463989,-2.0045843,0.36856556,-0.07363403
1570727044,-10.8941345,-9.532211,9.79248,-3.449768,-0.8192444,-1.7421417,-7.9174795,-0.68842316,6.7770605
1570727044,-5.191147,-6.570572,13.236542,-0.21350098,0.18635559,0.49066162,-3.578865,2.800273,12.535265
1570727044,0.5693054,-15.079575,8.774933,1.3577728,-0.37823486,1.4728394,2.655176,-5.631117,8.482606
1570727044,1.6466827,-16.815369,-4.73674,0.803833,1.0566864,1.1234283,3.7032623,-8.121014,-6.2990146
1570727044,1.3474121,-13.100769,-3.9394684,1.4067688,0.33442688,-0.3466339,4.225431,-4.2683077,-5.598755
1570727044,-2.2762146,-10.115189,0.25756836,-0.2784729,-1.179306,-0.5884552,0.40432668,-1.244813,-1.7898029
1570727044,-5.807663,-10.888519,-3.443863,-0.11123657,-2.9029083,-1.1274719,-3.534048,-1.8733425,-5.147235
1570727044,-5.18277,-13.925568,-3.2152252,-0.7621155,-0.47303772,-0.47659302,-3.4499807,-4.024419,-5.0792994
1570727044,-3.0112305,-12.767975,-2.1162872,-1.9935608,1.0907745,0.47680664,-1.2422339,-3.7824144,-3.6470876
1570727044,0.3143158,-8.1375885,5.1130066,-1.8401642,1.7778625,0.5694885,2.1109462,0.71225166,3.36157
1570727044,2.2524261,-6.942871,7.3180695,0.12738037,0.717926,0.19664001,4.554369,2.2376127,7.337298
1570727044,-0.49372864,-5.579376,-1.2747192,0.8826599,0.40367126,-0.34024048,1.8189976,3.5222254,-1.606851
1570727044,-1.3412781,-3.921402,-0.5827942,0.29356384,0.80740356,-0.39137268,0.80772066,5.00344,-1.4251528
1570727044,-1.9781342,-3.3503723,0.68852234,-0.094192505,1.0620117,-0.33598328,0.11253095,5.8820524,0.019398391
1570727044,-3.2997284,-4.5917664,4.889145,-0.031341553,1.8375244,-0.08457947,-1.239442,4.6152306,4.112155
1570727044,-2.2989502,-8.588898,10.272507,1.4504395,1.5190125,0.13059998,-0.4124503,0.6777439,10.048694
1570727044,-2.014038,-8.344681,-0.8772888,2.191864,0.159729,-0.2592926,0.017137766,0.5745249,-1.8304231
1570727044,-3.898285,-7.5677643,-2.4263306,1.2938538,-0.066101074,-0.8100281,-1.844945,1.3805971,-4.1181483
1570727044,-7.3722687,-7.682678,-0.89523315,0.14442444,-0.83735657,-0.82388306,-5.5773854,1.4620619,-2.592534
1570727044,-9.309174,-12.503418,8.164413,0.20515442,0.37384033,-0.22732544,-7.7284226,-3.2436018,5.80313
1570727044,-7.289673,-15.266327,10.216248,2.3761597,-1.3774414,0.7495117,-5.7344656,-6.2847567,8.568277
1570727044,-2.9645386,-14.066818,0.18693542,2.30159,-1.1718597,2.0363617,-1.2612243,-5.1869555,-2.5943553
1570727044,6.6781006,-18.387161,1.6677551,1.5836029,-0.5199127,1.7838898,8.498022,-9.970152,-1.2303572
1570727044,0.7835846,-12.545303,3.1246185,1.0019684,0.16612244,0.4416504,4.8936243,-5.5070477,-1.7311502
1570727044,-3.867157,-5.665573,-1.6422272,0.7740021,0.22044373,0.30636597,-1.0639026,2.329133,-5.636932
1570727045,-0.19445801,-4.183563,1.5420532,0.04322815,-0.23760986,0.55244446,2.111241,4.0159245,-2.8430376
1570727045,-0.3608551,-4.281723,-0.73243713,-0.30085754,-0.35798645,0.4938507,2.500745,3.7644596,-4.498404
1570727045,1.1403198,-4.5965576,-0.59835815,-0.8281555,-0.11618042,0.37561035,3.8934047,3.4872751,-4.620232
1570727045,1.7532349,-4.1344757,-0.08241272,-1.2990112,-0.36012268,-0.21881104,4.697236,3.9581623,-3.6847405
1570727045,2.153061,-3.7226715,0.43473816,-1.6643829,-0.16517639,-0.78126526,4.800728,4.460394,-3.0023253
1570727045,2.220108,-3.5012054,1.2499695,-1.7304382,-0.018173218,-1.2063141,4.7363453,5.135543,-1.5547051
1570727045,-0.96299744,-6.7872467,1.9131622,-1.4289703,-0.6626587,-1.4811401,1.6248205,2.3946342,-0.49180388
1570727045,-5.5059814,-10.422852,1.1039124,-2.5293884,-1.1452179,-1.6814117,-3.6824942,-1.3736677,-0.919454
1570727045,-13.896469,-7.9999237,14.042191,-2.3131409,1.3315125,-0.490448,-13.774197,0.07680416,13.358767
1570727045,-4.080246,-6.6232452,13.663895,-0.19113159,0.58903503,0.5588379,-3.4469392,2.8008385,12.473941
1570727045,2.2847443,-17.992111,5.4685516,0.91567993,-2.721817,1.0019836,4.3492002,-8.440207,10.850437
1570727045,3.7440033,-15.183716,-9.660416,1.8840027,-0.8629303,0.74632263,5.5522165,-5.9708033,-11.005835
1570727045,0.8925171,-6.447281,-5.4621735,1.2991791,0.638031,-0.62680054,2.7026615,2.2785378,-7.6192675
1570727045,2.0728607,-27.750885,-4.7654724,-1.5323029,-0.61364746,-0.9730072,3.8439474,-14.533219,-6.0551357
1570727045,-9.146378,-11.269196,6.611786,-3.1685486,-1.3753204,-1.6590424,-6.4061575,-4.794386,2.5273001
1570727045,-7.3124084,-7.151169,4.865204,2.26857,-1.5169983,0.45550537,-7.446089,2.3101616,9.26097
1570727045,-0.20402527,-10.644318,-7.0974274,2.065094,0.31098938,1.1319427,0.6544049,-1.1389875,-8.763337
1570727045,3.2053223,-9.480728,-6.721527,0.13484192,4.507065,0.77189636,4.876072,-0.80421543,-9.545203
1570727045,0.91645813,-6.2605286,2.6254272,-1.2116547,3.2425995,0.24671936,2.814363,2.6503325,0.20935738
1570727045,-0.19923401,-5.174759,2.881607,-1.8390961,-1.1526794,-0.48298645,1.8817987,3.6350403,2.0314105
1570727045,-1.0587616,-3.818451,9.33519,-1.2862244,-2.0506897,-0.7120209,0.6954738,5.2711334,8.136934
1570727045,-2.2247314,-4.824005,1.987381,1.664566,1.2228546,-0.67581177,-0.50901675,4.6304197,2.458201
1570727045,-2.3204956,-6.7274017,-0.09197998,1.2959747,1.8279266,-0.3658142,-1.0791266,2.3438816,-1.0613447
1570727045,-1.5364075,-6.3191833,-1.1765594,0.6355133,1.146164,-0.36688232,-0.22299433,2.8401546,-2.349481
1570727045,-1.5471802,-7.653961,0.26235962,0.06880188,0.9490814,-0.45103455,-0.17042732,1.6566601,-1.0915738
1570727045,-5.3683167,-9.440033,8.3068695,-0.18580627,0.462265,-0.8473053,-3.661521,-0.19808006,5.3148108
1570727045,-7.231003,-10.00386,7.115753,2.3399353,0.070251465,-0.5383911,-6.2889385,-0.9893904,6.5723524
1570727045,-6.5378876,-10.568893,5.7163544,2.1971893,-2.421402,-0.08351135,-5.6322384,-1.2884789,3.5615566
1570727045,-4.5255585,-15.903183,0.6442261,2.492279,-1.6693268,1.1500549,-4.276278,-6.116658,-1.6758196
1570727045,5.688095,-20.449768,3.7758484,2.2291565,-0.42190552,1.5420685,5.611724,-12.121928,0.44500494
1570727045,4.9626617,-12.732056,0.3030548,1.8509827,0.01272583,0.6568451,7.317141,-5.506241,-3.3885927
1570727045,-3.645691,-7.795212,-1.3657074,0.836853,0.36639404,0.608902,-1.9296956,0.30219364,-5.957476
1570727045,-3.1297455,-7.0709686,3.0348358,0.027252197,0.08622742,0.92422485,-1.8052372,1.0429001,-1.763845
1570727046,-1.1090393,-7.133209,1.0045624,-0.33387756,-0.5678406,0.9380646,0.5732448,0.79046345,-2.9457502
1570727046,2.1339111,-5.0753937,-0.2607727,-0.77915955,-1.035492,0.7133026,3.7199047,2.5656347,-4.586535
1570727046,3.8625183,-2.4070587,-0.98501587,-1.121109,-0.81391907,0.09970093,5.72618,5.528386,-4.990876
1570727046,3.8146362,-3.0894165,-0.8712921,-1.7954102,0.19700623,-0.26567078,5.714713,5.406355,-4.9665594
1570727046,3.4435425,-3.9225922,1.8114014,-2.044693,0.27903748,-0.6438446,5.287719,4.5299244,-1.618737
1570727046,0.7979431,-4.3942566,2.0496216,-1.5759735,-0.73509216,-1.1200256,2.8218875,4.3201895,-0.61040115
1570727046,-3.5834503,-7.586914,0.9566803,-1.6856995,-1.8823853,-1.16156,-1.9285128,1.818121,-1.183938
1570727046,-6.2015076,-11.862961,1.9682312,-3.3251343,-2.3383179,-0.6129608,-5.3264246,-2.8996925,-0.48494208
1570727046,-3.740265,-6.4855804,12.094498,-1.3895569,1.5818481,0.24990845,-4.344768,1.7785816,11.337695
1570727046,0.6100006,-6.103714,12.420105,0.3574829,0.5070038,0.9625702,0.74158084,3.5744019,12.125747
1570727046,5.257141,-18.877975,-4.923477,0.8262024,-1.1995544,1.3588562,6.350867,-9.369157,-5.825041
1570727046,2.6570435,-14.54686,-4.199234,0.030441284,2.8825378,0.16362,4.139473,-6.1662216,-5.825477
1570727046,1.1439056,-8.626007,1.5516357,0.8336487,2.0835876,-0.1144104,2.6518617,0.49567604,0.32956588
1570727046,-1.7051849,-20.10022,0.32580566,-0.5117798,-2.740982,-1.5035095,-0.3041824,-10.623086,-0.96957874
1570727046,-8.4939575,-13.9925995,1.9836426E-4,-1.4598541,-2.9955902,-1.8976593,-6.7143965,-6.7041845,-1.9187816
1570727046,-7.626053,-6.645996,2.2279968,0.63764954,-0.98117065,0.36495972,-7.6589565,2.708291,1.6419154
1570727046,-1.2850037,-8.023865,-5.851242,0.92633057,0.97465515,1.0978546,-0.41246867,0.9996891,-7.0593176
1570727046,0.80752563,-9.996689,-4.693634,-0.10803223,4.249283,1.021164,1.4405465,-0.35751057,-6.4369335
1570727046,0.9715271,-9.096466,0.47543335,-1.0870209,4.287628,0.19770813,2.4502413,-0.6112709,-1.8454654
1570727046,0.355011,-6.9045715,2.8708344,-2.3088684,0.07344055,-0.17939758,2.06409,1.6693087,2.5875392
1570727046,-0.2710724,-2.7578125,4.003296,-2.0329742,-1.6895752,-0.35942078,1.1033299,6.206644,3.8025255
1570727046,-1.3975372,-5.5686035,9.903809,0.09968567,-1.3603973,-0.2358551,-0.092359304,3.8252115,10.764744
1570727046,-1.8464508,-8.779236,0.33299255,2.0075836,2.3914642,-0.46488953,-0.6255015,0.26906013,0.4564046
1570727046,-3.4493713,-7.503113,5.2387085,1.2618866,1.6894531,-0.2859192,-2.3986502,1.3264322,4.5291443
1570727046,-1.0898895,-5.032303,0.9866028,2.0363464,-0.70632935,-0.105895996,-0.19898307,3.7397738,1.5607231
1570727046,-0.43984985,-3.38031,-3.8903809,1.7753448,-0.50605774,-0.47766113,0.5246318,5.674513,-5.2813873
1570727046,-1.9829254,-9.9882965,-1.6817322,0.51194763,-0.77238464,-0.86434937,-1.1302924,-0.76730347,-3.4385824
1570727046,-5.456909,-18.182465,-1.8289795,-0.78341675,-1.7790527,-1.3245544,-4.821685,-8.898284,-3.45679
1570727046,-8.960815,-12.936768,23.3676,0.020858765,1.4103546,-0.40629578,-8.483344,-3.940755,20.986837
1570727046,-1.9948883,-13.838181,2.710434,2.39534,-2.3383179,1.3886719,-1.9637368,-4.6901846,1.0538857
1570727046,3.6841583,-14.380463,-1.7140503,2.2920074,0.6156616,1.8403473,4.2396173,-5.49953,-4.382819
1570727046,7.9302673,-17.307373,1.8880157,1.4120941,0.8042145,1.2054596,9.03149,-8.455002,-1.3731005
1570727046,-1.2658539,-12.726074,2.244751,1.0328674,-0.7595978,-0.37753296,0.27463162,-4.4388227,-1.1680961
1570727047,-5.467682,-6.3946075,-0.49421692,0.74523926,-0.18222046,0.25630188,-4.5126987,2.0575314,-4.1850295
1570727047,0.61479187,-5.468048,0.74598694,0.3244629,-0.8394928,0.6877289,1.7663246,2.9501991,-2.9389482
1570727047,0.23770142,-4.4660797,-1.0185394,-0.22096252,-0.81391907,0.6717529,1.6021577,3.774539,-4.575443
1570727047,1.2217255,-4.5319214,-1.4064026,-0.68434143,-0.36758423,0.5907898,2.5244083,3.8677301,-5.028508
1570727047,2.44635,-4.590576,-1.0963593,-1.1125793,-0.34414673,0.35217285,3.8041131,3.8171587,-4.526351
1570727047,2.896469,-3.6879578,-0.71328735,-1.4811707,-0.04800415,-0.04837036,4.2501493,4.845541,-3.7612798
1570727047,2.1841888,-3.9860382,0.21687317,-1.5259094,0.4857025,-0.6118927,3.5294094,4.7194633,-2.4008346
1570727047,-0.47816467,-6.2365875,0.61190796,-1.2819519,-0.082092285,-1.0198822,0.7253543,2.6460238,-1.5574148
1570727047,-2.8615875,-10.519821,0.5891571,-1.5152588,-1.6352386,-0.919754,-1.8708949,-1.2549543,-1.2074507
1570727047,-3.3835297,-12.079636,1.2535553,-4.6364746,-2.9050446,-0.59910583,-2.5977755,-2.9494114,-0.8543911
1570727047,-2.337265,-6.7848663,15.534973,-0.18260193,2.7760162,0.44699097,-1.94647,2.157713,15.470866
1570727047,1.6873932,-7.432495,2.3189697,1.1287384,-0.42936707,1.0765533,2.3478072,1.6175642,2.018483
1570727047,3.3298187,-11.211746,-3.4199219,0.7058258,0.27903748,0.33512878,4.322771,-1.947259,-4.5593147
1570727047,-0.028060913,-12.843384,-1.0341034,0.22964478,0.8596039,-0.08457947,0.8235969,-3.7133293,-2.1266725
1570727047,0.40290833,-13.562851,-1.3896484,0.46400452,0.22471619,-0.361557,1.3841932,-4.566553,-2.610937
1570727047,-3.1800232,-9.322708,0.9207611,-0.17834473,-2.612091,-0.91122437,-2.4274838,-0.27198792,-0.017954826
1570727047,-3.8288422,-13.603546,-2.8872223,0.0315094,-3.0499115,-0.5170746,-3.3050816,-4.4386034,-3.9358997
1570727047,-4.6716156,-16.557999,-2.633438,-1.9594727,-0.48582458,-0.028121948,-4.5300927,-7.66004,-3.7924638
1570727047,-2.036789,-9.751282,4.111038,-1.5333557,1.1216583,0.7154236,-1.8432655,-0.5779915,3.3628905
1570727047,-0.0053100586,-9.319122,2.569168,0.56307983,0.49742126,0.65257263,0.6584678,-0.09275913,2.670281
1570727047,1.2660065,-8.519455,-2.6717377,0.7835846,1.4252625,0.38093567,1.9888309,0.4078722,-2.9652832
1570727047,0.46035767,-6.7274017,-2.716034,0.09968567,2.133667,-0.037704468,1.6142657,2.0095625,-3.6203928
1570727047,-0.21000671,-5.6835327,-0.040512085,-0.36476135,1.880127,-0.24330139,0.6652533,3.4793434,-0.51038754
1570727047,-0.6984253,-5.059845,1.2846832,-0.7482605,0.41964722,-0.47554016,0.010374665,3.993022,0.8520094
1570727047,-0.7870178,-4.8754883,1.4211426,-0.75997925,-0.0032653809,-0.50535583,-0.013616562,4.125145,1.1042104
1570727047,-0.7870178,-4.8754883,1.4211426,-0.75997925,-0.0032653809,-0.50535583,-0.013616562,4.125145,1.1042104
1570727047,-0.7870178,-4.8754883,1.4211426,-0.75997925,-0.0032653809,-0.50535583,-0.013616562,4.125145,1.1042104
1570727047,-0.7870178,-4.8754883,1.4211426,-0.75997925,-0.0032653809,-0.50535583,-0.013616562,4.125145,1.1042104
1570727047,-0.7870178,-4.8754883,1.4211426,-0.75997925,-0.0032653809,-0.50535583,-0.013616562,4.125145,1.1042104
1570727047,-0.7870178,-4.8754883,1.4211426,-0.75997925,-0.0032653809,-0.50535583,-0.013616562,4.125145,1.1042104
1570727047,-0.7870178,-4.8754883,1.4211426,-0.75997925,-0.0032653809,-0.50535583,-0.013616562,4.125145,1.1042104
1570727047,-0.7870178,-4.8754883,1.4211426,-0.75997925,-0.0032653809,-0.50535583,-0.013616562,4.125145,1.1042104
1570727047,-0.7870178,-4.8754883,1.4211426,-0.75997925,-0.0032653809,-0.50535583,-0.013616562,4.125145,1.1042104
1570727047,-6.2721252,-12.2209015,-5.1138306,2.90773,-3.4461975,0.6003876,-5.8081303,-5.3190613,-0.979473
1570727048,-6.2721252,-12.2209015,-5.1138306,2.90773,-3.4461975,0.6003876,-5.8081303,-5.3190613,-0.979473
1570727048,-6.2721252,-12.2209015,-5.1138306,2.90773,-3.4461975,0.6003876,-5.8081303,-5.3190613,-0.979473
1570727048,-6.2721252,-12.2209015,-5.1138306,2.90773,-3.4461975,0.6003876,-5.8081303,-5.3190613,-0.979473
1570727048,-6.2721252,-12.2209015,-5.1138306,2.90773,-3.4461975,0.6003876,-5.8081303,-5.3190613,-0.979473
1570727048,-6.2721252,-12.2209015,-5.1138306,2.90773,-3.4461975,0.6003876,-5.8081303,-5.3190613,-0.979473
1570727048,-6.2721252,-12.2209015,-5.1138306,2.90773,-3.4461975,0.6003876,-5.8081303,-5.3190613,-0.979473
1570727048,-6.2721252,-12.2209015,-5.1138306,2.90773,-3.4461975,0.6003876,-5.8081303,-5.3190613,-0.979473
1570727048,-6.2721252,-12.2209015,-5.1138306,2.90773,-3.4461975,0.6003876,-5.8081303,-5.3190613,-0.979473
1570727048,2.5373383,-6.278488,-1.8170013,-0.79299927,-3.264038,1.3439331,3.6070592,2.3486357,-4.714449
1570727048,2.62352,-6.211441,-1.7068787,-0.81111145,-3.2267456,1.2928009,3.793621,2.484703,-4.5677667
1570727048,2.62352,-6.211441,-1.7068787,-0.81111145,-3.2267456,1.2928009,3.793621,2.484703,-4.5677667
1570727048,2.62352,-6.211441,-1.7068787,-0.81111145,-3.2267456,1.2928009,3.793621,2.484703,-4.5677667
1570727048,2.62352,-6.211441,-1.7068787,-0.81111145,-3.2267456,1.2928009,3.793621,2.484703,-4.5677667
1570727048,2.62352,-6.211441,-1.7068787,-0.81111145,-3.2267456,1.2928009,3.793621,2.484703,-4.5677667
1570727048,2.62352,-6.211441,-1.7068787,-0.81111145,-3.2267456,1.2928009,3.793621,2.484703,-4.5677667
1570727048,2.62352,-6.211441,-1.7068787,-0.81111145,-3.2267456,1.2928009,3.793621,2.484703,-4.5677667
1570727048,2.62352,-6.211441,-1.7068787,-0.81111145,-3.2267456,1.2928009,3.793621,2.484703,-4.5677667
1570727048,2.62352,-6.211441,-1.7068787,-0.81111145,-3.2267456,1.2928009,3.793621,2.484703,-4.5677667
1570727048,-4.891876,-8.365036,1.9011841,-0.6523895,-0.08528137,0.9380646,-5.877135,-0.33332634,4.9441395
1570727048,-4.891876,-8.365036,1.9011841,-0.6523895,-0.08528137,0.9380646,-5.877135,-0.33332634,4.9441395
1570727048,-4.891876,-8.365036,1.9011841,-0.6523895,-0.08528137,0.9380646,-5.877135,-0.33332634,4.9441395
1570727048,-4.891876,-8.365036,1.9011841,-0.6523895,-0.08528137,0.9380646,-5.877135,-0.33332634,4.9441395
1570727048,-4.891876,-8.365036,1.9011841,-0.6523895,-0.08528137,0.9380646,-5.877135,-0.33332634,4.9441395
1570727048,-4.891876,-8.365036,1.9011841,-0.6523895,-0.08528137,0.9380646,-5.877135,-0.33332634,4.9441395
1570727048,-4.891876,-8.365036,1.9011841,-0.6523895,-0.08528137,0.9380646,-5.877135,-0.33332634,4.9441395
1570727048,-4.891876,-8.365036,1.9011841,-0.6523895,-0.08528137,0.9380646,-5.877135,-0.33332634,4.9441395
1570727048,-4.891876,-8.365036,1.9011841,-0.6523895,-0.08528137,0.9380646,-5.877135,-0.33332634,4.9441395
1570727048,-4.891876,-8.365036,1.9011841,-0.6523895,-0.08528137,0.9380646,-5.877135,-0.33332634,4.9441395
1570727048,-4.891876,-8.365036,1.9011841,-0.6523895,-0.08528137,0.9380646,-5.877135,-0.33332634,4.9441395
1570727048,-4.891876,-8.365036,1.9011841,-0.6523895,-0.08528137,0.9380646,-5.877135,-0.33332634,4.9441395
1570727048,-4.891876,-8.365036,1.9011841,-0.6523895,-0.08528137,0.9380646,-5.877135,-0.33332634,4.9441395
1570727048,-4.891876,-8.365036,1.9011841,-0.6523895,-0.08528137,0.9380646,-5.877135,-0.33332634,4.9441395
1570727048,-4.891876,-8.365036,1.9011841,-0.6523895,-0.08528137,0.9380646,-5.877135,-0.33332634,4.9441395
1570727049,-4.891876,-8.365036,1.9011841,-0.6523895,-0.08528137,0.9380646,-5.877135,-0.33332634,4.9441395
1570727049,-4.891876,-8.365036,1.9011841,-0.6523895,-0.08528137,0.9380646,-5.877135,-0.33332634,4.9441395
1570727049,-4.891876,-8.365036,1.9011841,-0.6523895,-0.08528137,0.9380646,-5.877135,-0.33332634,4.9441395
1570727049,-4.891876,-8.365036,1.9011841,-0.6523895,-0.08528137,0.9380646,-5.877135,-0.33332634,4.9441395
1570727049,-4.891876,-8.365036,1.9011841,-0.6523895,-0.08528137,0.9380646,-5.877135,-0.33332634,4.9441395
1570727049,-4.891876,-8.365036,1.9011841,-0.6523895,-0.08528137,0.9380646,-5.877135,-0.33332634,4.9441395
1570727049,-4.891876,-8.365036,1.9011841,-0.6523895,-0.08528137,0.9380646,-5.877135,-0.33332634,4.9441395
1570727049,-4.891876,-8.365036,1.9011841,-0.6523895,-0.08528137,0.9380646,-5.877135,-0.33332634,4.9441395
1570727049,-4.891876,-8.365036,1.9011841,-0.6523895,-0.08528137,0.9380646,-5.877135,-0.33332634,4.9441395
1570727049,-4.891876,-8.365036,1.9011841,-0.6523895,-0.08528137,0.9380646,-5.877135,-0.33332634,4.9441395
1570727049,-4.891876,-8.365036,1.9011841,-0.6523895,-0.08528137,0.9380646,-5.877135,-0.33332634,4.9441395
1570727049,-4.891876,-8.365036,1.9011841,-0.6523895,-0.08528137,0.9380646,-5.877135,-0.33332634,4.9441395
1570727049,-4.891876,-8.365036,1.9011841,-0.6523895,-0.08528137,0.9380646,-5.877135,-0.33332634,4.9441395
1570727049,-4.891876,-8.365036,1.9011841,-0.6523895,-0.08528137,0.9380646,-5.877135,-0.33332634,4.9441395
1570727049,-4.891876,-8.365036,1.9011841,-0.6523895,-0.08528137,0.9380646,-5.877135,-0.33332634,4.9441395
1570727049,-4.891876,-8.365036,1.9011841,-0.6523895,-0.08528137,0.9380646,-5.877135,-0.33332634,4.9441395
1570727049,-4.891876,-8.365036,1.9011841,-0.6523895,-0.08528137,0.9380646,-5.877135,-0.33332634,4.9441395
1570727049,-4.891876,-8.365036,1.9011841,-0.6523895,-0.08528137,0.9380646,-5.877135,-0.33332634,4.9441395
1570727049,-4.891876,-8.365036,1.9011841,-0.6523895,-0.08528137,0.9380646,-5.877135,-0.33332634,4.9441395
1570727049,-4.891876,-8.365036,1.9011841,-0.6523895,-0.08528137,0.9380646,-5.877135,-0.33332634,4.9441395
1570727049,-4.891876,-8.365036,1.9011841,-0.6523895,-0.08528137,0.9380646,-5.877135,-0.33332634,4.9441395
1570727049,-4.891876,-8.365036,1.9011841,-0.6523895,-0.08528137,0.9380646,-5.877135,-0.33332634,4.9441395
1570727049,-4.891876,-8.365036,1.9011841,-0.6523895,-0.08528137,0.9380646,-5.877135,-0.33332634,4.9441395
1570727049,-4.891876,-8.365036,1.9011841,-0.6523895,-0.08528137,0.9380646,-5.877135,-0.33332634,4.9441395
1570727049,-4.891876,-8.365036,1.9011841,-0.6523895,-0.08528137,0.9380646,-5.877135,-0.33332634,4.9441395
1570727049,-4.891876,-8.365036,1.9011841,-0.6523895,-0.08528137,0.9380646,-5.877135,-0.33332634,4.9441395
1570727049,-4.891876,-8.365036,1.9011841,-0.6523895,-0.08528137,0.9380646,-5.877135,-0.33332634,4.9441395
1570727049,-4.891876,-8.365036,1.9011841,-0.6523895,-0.08528137,0.9380646,-5.877135,-0.33332634,4.9441395
1570727049,-4.891876,-8.365036,1.9011841,-0.6523895,-0.08528137,0.9380646,-5.877135,-0.33332634,4.9441395
1570727049,-4.891876,-8.365036,1.9011841,-0.6523895,-0.08528137,0.9380646,-5.877135,-0.33332634,4.9441395
1570727049,-4.891876,-8.365036,1.9011841,-0.6523895,-0.08528137,0.9380646,-5.877135,-0.33332634,4.9441395
1570727049,-4.891876,-8.365036,1.9011841,-0.6523895,-0.08528137,0.9380646,-5.877135,-0.33332634,4.9441395
1570727049,-4.891876,-8.365036,1.9011841,-0.6523895,-0.08528137,0.9380646,-5.877135,-0.33332634,4.9441395
1570727050,-4.891876,-8.365036,1.9011841,-0.6523895,-0.08528137,0.9380646,-5.877135,-0.33332634,4.9441395
1570727050,-4.891876,-8.365036,1.9011841,-0.6523895,-0.08528137,0.9380646,-5.877135,-0.33332634,4.9441395
1570727050,-4.891876,-8.365036,1.9011841,-0.6523895,-0.08528137,0.9380646,-5.877135,-0.33332634,4.9441395
1570727050,-4.891876,-8.365036,1.9011841,-0.6523895,-0.08528137,0.9380646,-5.877135,-0.33332634,4.9441395
1570727050,-4.891876,-8.365036,1.9011841,-0.6523895,-0.08528137,0.9380646,-5.877135,-0.33332634,4.9441395
1570727050,-4.891876,-8.365036,1.9011841,-0.6523895,-0.08528137,0.9380646,-5.877135,-0.33332634,4.9441395
1570727050,-4.891876,-8.365036,1.9011841,-0.6523895,-0.08528137,0.9380646,-5.877135,-0.33332634,4.9441395
1570727050,-4.891876,-8.365036,1.9011841,-0.6523895,-0.08528137,0.9380646,-5.877135,-0.33332634,4.9441395
1570727050,-4.891876,-8.365036,1.9011841,-0.6523895,-0.08528137,0.9380646,-5.877135,-0.33332634,4.9441395
1570727050,-4.891876,-8.365036,1.9011841,-0.6523895,-0.08528137,0.9380646,-5.877135,-0.33332634,4.9441395
1570727050,-4.891876,-8.365036,1.9011841,-0.6523895,-0.08528137,0.9380646,-5.877135,-0.33332634,4.9441395
1570727050,-4.891876,-8.365036,1.9011841,-0.6523895,-0.08528137,0.9380646,-5.877135,-0.33332634,4.9441395
1570727050,-4.891876,-8.365036,1.9011841,-0.6523895,-0.08528137,0.9380646,-5.877135,-0.33332634,4.9441395
1570727050,-4.891876,-8.365036,1.9011841,-0.6523895,-0.08528137,0.9380646,-5.877135,-0.33332634,4.9441395
1570727050,-4.891876,-8.365036,1.9011841,-0.6523895,-0.08528137,0.9380646,-5.877135,-0.33332634,4.9441395
1570727050,-4.891876,-8.365036,1.9011841,-0.6523895,-0.08528137,0.9380646,-5.877135,-0.33332634,4.9441395
1570727050,-4.891876,-8.365036,1.9011841,-0.6523895,-0.08528137,0.9380646,-5.877135,-0.33332634,4.9441395
1570727050,2.1003876,-11.645096,-1.4614716,-0.6523895,-0.08528137,0.9380646,-5.877135,-0.33332634,4.9441395
1570727050,2.1003876,-11.645096,-1.4614716,-0.6523895,-0.08528137,0.9380646,-5.877135,-0.33332634,4.9441395
1570727050,-3.2207184,-18.925858,8.490036,0.94869995,0.206604,0.46296692,-3.6644,-9.673057,6.2127357
1570727050,0.51423645,-11.732483,2.4015808,1.6091614,-0.72976685,0.6142273,0.49015018,-3.334733,0.9562261
1570727050,3.3094635,-12.548904,1.0847626,1.3055725,0.42071533,0.9167633,3.333826,-3.3701057,-1.782316
1570727050,2.3422089,-14.713257,4.7921906,1.0999756,0.40899658,0.49172974,3.9736586,-5.790617,0.9272325
1570727050,-2.0738983,-11.023788,2.2938385,1.2277985,-0.318573,0.11355591,-0.35164148,-3.4887161,0.095083
1570727050,-1.7614594,-6.988373,-0.21170044,0.89649963,0.07450867,0.5407257,-1.7007942,0.9077873,-3.1696312
1570727050,2.5852203,-4.966461,-0.24281311,0.26054382,-0.19500732,0.5311432,3.2614412,3.2240257,-3.9322226
1570727050,2.4475555,-5.3160095,1.8473206,0.016601562,-0.31217957,0.15083313,3.988514,3.4092655,-1.7251222
1570727050,1.0553284,-5.8762665,0.4000244,-0.1762085,-0.20246887,-0.078186035,2.099556,2.5323715,-2.8132765
1570727050,1.275589,-5.405792,-0.47146606,-0.63002014,0.25453186,-0.2081604,2.233011,2.660633,-3.693333
1570727050,0.5896454,-4.3583374,0.09236145,-1.1296234,0.5346985,-0.31254578,1.534334,3.9920378,-3.1520169
1570727050,0.47831726,-3.7885132,0.2527771,-1.3874207,0.5101929,-0.47979736,1.213875,4.704298,-2.3802195
1570727050,-0.35606384,-4.893448,-0.48104858,-1.5259094,0.051071167,-1.0028381,0.48740774,4.0129337,-2.8350096
1570727050,-2.4689484,-7.831131,1.1206818,-1.7208557,-0.2962036,-1.2904663,-1.8384521,1.2287169,-1.0173107
1570727050,-4.7266693,-8.890564,4.470169,-2.6156769,-1.0077972,-0.8632965,-4.194065,0.11131859,1.7305688
1570727051,-2.3396606,-9.065338,13.450821,-0.70777893,-0.38035583,-0.21881104,-3.0271914,-0.43993282,12.966032
1570727051,-0.3045807,-8.812744,7.4174347,0.24775696,-1.0738525,0.10397339,-0.6298862,0.17935562,7.4552245
1570727051,1.9256134,-7.609665,3.1713104,0.17211914,-0.70526123,0.2339325,1.1430666,1.0443163,3.0081854
1570727051,2.5121918,-11.378143,2.7247925,0.032577515,0.6358948,0.013427734,2.7650375,-1.4693451,2.128776
1570727051,0.028213501,-13.907608,-0.7013092,0.2584076,0.5773163,0.22328186,0.50024843,-5.191332,-1.113181
1570727051,0.350235,-11.988663,-2.8489075,0.6493683,-0.052261353,0.49491882,-0.07932787,-3.1822996,-4.1279044
1570727051,-1.1138306,-9.970352,-2.7136383,0.3095398,-0.6626587,-0.17726135,-0.67152065,-1.3862906,-3.9131527
1570727051,-0.76426697,-15.563202,-3.2008514,0.077316284,-1.8248596,-0.12506104,-0.94495213,-4.550355,-4.575167
1570727051,-0.7523041,-13.100769,-3.6749115,-1.1551971,-0.31217957,-0.07499695,-0.8475415,-6.2213106,-5.107131
1570727051,-1.5723114,-8.519455,1.8197784,-1.5706482,0.7307129,0.3138275,-1.4460902,-0.00710392,0.8676185
1570727051,-0.38119507,-8.964783,0.43592834,-0.7067108,1.1525574,0.50024414,-0.32986298,0.51640606,0.07048541
1570727051,-0.0867157,-9.469955,-0.36972046,-0.40631104,1.149353,0.31596375,0.032730997,-0.47661304,-0.49764895
1570727051,0.6351471,-7.8814087,-1.9259491,-0.6044464,1.751236,0.22221375,0.84503096,0.951869,-1.9060295
1570727051,-0.5212555,-6.4939575,0.41558838,-1.3309631,1.9472351,-0.1612854,0.034832865,2.4116163,0.15871823
1570727051,-0.82292175,-5.8164062,1.6857147,-1.5674438,0.59861755,-0.21453857,-0.5226041,3.277154,1.984643
1570727051,-3.0351715,-6.4221344,6.6704407,-0.88993835,0.80314636,-0.27845764,-2.4913106,2.6256924,6.261925
1570727051,-2.6856232,-7.6312103,6.545944,1.0722809,1.0652008,0.095443726,-2.973618,1.7001791,9.326118
1570727051,-1.8895416,-7.5438232,2.3034058,1.1702728,0.04574585,-0.22625732,-1.2138706,1.1522293,2.2034478
1570727051,-1.3580322,-5.459671,2.9414673,1.8254242,-0.09274292,-0.12294006,-1.4466556,3.3857384,3.122418
1570727051,0.22094727,-5.775711,-0.3864746,1.8211517,-0.042678833,-0.045166016,-0.103365585,3.8336182,-0.0037302375
1570727051,-0.09269714,-10.937607,-2.182129,1.3471069,0.08729553,-0.6022949,0.5576403,-1.229538,-3.305857
1570727051,-2.9525757,-8.658325,-0.63067627,0.6014252,-1.2464142,-0.886734,-2.847102,-0.25274563,-1.9927231
1570727051,-6.8108215,-8.852249,2.7906342,0.01979065,0.52511597,-0.82707214,-6.9143057,0.2243967,0.03849256
1570727051,-3.772583,-12.082031,7.060684,1.5995789,-0.09593201,0.2062378,-4.662469,-2.7023325,6.3254175
1570727051,-0.68167114,-17.227173,8.097382,1.8754883,-1.2442932,0.6877289,-1.314553,-8.15582,6.0715456
1570727051,0.12756348,-14.157806,0.9135742,2.6435394,-0.34414673,1.4802856,-0.12576789,-5.839652,-0.33789444
1570727051,2.908432,-13.160614,-1.2112732,1.553772,1.0193939,1.8126526,2.65085,-4.4558153,-4.3318243
1570727051,-0.53323364,-15.486588,4.0643463,0.61421204,0.3919525,0.9615021,1.7158456,-7.5223722,-0.8220103
1570727051,-3.6193542,-8.417709,2.928299,0.89331055,-0.9939575,0.7857361,-2.3675084,-1.2699728,0.32825065
1570727051,-0.7942047,-5.887039,0.74957275,0.5982361,-1.7023621,1.0041199,-0.22600842,2.1436338,-2.905073
1570727051,2.2907257,-5.439316,-0.79348755,0.10821533,-1.6128693,0.72395325,3.1347234,2.6674852,-4.474535
1570727051,2.9766693,-5.3866425,-0.68574524,-0.1485138,-0.7180481,0.3638916,3.9719982,2.8319702,-4.6505756
1570727051,3.0772247,-5.052658,-0.41041565,-0.5543823,-0.5870209,0.16575623,4.225293,2.8375416,-4.3244653
1570727052,2.2236938,-3.850769,-0.91200256,-1.0422821,-0.5934143,-0.030258179,3.2296624,4.1956444,-4.3906937
1570727052,2.9072418,-3.6149292,-0.08480835,-1.568512,-0.079956055,-0.20069885,3.7038167,4.70578,-3.5444224
1570727052,3.0437012,-3.7262726,-0.23085022,-1.5269775,0.04788208,-0.80895996,3.8697555,4.742831,-2.8864915
1570727052,-0.74272156,-5.2597504,-0.5995636,-1.488617,0.4345703,-1.5514526,0.6241317,3.836545,-3.2414474
1570727052,-3.2925415,-7.013504,1.1936951,-1.5301666,-0.48049927,-1.1242828,-3.083808,2.0263643,-1.1162031
1570727052,-2.586258,-10.610794,0.14624023,-3.031128,-2.8325958,-0.3881836,-3.1190906,-0.68444157,-0.9191308
1570727052,-2.2235413,-12.133499,-0.39126587,-3.7086334,-3.2054443,-0.23158264,-2.8868842,-1.5758419,-1.1489406
1570727052,-2.2235413,-12.133499,-0.39126587,-3.7086334,-3.2054443,-0.23158264,-2.8868842,-1.5758419,-1.1489406
1570727052,-2.2235413,-12.133499,-0.39126587,-3.7086334,-3.2054443,-0.23158264,-2.8868842,-1.5758419,-1.1489406
1570727052,-2.2235413,-12.133499,-0.39126587,-3.7086334,-3.2054443,-0.23158264,-2.8868842,-1.5758419,-1.1489406
1570727052,-2.2235413,-12.133499,-0.39126587,-3.7086334,-3.2054443,-0.23158264,-2.8868842,-1.5758419,-1.1489406
1570727052,-2.2235413,-12.133499,-0.39126587,-3.7086334,-3.2054443,-0.23158264,-2.8868842,-1.5758419,-1.1489406
1570727052,-2.2235413,-12.133499,-0.39126587,-3.7086334,-3.2054443,-0.23158264,-2.8868842,-1.5758419,-1.1489406
1570727052,-2.2235413,-12.133499,-0.39126587,-3.7086334,-3.2054443,-0.23158264,-2.8868842,-1.5758419,-1.1489406
1570727052,-2.2235413,-12.133499,-0.39126587,-3.7086334,-3.2054443,-0.23158264,-2.8868842,-1.5758419,-1.1489406
1570727052,-2.2235413,-12.133499,-0.39126587,-3.7086334,-3.2054443,-0.23158264,-2.8868842,-1.5758419,-1.1489406
1570727052,-2.2235413,-12.133499,-0.39126587,-3.7086334,-3.2054443,-0.23158264,-2.8868842,-1.5758419,-1.1489406
1570727052,-2.2235413,-12.133499,-0.39126587,-3.7086334,-3.2054443,-0.23158264,-2.8868842,-1.5758419,-1.1489406
1570727052,-2.2235413,-12.133499,-0.39126587,-3.7086334,-3.2054443,-0.23158264,-2.8868842,-1.5758419,-1.1489406
1570727052,-2.2235413,-12.133499,-0.39126587,-3.7086334,-3.2054443,-0.23158264,-2.8868842,-1.5758419,-1.1489406
1570727052,-2.2235413,-12.133499,-0.39126587,-3.7086334,-3.2054443,-0.23158264,-2.8868842,-1.5758419,-1.1489406
1570727052,-2.2235413,-12.133499,-0.39126587,-3.7086334,-3.2054443,-0.23158264,-2.8868842,-1.5758419,-1.1489406
1570727052,-2.2235413,-12.133499,-0.39126587,-3.7086334,-3.2054443,-0.23158264,-2.8868842,-1.5758419,-1.1489406
1570727052,-0.86961365,-7.0398407,0.31503296,-2.3195343,0.04788208,0.2381897,-2.8868842,-1.5758419,-1.1489406
1570727052,-2.3839417,-7.9053497,0.043289185,1.3215485,-0.8533325,-0.34983826,-2.8034024,0.8077326,-0.193923
1570727052,-2.2283325,-8.329117,-0.91918945,0.8560333,-1.3476257,-0.45529175,-2.0690477,1.0078735,-2.3346324
1570727052,-6.326004,-12.96669,4.1828613,-0.11230469,-0.8171234,-0.4169464,-5.667101,-3.4362106,-0.20857942
1570727052,-5.571823,-17.576721,15.79953,3.272049,-0.25465393,0.815567,-7.0636997,-7.7182264,17.888926
1570727052,3.3453827,-16.062393,-3.3002167,3.0408783,-1.528717,1.8531342,2.1433094,-7.9825764,-4.12132
1570727052,10.551926,-15.1705475,-3.7024384,1.4302063,0.99916077,1.898941,9.693769,-6.9122505,-7.4790525
1570727052,4.0337067,-16.69925,6.518402,1.1755981,0.39834595,0.14657593,8.661996,-6.0429926,0.5507159
1570727052,-9.543808,-10.41687,1.6629639,0.8805237,0.42285156,0.016616821,-7.089915,-4.3933973,-2.9982398
1570727052,-2.7335052,-5.696701,1.2332001,0.28823853,-0.64668274,0.8336792,-3.176115,1.9303312,-2.2615447
1570727053,1.8992767,-4.05188,0.03012085,0.053878784,-1.0738525,0.66856384,2.4698925,3.7678223,-3.6049125
1570727053,2.4966278,-3.1396942,-1.609909,-0.23161316,-0.44215393,0.466156,3.5612793,4.9844246,-5.2504463
1570727053,3.319046,-3.9980164,-1.2064819,-1.1253662,-0.4197693,0.19664001,4.3775535,4.3498945,-5.2124186
1570727053,2.9299774,-3.9441376,-0.5097809,-1.4950104,-0.3611908,-0.3562317,4.1037397,4.181654,-3.8219278
1570727053,2.8677368,-3.7214813,-0.097976685,-1.7144623,0.13522339,-0.8196106,3.6319027,4.661975,-3.0751276
1570727053,1.8980865,-4.6073303,0.89323425,-1.5312347,0.5176544,-1.1711578,3.1218803,4.4939623,-1.9450414
1570727053,-1.9529877,-7.3630524,0.70887756,-1.2297668,-0.24293518,-1.4044495,-0.9220969,1.704463,-1.2856688
1570727053,-4.1544647,-9.809937,0.3892517,-2.0350952,-1.9622803,-1.078476,-3.908546,-0.71350765,-1.3111243
1570727053,-8.5142975,-12.271179,27.180359,-3.1951752,1.3475037,0.12953186,-9.966949,-4.375044,17.053501
1570727053,-0.32014465,-6.4772034,14.063736,0.5609436,1.7906494,0.98387146,-1.6717656,2.5479002,15.389011
1570727053,5.1482086,-12.088013,-0.8748932,1.3652191,-0.45173645,1.502655,4.5078998,-1.1223221,1.9579527
1570727053,2.311081,-17.106262,-6.71196,0.57373047,0.7924957,-0.1144104,3.887975,-8.236006,-9.258467
1570727053,0.38853455,-11.6367035,-2.0911407,0.1103363,-0.117248535,-0.26141357,0.96852297,-4.532913,-3.9912434
1570727053,-2.9058838,-12.662628,0.6442261,-1.0518646,-1.0898285,-0.88139343,-1.493743,-3.3960037,-1.9637158
1570727053,-3.12854,-22.502792,-3.8915863,-1.3416138,-2.8464508,-0.45103455,-2.8873653,-13.259176,-3.466536
1570727053,-3.930603,-7.616852,4.9454193,-1.456665,0.026565552,-0.0057525635,-4.74046,-0.15890026,2.5364676
1570727053,-0.58709717,-7.784439,0.52931213,0.86135864,-0.52098083,0.9156952,-1.0402025,1.9575214,1.5610532
1570727053,1.2504425,-8.968369,-4.142975,1.1905212,0.8393707,0.9902649,0.9287199,0.51976967,-3.753526
1570727053,1.9052582,-10.226532,-4.8731995,0.4224701,4.1470184,-0.14530945,2.672062,-1.5350885,-6.01082
1570727053,-0.17649841,-7.448059,-1.254364,-0.5011139,4.8650055,-0.23158264,0.33443123,1.0615883,-2.9284081
1570727053,0.9344177,-6.672333,2.8923798,-1.535492,1.9866486,0.11994934,1.4601727,2.427043,2.3323972
1570727053,0.43881226,-5.626068,1.8545074,-1.4481354,-1.1090088,-0.39564514,1.1257671,3.1011152,2.137592
1570727053,-0.35127258,-4.8048553,0.9016113,-0.93255615,-2.066681,-0.67367554,0.21835053,4.275033,1.3585249
1570727053,-4.377121,-6.9249268,11.7617035,-2.0904999,-2.3979797,-0.8718109,-2.9845426,2.0684948,6.9692397
1570727053,-1.4442291,-5.555435,0.7795105,2.5061188,1.592514,0.2808075,-2.3011894,3.3388681,3.682216
1570727053,-0.23156738,-4.1488495,-1.2411957,2.7063904,2.594925,-0.3647461,0.09133983,4.6487904,-1.9343512
1570727053,-0.30578613,-6.2210236,-0.11592102,0.94551086,0.28222656,-0.31575012,-0.2080451,3.1939087,-0.81193286
1570727053,-1.1676941,-11.137512,0.20010376,0.61634827,-1.9164734,-0.6449127,-1.0520166,-1.494669,-0.5620971
1570727053,-5.6388702,-12.759598,3.4167175,-0.47769165,-2.787857,-0.8718109,-3.833007,-4.9829836,0.08269042
1570727053,-5.523941,-12.183792,9.221466,2.5529938,0.86813354,-0.13145447,-6.2627215,-2.3584633,10.493756
1570727053,-1.4226837,-17.032043,3.7710571,2.4326172,-2.7963867,0.94873047,-1.9516764,-8.191849,2.40971
1570727053,2.7851257,-15.2100525,-1.7152557,2.6499329,-0.27702332,1.0115814,2.253224,-6.8364725,-3.7183747
1570727053,6.2220154,-16.263504,0.3892517,1.8051758,1.7118225,1.2374115,6.07097,-7.3076515,-3.8904672
1570727053,-0.882782,-13.706497,2.0077362,1.2853241,-0.54974365,-0.22306824,1.2265652,-5.9300623,-1.58024
1570727054,-6.0913696,-5.899002,0.6250763,0.852829,-0.85546875,0.13378906,-5.7624073,1.7673206,-3.0560448
1570727054,-0.6840668,-4.063843,0.21687317,0.21366882,-1.0578766,0.72502136,-1.0375886,4.0518293,-3.6249306
1570727054,1.3258667,-4.906616,-1.2352142,-0.33920288,-1.3923645,0.6664276,1.9255536,3.3614388,-4.7212243
1570727054,1.4850769,-5.5961456,-2.0348816,-0.9496002,-0.91085815,0.6706848,1.737753,2.6483383,-5.81323
1570727054,3.6530304,-5.617691,-1.1143036,-1.359726,-0.33561707,0.4842682,3.7919197,2.629819,-4.584119
1570727054,4.755554,-3.9489288,-0.3002777,-1.535492,-0.13641357,0.019805908,5.0993023,4.359541,-3.201266
1570727054,4.326996,-3.6496582,0.25038147,-1.5866241,0.30993652,-0.6576996,4.788474,4.7510386,-2.3803868
1570727054,0.39930725,-5.8295746,0.91596985,-1.263855,0.15759277,-0.96235657,1.022998,3.1545868,-1.1278679
1570727054,-1.0108795,-10.799942,0.021743774,-1.4151154,-0.80433655,-0.7961731,-1.0645297,-1.5049582,-1.7832202
1570727054,-2.2007904,-10.93161,-0.102752686,-3.7949219,-1.7225952,-0.6129608,-2.124687,-2.5541983,-1.6250345
1570727054,-5.3084717,-5.4309387,18.289505,-1.0934143,3.4769592,0.06881714,-5.933315,2.7941227,19.134022
1570727054,0.23530579,-6.9943542,5.8791504,0.5801239,-0.9918213,0.8187561,-0.59567875,2.4725056,6.7820115
1570727054,4.984207,-18.686432,0.23242188,0.31806946,-0.7425537,0.6898651,4.148959,-8.98131,-0.174407
1570727054,1.1283417,-11.241669,-0.79467773,0.0783844,1.4263306,0.25737,1.7713438,-2.7299776,-0.7179142
1570727054,0.6782379,-9.536987,-2.1881104,1.5803986,1.116333,-0.10908508,0.66367435,-0.09286022,-3.0314
1570727054,-1.4214783,-14.093155,-1.2531738,1.1266022,-0.6914215,-0.69818115,-0.71552014,-5.430072,-2.8271272
1570727054,-1.7339172,-13.77713,-1.1585999,1.0712128,-0.82777405,-0.7120209,-0.71552014,-5.430072,-2.8271272
1570727054,-1.7339172,-13.77713,-1.1585999,1.0712128,-0.82777405,-0.7120209,-0.71552014,-5.430072,-2.8271272
1570727054,-1.7339172,-13.77713,-1.1585999,1.0712128,-0.82777405,-0.7120209,-0.71552014,-5.430072,-2.8271272
1570727054,-1.7339172,-13.77713,-1.1585999,1.0712128,-0.82777405,-0.7120209,-0.71552014,-5.430072,-2.8271272
1570727054,-1.7339172,-13.77713,-1.1585999,1.0712128,-0.82777405,-0.7120209,-0.71552014,-5.430072,-2.8271272
1570727054,-1.7339172,-13.77713,-1.1585999,1.0712128,-0.82777405,-0.7120209,-0.71552014,-5.430072,-2.8271272
1570727054,-1.7339172,-13.77713,-1.1585999,1.0712128,-0.82777405,-0.7120209,-0.71552014,-5.430072,-2.8271272
1570727054,-1.7339172,-13.77713,-1.1585999,1.0712128,-0.82777405,-0.7120209,-0.71552014,-5.430072,-2.8271272
1570727054,-1.7339172,-13.77713,-1.1585999,1.0712128,-0.82777405,-0.7120209,-0.71552014,-5.430072,-2.8271272
1570727054,-1.7339172,-13.77713,-1.1585999,1.0712128,-0.82777405,-0.7120209,-0.71552014,-5.430072,-2.8271272
1570727054,-1.7339172,-13.77713,-1.1585999,1.0712128,-0.82777405,-0.7120209,-0.71552014,-5.430072,-2.8271272
1570727054,-1.7339172,-13.77713,-1.1585999,1.0712128,-0.82777405,-0.7120209,-0.71552014,-5.430072,-2.8271272
1570727054,-1.7339172,-13.77713,-1.1585999,1.0712128,-0.82777405,-0.7120209,-0.71552014,-5.430072,-2.8271272
1570727054,-1.7339172,-13.77713,-1.1585999,1.0712128,-0.82777405,-0.7120209,-0.71552014,-5.430072,-2.8271272
1570727054,-1.7339172,-13.77713,-1.1585999,1.0712128,-0.82777405,-0.7120209,-0.71552014,-5.430072,-2.8271272
1570727054,-1.7339172,-13.77713,-1.1585999,1.0712128,-0.82777405,-0.7120209,-0.71552014,-5.430072,-2.8271272
1570727054,-1.7339172,-13.77713,-1.1585999,1.0712128,-0.82777405,-0.7120209,-0.71552014,-5.430072,-2.8271272
1570727055,-3.8743439,-14.576782,5.227936,2.3292847,-1.4147339,0.40437317,-5.6843467,-6.013427,4.8401055
1570727055,0.3023529,-16.69925,-3.9382782,3.8249207,0.97358704,1.8861542,-1.0839578,-7.83148,-5.615393
1570727055,2.2619934,-17.109848,-3.4785767,2.9503326,1.6681366,1.6709747,1.6308713,-8.658526,-6.126376
1570727055,0.40888977,-11.993439,-3.3756409,1.8595123,-0.654129,1.420639,0.3160263,-3.870349,-6.7710986
1570727055,-1.6177979,-10.706558,-2.6250458,0.19662476,-2.961502,1.1873474,-1.6681113,-2.2732162,-5.93913
1570727055,-3.578659,-10.249268,0.8597107,-0.5266876,-1.2378998,1.3002625,-3.550342,-1.8076954,-2.5223596
1570727055,-1.5842896,-9.539383,0.4371338,0.04322815,-1.0791779,1.6677704,-2.0328774,-1.1969156,-1.9336929
1570727055,-0.025665283,-7.9843597,-2.9375,-0.3487854,-3.282135,1.8776398,0.11654049,0.40434265,-5.78758
1570727055,3.4674835,-7.9316864,-3.1062927,-0.5298767,-2.9231415,1.690155,4.02594,0.5657463,-6.1945214
1570727055,3.615921,-7.300812,-0.92037964,-0.5117798,-2.9220886,1.2597809,4.388758,1.173995,-3.8273408
1570727055,2.2655945,-5.9911804,-1.6242676,-0.6246948,-2.8389893,0.87416077,3.391913,2.3293505,-4.24592
1570727055,1.1247559,-6.7669067,-0.6701813,-0.98475647,-1.8823853,0.7633667,1.8750715,1.8651419,-3.380485
1570727055,1.2612305,-8.85704,2.2196198,-0.8771515,-2.3180847,0.46296692,1.975381,-0.19150352,-0.16129398
1570727055,1.0397644,-8.804367,1.659378,-0.63853455,-2.6312714,0.06561279,1.6331064,-0.195961,-0.5833907
1570727055,1.4360046,-8.08252,3.4119263,-0.455307,-2.3191376,-0.07925415,1.8639946,0.59630775,1.2642198
1570727055,1.0110321,-9.88176,3.4418488,-0.15278625,-2.355362,-0.1101532,1.2570423,-1.0278072,1.4283755
1570727055,-1.818924,-12.733261,4.6269836,-4.4250488E-4,-2.2807922,-0.3231964,-1.6260337,-3.9552088,2.4138281
1570727055,-1.827301,-9.92485,4.569519,0.48425293,-1.462677,0.032592773,-2.0592484,-1.4084291,2.4785304
1570727055,-1.0348206,-7.0422363,2.2423553,0.009140015,-1.0781097,0.44699097,-1.1438576,1.6541929,0.13058257
1570727055,-1.7770233,-7.772461,0.34495544,-0.502182,-0.88209534,0.6909332,-1.7092651,0.9830265,-1.7856224
1570727055,-2.0822754,-7.7748566,1.8700562,-0.86331177,-0.7841034,0.6110382,-1.9999621,0.95600605,-0.19522119
1570727055,-0.6361847,-11.787552,0.9937897,-1.1509247,-0.8128662,0.20303345,-0.4885078,-2.5658302,-0.5614878
1570727055,1.0648956,-15.811005,2.3177795,-0.88568115,-0.45706177,0.029403687,1.212616,-7.109144,0.4924643
1570727055,0.26045227,-6.909363,5.596634,0.8485718,0.12350464,-0.062210083,0.4439677,1.6707821,4.690585
1570727055,2.9060364,-3.771759,-0.0069885254,0.17958069,-0.6530762,0.30636597,2.941885,5.1024036,-1.3490283
1570727055,3.7284546,-5.810425,-1.6278687,0.1763916,-0.50286865,-0.27738953,3.8575537,3.1709032,-3.2975974
1570727055,2.4547272,-11.236877,0.5065613,0.6397705,-1.1494751,-1.2521057,2.4922018,-2.1463308,-1.3705887
1570727055,-3.5487213,-15.177734,-0.6618042,1.711441,-6.065674,-1.7570496,-4.0667715,-6.5394897,-2.2371783
1570727055,-5.8423767,-7.3702393,-4.939041,-1.4374847,-6.2318573,-0.62786865,-7.255159,1.158534,-6.685656
1570727055,-5.3922577,-7.1380005,-2.269516,-1.4875488,-1.8429718,0.5119629,-6.774083,1.9605703,-3.250475
1570727055,-2.0499573,-8.8055725,-0.90242004,-0.771698,0.70513916,1.6166382,-3.500752,0.10577679,-1.5924816
1570727055,3.0101929,-10.471924,-0.8305969,-0.9964752,1.7640228,1.6656494,2.1345804,-1.4863453,-1.3744451
1570727055,4.603531,-9.060547,0.47065735,-1.3959503,0.75094604,0.5673523,4.1686583,-0.15692616,0.20695159
1570727056,3.6757812,-8.466782,0.64782715,-1.0912781,-1.9058228,-0.25289917,3.5031862,0.44691086,1.0816146
1570727056,-0.39196777,-7.665924,-1.249588,-0.8409424,-2.786789,-0.94958496,-0.8523268,1.2865849,-0.7380663
1570727056,-3.2183228,-8.086105,-1.0544586,-1.1328278,-1.9249878,-0.6118927,-3.968185,0.8492985,-0.43633866
1570727056,-1.258667,-8.760071,-0.33259583,-1.0294952,-0.67544556,-0.0440979,-2.1917968,0.12752438,0.750021
1570727056,1.5197906,-9.21138,-0.62350464,-0.6886139,0.02444458,-0.10482788,0.6431265,-0.37397194,0.68510544
1570727056,1.0804596,-9.577698,0.21566772,-0.43933105,-0.38568115,-0.4712677,0.38709003,-0.63137054,1.5573293
1570727056,-0.2758484,-9.934433,1.0452576,-0.33174133,-1.2741241,-0.7642212,-1.1934178,-1.1336145,2.6088662
1570727056,-1.5208435,-9.076111,0.13905334,-0.03666687,-1.3945007,-0.64704895,-2.7166524,-0.45516968,1.9661864
1570727056,-0.93066406,-9.188644,-1.3262024,0.15827942,-0.60194397,-0.45210266,-2.0947604,-0.41961956,0.3550825
1570727056,-1.2454987,-9.698608,-0.18536377,0.09436035,-0.47729492,-0.27633667,-2.4418159,-0.9963465,1.297575
1570727056,-0.73913574,-9.279617,0.87646484,0.27012634,-1.0887604,-0.2720642,-2.0080175,-0.35900307,2.3183393
1570727056,-1.5375977,-11.75882,1.734787,0.63871765,-1.0781097,-0.3881836,-2.702354,-2.9377394,3.2637875
1570727056,-3.44458,-11.080063,2.4231262,1.5058441,-0.87677,-0.3466339,-4.6031837,-2.2555628,3.4640331
1570727056,-3.4158478,-11.624741,4.166107,2.2643127,-1.9026184,-0.05795288,-4.7871485,-2.7432556,4.814992
1570727056,-0.743927,-10.1978,2.7882385,3.2486115,-2.6163483,0.10183716,-2.0541031,-1.2707481,3.0993466
1570727056,2.058487,-9.837463,-4.2315674,3.2368927,-0.5912781,0.65470886,0.49477267,-0.8973808,-4.7657437
1570727056,2.8042908,-11.944366,-2.332962,2.573227,1.0247192,0.82302856,2.3632774,-3.1683664,-4.208391
1570727056,-2.546753,-11.349411,-2.9482727,1.9394073,-1.4307098,0.3361969,-2.5308042,-2.7564526,-4.7559624
1570727056,-4.1891785,-9.133575,-3.225998,1.1947784,-1.4530792,0.7633667,-5.0956745,-0.5733652,-6.073863
1570727056,-2.0978394,-9.07132,0.11630249,0.77293396,-0.28874207,1.326889,-2.823471,-0.40406322,-2.9143388
1570727056,0.24368286,-8.959991,1.3888245,0.83792114,-0.2866211,1.6539307,-0.09504942,-0.38005924,-1.3383641
1570727056,0.94039917,-8.931259,1.006958,0.76867676,-0.39634705,1.7380829,0.7857912,-0.34571075,-1.7270956
1570727056,0.94039917,-8.931259,1.006958,0.76867676,-0.39634705,1.7380829,0.7857912,-0.34571075,-1.7270956
1570727056,0.94039917,-8.931259,1.006958,0.76867676,-0.39634705,1.7380829,0.7857912,-0.34571075,-1.7270956
1570727056,0.94039917,-8.931259,1.006958,0.76867676,-0.39634705,1.7380829,0.7857912,-0.34571075,-1.7270956
1570727056,0.94039917,-8.931259,1.006958,0.76867676,-0.39634705,1.7380829,0.7857912,-0.34571075,-1.7270956
1570727056,0.94039917,-8.931259,1.006958,0.76867676,-0.39634705,1.7380829,0.7857912,-0.34571075,-1.7270956
1570727056,0.94039917,-8.931259,1.006958,0.76867676,-0.39634705,1.7380829,0.7857912,-0.34571075,-1.7270956
1570727056,0.94039917,-8.931259,1.006958,0.76867676,-0.39634705,1.7380829,0.7857912,-0.34571075,-1.7270956
1570727056,0.94039917,-8.931259,1.006958,0.76867676,-0.39634705,1.7380829,0.7857912,-0.34571075,-1.7270956
1570727056,0.94039917,-8.931259,1.006958,0.76867676,-0.39634705,1.7380829,0.7857912,-0.34571075,-1.7270956
1570727056,0.94039917,-8.931259,1.006958,0.76867676,-0.39634705,1.7380829,0.7857912,-0.34571075,-1.7270956
1570727056,0.94039917,-8.931259,1.006958,0.76867676,-0.39634705,1.7380829,0.7857912,-0.34571075,-1.7270956
1570727056,0.94039917,-8.931259,1.006958,0.76867676,-0.39634705,1.7380829,0.7857912,-0.34571075,-1.7270956
1570727057,0.94039917,-8.931259,1.006958,0.76867676,-0.39634705,1.7380829,0.7857912,-0.34571075,-1.7270956
1570727057,0.94039917,-8.931259,1.006958,0.76867676,-0.39634705,1.7380829,0.7857912,-0.34571075,-1.7270956
1570727057,0.94039917,-8.931259,1.006958,0.76867676,-0.39634705,1.7380829,0.7857912,-0.34571075,-1.7270956
1570727057,0.94039917,-8.931259,1.006958,0.76867676,-0.39634705,1.7380829,0.7857912,-0.34571075,-1.7270956
1570727057,0.94039917,-8.931259,1.006958,0.76867676,-0.39634705,1.7380829,0.7857912,-0.34571075,-1.7270956
1570727057,-1.1054382,-11.109985,0.7411957,-0.44360352,-2.325531,-0.20388794,-1.5423698,-1.9509926,-0.44999206
1570727057,-1.574707,-17.880783,-2.3197937,-1.2798309,-0.83735657,-0.30403137,-1.9645613,-9.152488,-3.5219548
1570727057,-1.9589844,-10.084076,2.3896027,-1.107254,0.15333557,0.29039,-2.3987238,-1.2571774,1.5734249
1570727057,-1.5208435,-9.440033,-0.58758545,0.16041565,0.25134277,0.6003876,-1.7974875,-0.3853655,-0.33485144
1570727057,-0.30578613,-9.744095,-2.3676758,0.14442444,0.98851013,0.52368164,-0.46753842,-0.7924013,-3.03723
1570727057,0.45796204,-8.430878,-2.5879364,-0.29658508,1.960022,0.26481628,0.53170305,0.33049583,-3.3606405
1570727057,0.19940186,-6.948868,-0.44033813,-0.86224365,2.0963745,0.029403687,0.28513175,1.952672,-0.965648
1570727057,0.027008057,-5.8607025,1.7611237,-1.486496,0.41645813,-0.12612915,0.14118262,3.0771751,1.469592
1570727057,0.13833618,-6.048645,1.6450043,-1.5248413,-1.5329742,-0.20069885,0.20871681,2.802744,2.1040907
1570727057,-1.3388824,-4.716263,8.954498,-1.1733093,-0.92578125,-0.17193604,-1.28397,4.1119995,9.021128
1570727057,-0.9294739,-4.2446136,4.7048035,1.9905396,1.0247192,0.062423706,-0.93740845,4.752778,5.6334767
1570727057,0.63394165,-6.910553,-0.12789917,1.4067688,0.57943726,-0.09629822,0.7841983,1.8640928,-0.42973334
1570727057,-0.6661072,-5.174759,-1.3609161,1.0946503,-1.1271057,-0.32214355,-0.6369415,3.5406837,-1.7449614
1570727057,-0.22557068,-8.215393,-2.4598541,0.97106934,-0.8714447,-0.52560425,-0.35584033,1.843564,-2.818539
1570727057,-2.558731,-15.8780365,-1.1203003,-1.8699799,1.1387024,-0.79512024,-2.5629585,-7.511244,-2.2583725
1570727057,-9.367828,-8.908524,18.239212,1.6922607,3.3374176,-0.27633667,-9.697554,-0.13363647,17.676584
1570727057,-4.488449,-15.876846,10.507141,2.3473969,-1.3636017,0.81770325,-5.1536007,-6.5379086,8.481007
1570727057,1.8454132,-17.026062,0.730423,3.6832428,-1.6011505,1.1969299,1.6058924,-8.446858,-0.8509357
1570727057,5.671341,-14.62468,-3.6389923,3.1218414,0.3046112,1.5527344,5.3419166,-6.03473,-6.3501244
1570727057,4.0133514,-11.226105,-1.9714355,1.2150269,-0.091674805,0.09651184,6.1583676,-3.5395832,-7.347749
1570727057,-4.7637787,-13.942322,3.4131317,1.5314026,-0.5593262,-0.17193604,-4.042614,-5.825596,-0.04559517
1570727057,-4.5004272,-9.985901,1.9335022,0.6046295,0.4100647,1.2086487,-5.1989017,-2.4114332,-2.3096123
1570727057,1.1199646,-6.0043488,0.58317566,0.10501099,-0.65519714,1.2832184,1.7027786,1.6419077,-3.447279
1570727057,4.445511,-4.11174,-0.3768921,-0.24758911,-0.7787628,0.9924011,4.956849,3.6759043,-4.597728
1570727057,5.561203,-3.0594788,0.064834595,-0.76530457,-0.5422821,0.38519287,6.6422234,4.9227524,-3.942402
1570727057,3.892456,-3.4664917,-0.71687317,-1.1061859,-0.20033264,-0.3743286,4.915198,4.6020203,-4.437931
1570727057,2.5588837,-3.945343,-0.23085022,-1.3895569,-0.029891968,-0.8483734,3.3536606,4.2270575,-3.7052767
1570727057,2.244049,-3.6173248,0.13786316,-1.5269775,-0.10020447,-0.96875,2.7152696,4.6480236,-2.8693306
1570727058,-0.8935547,-5.3040466,0.069625854,-1.5205841,-0.035217285,-1.5344086,-0.06923166,3.4814472,-2.5503824
1570727058,-5.0953827,-7.7976074,0.13546753,-1.5269775,-1.2112732,-1.2925873,-5.063681,1.0275068,-2.1584334
1570727058,-4.9373627,-13.213287,-0.8353882,-3.526474,-2.5875854,0.21688843,-5.948485,-3.9139853,-2.1396239
1570727058,-1.9230652,-12.139496,22.783417,-2.1586761,6.3318634,0.5300751,-3.064829,-5.1460266,21.196632
1570727058,2.2105255,-6.3826294,18.397232,0.59503174,0.12243652,1.1319427,1.6229839,2.7347183,20.403782
1570727058,6.069977,-13.251602,-5.356842,1.5122223,-1.7321777,1.0978546,5.6916,-2.9202614,-5.154568
1570727058,1.1127777,-15.193298,-4.946228,0.22006226,1.147232,-0.27952576,2.2218132,-7.182128,-6.717044
1570727058,0.26882935,-9.451996,-1.617096,0.04536438,0.09687805,0.06881714,0.6584933,-0.8487568,-3.0703187
1570727058,-1.1090393,-12.979858,-1.8182068,-0.049453735,-0.60832214,-0.42973328,-0.53649163,-3.4884195,-2.9024372
1570727058,-2.8113098,-21.530746,-1.9714355,-1.3884888,-0.84588623,-0.7706146,-2.6171496,-12.742381,-2.8085413
1570727058,-3.7390594,-7.6551514,6.359192,-1.7762451,0.23641968,-0.18684387,-4.161571,0.5674553,4.2364974
1570727058,-2.3396606,-6.950058,3.331726,1.2288666,-1.8152771,0.49812317,-2.2514608,2.4836912,4.246464
1570727058,1.2731934,-9.947601,-5.2718353,1.2768097,-0.5657196,0.9998627,1.0413216,-0.62491417,-5.7159653
1570727058,1.6838074,-9.835068,-6.182831,0.39263916,2.9667053,0.21795654,2.2361734,-1.2184029,-7.1753883
1570727058,0.41487122,-7.681488,-2.0516357,-0.6278839,4.3057404,0.036849976,0.8735389,0.94904804,-3.629792
1570727058,0.113204956,-5.9911804,2.3489075,-1.4641266,1.9642792,0.018753052,0.7016411,2.8009825,1.3309654
1570727058,0.34783936,-6.0474396,2.1226501,-2.1650696,-2.2381897,-0.18151855,0.80610496,2.9196339,2.4332805
1570727058,-1.4777374,-8.825912,4.9897003,-2.1224518,-2.3660126,-0.9091034,-0.11525583,1.0551586,2.6380043
1570727058,-3.578659,-7.3510895,11.798813,1.856308,0.87239075,0.02619934,-4.00687,1.1357975,16.10093
1570727058,0.04736328,-5.427353,-3.1015015,3.210266,1.8321991,-0.2912445,0.30708125,3.387433,-3.3886204
1570727058,-0.12741089,-5.502762,-0.838974,1.2789307,-0.0597229,-0.21881104,0.060081422,3.5575056,-1.8904734
1570727058,-0.25190735,-8.743317,-1.3262024,0.61102295,-0.6115265,-0.6161499,0.066919416,0.7082014,-2.3633986
1570727058,-3.3763428,-9.194626,1.1206818,0.20941162,-0.5934143,-0.9889984,-3.068599,-0.9465084,-0.20997787
1570727058,-5.373108,-6.934494,2.7020416,0.55882263,-0.21737671,-1.0252075,-5.7583976,1.8944788,1.2791197
1570727058,-6.002777,-10.880142,2.6960602,0.5524292,-1.2208557,-0.0717926,-6.70383,-1.9198322,1.204182
1570727058,-2.2043762,-16.006134,9.899017,0.9188843,-0.6221771,0.7122345,-3.4584448,-6.5818834,6.7487607
1570727058,1.5174103,-13.268356,5.6074066,2.7521973,-0.92897034,1.3471375,1.2474611,-5.126199,5.3863945
1570727058,5.518112,-13.816635,-2.9757996,2.4901428,0.1906128,1.7178497,5.5076776,-5.233309,-5.843805
1570727058,6.232788,-14.376877,-2.3030243,2.0938568,0.6369629,1.6667175,6.092298,-5.659436,-5.8597627
1570727058,6.232788,-14.376877,-2.3030243,2.0938568,0.6369629,1.6667175,6.092298,-5.659436,-5.8597627
1570727058,6.232788,-14.376877,-2.3030243,2.0938568,0.6369629,1.6667175,6.092298,-5.659436,-5.8597627
1570727058,6.232788,-14.376877,-2.3030243,2.0938568,0.6369629,1.6667175,6.092298,-5.659436,-5.8597627
1570727058,6.232788,-14.376877,-2.3030243,2.0938568,0.6369629,1.6667175,6.092298,-5.659436,-5.8597627
1570727059,6.232788,-14.376877,-2.3030243,2.0938568,0.6369629,1.6667175,6.092298,-5.659436,-5.8597627
1570727059,6.232788,-14.376877,-2.3030243,2.0938568,0.6369629,1.6667175,6.092298,-5.659436,-5.8597627
1570727059,6.232788,-14.376877,-2.3030243,2.0938568,0.6369629,1.6667175,6.092298,-5.659436,-5.8597627
1570727059,6.232788,-14.376877,-2.3030243,2.0938568,0.6369629,1.6667175,6.092298,-5.659436,-5.8597627
1570727059,6.232788,-14.376877,-2.3030243,2.0938568,0.6369629,1.6667175,6.092298,-5.659436,-5.8597627
1570727059,6.232788,-14.376877,-2.3030243,2.0938568,0.6369629,1.6667175,6.092298,-5.659436,-5.8597627
1570727059,6.232788,-14.376877,-2.3030243,2.0938568,0.6369629,1.6667175,6.092298,-5.659436,-5.8597627
1570727059,6.232788,-14.376877,-2.3030243,2.0938568,0.6369629,1.6667175,6.092298,-5.659436,-5.8597627
1570727059,6.232788,-14.376877,-2.3030243,2.0938568,0.6369629,1.6667175,6.092298,-5.659436,-5.8597627
1570727059,6.232788,-14.376877,-2.3030243,2.0938568,0.6369629,1.6667175,6.092298,-5.659436,-5.8597627
1570727059,6.232788,-14.376877,-2.3030243,2.0938568,0.6369629,1.6667175,6.092298,-5.659436,-5.8597627
1570727059,6.232788,-14.376877,-2.3030243,2.0938568,0.6369629,1.6667175,6.092298,-5.659436,-5.8597627
1570727059,5.4211426,-13.115128,-1.8708801,2.0938568,0.6369629,1.6667175,1.7356279,3.3476295,-3.2830327
1570727059,5.4211426,-13.115128,-1.8708801,2.0938568,0.6369629,1.6667175,1.7356279,3.3476295,-3.2830327
1570727059,-4.4704895,-9.5729065,2.8457031,-2.7520294,1.3155365,-0.3924408,-4.8740478,-3.4196024,-1.1734121
1570727059,-2.1828308,-4.669586,7.948944,1.1766663,0.846817,0.688797,-2.484949,3.8225975,9.595879
1570727059,1.1869965,-10.41806,-5.001297,1.8946533,-0.8160553,1.2342072,-0.31386793,-0.2774992,-2.3553448
1570727059,1.5018463,-12.387299,-6.1576996,0.11886597,2.086792,0.053894043,2.606333,-4.7010994,-7.1023755
1570727059,-0.61224365,-7.685074,-1.5093536,-0.71417236,2.7280731,0.27227783,-0.09833592,0.7512417,-2.9464624
1570727059,-0.39196777,-6.4843903,0.14863586,-0.7812805,2.2391205,0.008102417,0.10752225,2.1341743,-1.0176721
1570727059,-0.115448,-5.966049,2.2830658,-2.444168,-0.42190552,-0.0632782,0.41312122,3.299384,1.5340009
1570727059,-0.17649841,-6.5322723,2.3644714,-2.0212555,-2.0357819,-0.30403137,0.6872983,2.4820623,1.7253358
1570727059,-3.2051544,-8.536224,17.022964,-0.20391846,0.21511841,-0.17300415,-2.6843436,0.38492775,17.31162
1570727059,0.7548523,-7.451645,-1.1250763,2.7724304,1.0481567,-0.1378479,0.46118295,1.2017527,2.664681
1570727059,0.5190277,-6.151596,-1.2627563,1.6379242,0.45054626,-0.5511627,1.0029271,1.7457409,-2.4715407
1570727059,0.14073181,-5.0394897,-0.9167938,0.96681213,-0.61364746,-0.666214,0.46806842,3.9406214,-1.9533771
1570727059,-1.8955383,-9.838669,0.04927063,0.06666565,-1.019516,-0.99005127,-1.6855041,-0.4417925,-1.2301929
1570727059,-4.440567,-10.220535,2.7020416,-0.14212036,-0.7042084,-1.1690216,-4.1229186,-1.8990669,0.90634227
1570727059,-7.0801697,-9.687836,4.609024,0.9242096,-0.26211548,-0.71095276,-7.4093213,-0.7934866,3.2942
1570727059,-3.3320465,-12.916412,7.7370605,1.1521759,-0.701004,0.5641632,-5.3328443,-3.1176472,5.3667593
1570727059,1.567688,-14.649811,4.877182,2.318634,-0.97798157,1.1053162,0.5447596,-6.4302025,4.634527
1570727059,3.75,-13.338989,-1.1454315,2.3697662,0.3919525,1.3513947,3.0873892,-4.8053274,-3.0500402
1570727059,6.9498444,-15.02211,-0.6222992,1.3982391,1.2058105,1.1489868,6.6982017,-5.945157,-4.068844
1570727059,0.14552307,-13.751984,2.936676,0.98599243,-0.4911499,-0.019607544,2.8832088,-5.689766,-0.4057734
1570727060,-5.290512,-8.663116,0.8405609,0.6823883,-0.1619873,0.41609192,-4.895293,-1.1059322,-2.6515462
1570727060,0.68182373,-6.0474396,1.1865234,0.29570007,-0.7159271,0.85816956,0.15481186,1.9722319,-2.507497
1570727060,1.8286438,-5.2406006,0.38446045,-0.080337524,-0.84588623,0.7314148,2.3664758,2.857232,-2.9105496
1570727060,2.5576782,-4.9640656,-0.6007538,-0.35411072,-0.3143158,0.5535126,3.1027632,3.2006483,-4.0199175
1570727060,3.3106537,-4.654022,-0.33859253,-0.73760986,-0.15559387,0.30210876,3.9172397,3.5544949,-3.8107662
1570727060,3.2723541,-3.9704742,-0.85095215,-0.8686371,0.16505432,-0.13677979,4.2861614,4.177312,-4.0335655
1570727060,2.6366882,-3.8160553,-0.34457397,-1.008194,0.7296448,-0.5223999,3.429281,4.5525455,-3.462119
1570727060,1.2779846,-4.7150726,0.91477966,-1.0060577,0.940567,-1.0028381,2.5251107,4.116583,-2.0880692
1570727060,-2.5563354,-7.7987976,1.0680084,-1.2574615,-0.14067078,-1.4374695,-1.1523664,1.4708567,-1.1899228
1570727060,-5.1420746,-9.916473,0.9016113,-1.9466858,-2.2104797,-0.9176178,-5.2055836,-1.0259132,-0.91113675
1570727060,-6.396637,-11.455948,15.391312,-4.5235596,-0.2823639,0.21795654,-5.8082647,-2.7975416,5.0486093
1570727060,-1.0527802,-7.776062,16.833817,-0.42868042,2.3680267,0.56629944,-1.7662729,0.7475214,18.566261
1570727060,2.7994995,-9.84346,2.529663,0.46081543,-0.72976685,1.3194427,2.2521508,-0.45088863,2.8619905
1570727060,5.3457336,-13.062454,-0.24760437,0.7803955,0.85002136,0.7420654,5.7107334,-4.254717,-1.1722336
1570727060,0.8637848,-10.749664,-2.2874756,0.63871765,1.069458,-0.23797607,1.6774893,-1.9091873,-3.432359
1570727060,0.65548706,-12.25322,-1.1825409,0.04322815,-0.6253662,-0.21348572,0.84160876,-2.3054886,-2.3386896
1570727060,-3.2614288,-14.155411,-0.8976288,0.3148651,-1.4584045,-0.62254333,-2.3142362,-4.64694,-1.3995631
1570727060,-3.630127,-15.029297,-1.5452728,-0.40951538,-1.4680023,-0.30296326,-3.6055233,-5.4156446,-3.0345018
1570727060,-2.6760406,-11.822266,-0.7982788,-0.8963318,-0.50819397,0.10609436,-3.0371852,-4.390479,-2.0480227
1570727060,-0.6661072,-9.159912,-0.44273376,-0.57888794,0.45161438,0.8634949,-0.9964139,-0.14834404,-1.0191162
1570727060,0.7692108,-9.1575165,-0.58758545,-0.14425659,1.8439178,0.8283539,0.9784496,-0.18586159,-1.1043315
1570727060,1.497055,-9.256866,-0.5792084,-0.35836792,2.2412567,0.49491882,2.1731787,-0.52449226,-1.2865618
1570727060,1.2061615,-7.124832,0.32939148,-0.4457245,1.9483032,0.28399658,2.0119166,1.5669289,-0.097706884
1570727060,0.2640381,-6.1384277,1.916748,-0.64385986,1.2026215,0.018753052,1.4536464,2.533783,1.1870114
1570727060,-0.5380249,-5.4249573,3.4250946,-0.06329346,0.62312317,-0.1889801,0.30950248,3.4400625,3.4806776
1570727060,-1.3149414,-5.4177704,1.4917755,0.61421204,0.544281,-0.42759705,-0.5281863,3.4430285,1.521757
1570727060,-1.2814178,-4.693527,0.848938,0.5471039,0.015914917,-0.41481018,-0.6139758,4.102996,0.67497957
1570727060,-1.5759125,-5.6859283,0.47065735,0.36706543,0.20021057,-0.45103455,-0.9291284,3.2623816,-0.05887857
1570727060,-2.1540985,-5.8164062,1.5456543,0.61846924,0.64974976,-0.39457703,-1.7400389,3.045539,0.9148672
1570727060,-1.8416595,-7.680298,2.5559998,0.8091583,0.54748535,-0.314682,-1.5187343,1.3527813,1.7672076
1570727060,-2.1972046,-9.145538,2.4219208,0.97639465,-0.35905457,-0.4126892,-1.7323952,0.089175224,1.2735791
1570727060,-5.555069,-12.291519,5.2626495,1.1159515,-0.40592957,-0.47766113,-4.9091067,-3.4477863,3.7642899
1570727060,-5.072632,-12.639877,7.7849426,1.743393,-0.58595276,0.11462402,-5.244853,-3.6148834,6.1832457
1570727061,-4.344803,-13.190552,6.486084,2.1013184,-0.9460144,0.24884033,-4.8331685,-3.9991455,5.914752
1570727061,-4.344803,-13.190552,6.486084,2.1013184,-0.9460144,0.24884033,-4.8331685,-3.9991455,5.914752
1570727061,-4.344803,-13.190552,6.486084,2.1013184,-0.9460144,0.24884033,-4.8331685,-3.9991455,5.914752
1570727061,-4.344803,-13.190552,6.486084,2.1013184,-0.9460144,0.24884033,-4.8331685,-3.9991455,5.914752
1570727061,-4.344803,-13.190552,6.486084,2.1013184,-0.9460144,0.24884033,-4.8331685,-3.9991455,5.914752
1570727061,-4.344803,-13.190552,6.486084,2.1013184,-0.9460144,0.24884033,-4.8331685,-3.9991455,5.914752
1570727061,-4.344803,-13.190552,6.486084,2.1013184,-0.9460144,0.24884033,-4.8331685,-3.9991455,5.914752
1570727061,-4.344803,-13.190552,6.486084,2.1013184,-0.9460144,0.24884033,-4.8331685,-3.9991455,5.914752
1570727061,-4.344803,-13.190552,6.486084,2.1013184,-0.9460144,0.24884033,-4.8331685,-3.9991455,5.914752
1570727061,-4.344803,-13.190552,6.486084,2.1013184,-0.9460144,0.24884033,-4.8331685,-3.9991455,5.914752
1570727061,-4.344803,-13.190552,6.486084,2.1013184,-0.9460144,0.24884033,-4.8331685,-3.9991455,5.914752
1570727061,-4.344803,-13.190552,6.486084,2.1013184,-0.9460144,0.24884033,-4.8331685,-3.9991455,5.914752
1570727061,-4.344803,-13.190552,6.486084,2.1013184,-0.9460144,0.24884033,-4.8331685,-3.9991455,5.914752
1570727061,-4.344803,-13.190552,6.486084,2.1013184,-0.9460144,0.24884033,-4.8331685,-3.9991455,5.914752
1570727061,-4.344803,-13.190552,6.486084,2.1013184,-0.9460144,0.24884033,-4.8331685,-3.9991455,5.914752
1570727061,-4.344803,-13.190552,6.486084,2.1013184,-0.9460144,0.24884033,-4.8331685,-3.9991455,5.914752
1570727061,-4.344803,-13.190552,6.486084,2.1013184,-0.9460144,0.24884033,-4.8331685,-3.9991455,5.914752
1570727061,4.50177,-12.271179,2.4997406,0.36813354,-0.2962036,-0.05369568,5.3659773,-3.0326986,1.3867121
1570727061,0.4519806,-12.261597,-1.522522,0.4863739,-0.43148804,-0.2592926,1.1153717,-4.282776,-2.1013935
1570727061,0.72013855,-12.526154,-3.2930298,0.6493683,-1.0493469,-0.23692322,1.003163,-3.4306564,-4.3391128
1570727061,-2.5359802,-11.995834,-1.0149536,-0.3253479,-1.0440216,-0.55329895,-2.1365025,-3.33605,-2.8559532
1570727061,-1.3999329,-14.807831,-3.3708496,-0.37435913,-1.3007507,-0.443573,-1.3817343,-5.2846203,-4.3251925
1570727061,-1.5711212,-12.343002,0.76634216,-1.5631866,0.88197327,0.25630188,-2.0345213,-5.041313,-1.5058789
1570727061,0.03300476,-8.5134735,4.612625,0.03364563,0.98851013,0.66856384,-0.34545195,0.49459267,4.151411
1570727061,1.117569,-9.92366,-1.3190155,0.6642761,0.5070038,0.31915283,1.7200445,-1.0648546,-1.372352
1570727061,-0.07952881,-8.614029,-2.7734985,0.12632751,0.8372345,-0.007888794,0.4237474,0.17091656,-3.8033555
1570727061,-0.0687561,-8.987518,-2.0157318,-0.6459961,1.0300446,-0.030258179,0.20791712,0.18501377,-3.0409675
1570727061,-0.95700073,-7.788025,-0.074035645,-1.6228485,0.6934204,-0.29977417,-0.677505,0.81648827,-0.7606278
1570727061,-1.4131012,-6.163559,0.74598694,-2.110733,0.5027466,-0.27952576,-1.0877744,2.5237389,0.52664816
1570727061,-3.891098,-8.323135,10.397018,-1.6580048,2.2828064,-0.0046844482,-3.1066222,1.3749037,7.3161154
1570727061,-1.6393585,-7.882599,7.2031403,1.6464539,2.48201,0.43206787,-2.5315392,0.88169956,10.469449
1570727061,1.3725586,-5.9552765,-0.92996216,1.5505829,0.52511597,-0.11122131,1.197964,2.9205017,-0.669774
1570727061,-0.45661926,-4.4768524,1.106308,1.0041046,-0.82884216,-0.65237427,-0.13743249,4.429577,0.4434905
1570727062,-2.3420563,-7.6790924,2.4650269,0.9891815,-1.177185,-0.9783325,-1.8936882,2.067769,1.7888796
1570727062,-4.3902893,-8.963577,1.3648834,1.1095581,-1.6725311,-0.97195435,-4.72128,-0.24170208,0.75751734
1570727062,-3.7821655,-9.38855,-0.47505188,0.8123474,-2.817688,-0.70350647,-4.400392,-0.11052132,-1.4513993
1570727062,-4.187973,-11.204559,-0.6067352,0.5886383,-2.4267273,-0.314682,-5.2700224,-2.0363588,-1.8444912
1570727062,-0.4769745,-13.921982,7.7933197,0.09222412,-0.10446167,0.6014404,-2.885583,-4.7365265,2.8543327
1570727062,1.4144592,-14.301453,6.39032,2.5370178,-1.0930176,0.80703735,1.07896,-5.655817,8.415162
1570727062,0.45318604,-13.306671,-2.3138123,2.4858856,-0.5689087,0.74313354,0.13083988,-5.156831,-3.3654795
1570727062,3.4483337,-14.478622,-1.2471924,1.7710876,1.4646759,1.1095734,3.115471,-5.1948814,-5.682127
1570727062,-1.6022491,-11.489471,0.083984375,0.8815918,-0.33987427,0.31808472,0.43873367,-4.3830395,-2.2156606
1570727062,-7.998352,-7.9711914,1.9706116,0.30741882,-0.8639984,0.94233704,-7.734752,-0.006310463,-1.7886121
1570727062,-1.8679962,-7.305603,1.4259338,0.19023132,-1.8770599,1.64328,-3.188617,1.3664455,-2.0656087
1570727062,0.5094452,-8.483551,-0.30267334,-0.113357544,-2.9998474,1.3812256,0.95870996,-0.071266174,-3.2934344
1570727062,-0.032836914,-8.029846,-1.680542,-0.6726227,-2.1284637,1.2619171,0.24717474,0.26742077,-5.0740185
1570727062,1.8358307,-6.7501373,-0.1817627,-0.90911865,-1.4616089,1.1404724,2.008944,1.2917309,-3.5420055
1570727062,3.6937256,-4.6839447,0.3964386,-0.8451996,-1.4520111,0.9220886,4.24511,3.3769913,-2.4597168
1570727062,3.7476044,-4.245804,-0.37809753,-0.76956177,-1.5745239,0.42781067,4.67605,4.3977404,-2.8576288
1570727062,2.9778595,-5.5410767,0.03012085,-0.88035583,-1.2485504,0.03366089,3.800906,3.180684,-2.7054274
1570727062,2.3936768,-6.1144867,1.6737366,-0.96876526,-0.8757019,-0.4126892,3.1958625,2.596552,-0.9404683
1570727062,-0.3536682,-7.159546,3.9913177,-0.9655762,-1.3188629,-0.89738464,0.5936332,1.7966242,1.746052
1570727062,-4.076645,-9.250885,6.1915894,-0.88993835,-2.3052979,-0.7503662,-3.1526325,0.014647484,3.4710913
1570727062,-4.001236,-10.838242,5.30455,-0.58847046,-1.607544,0.24777222,-4.3614507,-2.2012615,4.0160937
1570727062,-1.9302521,-9.431656,6.9038696,-0.14212036,-1.0291138,0.466156,-2.2894325,-1.1885309,4.570674
1570727062,0.036590576,-6.3670654,6.632126,0.64404297,-0.19926453,0.5588379,-0.38788804,2.148138,5.54943
1570727062,0.31910706,-7.3822174,2.7092285,0.39263916,-1.4104767,0.43952942,0.6627562,1.853857,1.1456176
1570727062,0.14312744,-11.6427,2.1489868,6.2561035E-4,-1.7790527,-0.010009766,0.33089718,-2.3677874,0.38635814
1570727062,3.184967,-13.464676,-0.8198242,0.35429382,-0.84588623,0.30636597,1.9343612,-3.8336172,-1.5360038
1570727062,5.777878,-15.51532,-2.6669464,0.022994995,-1.129242,-0.45635986,5.7261786,-8.287408,-5.1671934
1570727062,0.8087158,-9.090469,-0.87249756,0.2861023,-2.1561584,-0.90270996,1.5750613,-0.7514658,-2.702414
1570727062,-2.0080566,-11.420029,-2.5915375,1.1542969,-4.477371,-0.75250244,-2.3156424,-1.2330198,-4.284851
1570727062,-4.7661743,-13.904022,-6.8975067,-0.23480225,-3.0222168,-0.42759705,-4.6794176,-5.83117,-8.546003
1570727062,-0.5894928,-13.773529,-4.254303,-2.0340424,0.093673706,0.9732208,-3.0311658,-4.844285,-6.8098407
1570727062,1.2265015,-10.385742,-2.0540314,-1.6867676,2.3797455,0.82196045,0.2024365,-2.2214298,-3.7360678
1570727062,2.7851257,-9.465164,0.7519684,-2.7541504,2.037796,0.8837433,1.9662468,-0.26543903,-0.5803341
1570727062,1.9112549,-8.043015,4.1828613,-2.634842,-0.27597046,0.1327362,2.156613,0.67539215,3.4621003
1570727063,-2.6401215,-6.9045715,9.311249,-0.6491852,-1.4509583,-0.40309143,-2.3539383,1.8350735,10.429154
1570727063,-0.7080078,-7.267288,-0.100372314,0.87094116,-1.4509583,-0.57780457,-1.3882737,1.777873,2.0561545
1570727063,-0.22557068,-7.0194855,-2.5771637,0.5428314,-1.7939606,-0.62893677,-0.8554095,1.845191,-1.9912902
1570727063,-0.76426697,-7.07695,-3.9526367,-0.12188721,-0.25360107,-0.50216675,-1.1899352,1.842969,-4.4503665
1570727063,-1.2263489,-7.9173126,-1.8996124,-0.4041748,0.23855591,-0.35835266,-2.0159523,1.3092356,-1.7913343
1570727063,-0.51168823,-9.400528,-0.8461609,-0.455307,-0.035217285,-0.30403137,-1.9147022,-0.024930954,-0.5136188
1570727063,-0.36802673,-9.568115,-0.27035522,-0.4233551,-0.6871643,-0.53518677,-1.5039034,-0.7635813,0.5357551
1570727063,0.41966248,-9.649521,-1.2124786,-0.6832733,-1.2368317,-0.4861908,-0.77996016,-0.67125607,-0.1334601
1570727063,0.29396057,-10.11998,-0.29310608,-0.6044464,-1.1899567,-0.45635986,-0.828403,-1.2267599,0.49068224
1570727063,-0.8025818,-9.926056,0.32699585,-0.13146973,-1.7098083,-0.5319977,-1.7896184,-1.0050411,1.410457
1570727063,-1.8895416,-10.475525,-0.081207275,-0.32322693,-2.7356567,-0.65449524,-3.070012,-1.5878897,1.390148
1570727063,-1.0982666,-11.323074,2.224411,-0.50538635,-2.1060944,-0.36367798,-2.6186042,-2.5308638,3.1253004
1570727063,-0.39915466,-11.14949,5.109421,1.586792,0.2374878,-0.41801453,-1.6502111,-2.3675957,6.5522757
1570727063,-1.9374237,-11.036957,3.7399292,2.5220947,-1.209137,-0.35195923,-3.2134228,-2.2525473,4.662784
1570727063,-2.752655,-10.111603,1.2906647,2.524231,-3.3386078,-0.32533264,-4.012144,-1.2110128,2.0901978
1570727063,-1.7387085,-8.617615,-1.5763855,3.2337036,-2.4480438,0.17001343,-3.3994255,0.22928238,-1.0318054
1570727063,-0.58351135,-11.038162,-3.5887146,2.8203735,-0.6072693,0.72821045,-1.9625139,-1.8515396,-4.910881
1570727063,-1.2634583,-11.969498,-2.787857,2.3442078,-1.6352386,0.79852295,-2.0635114,-3.5844822,-4.3041067
1570727063,-1.9350433,-10.143921,-4.0974884,1.9106445,-1.7971649,0.9135742,-2.9921932,-1.5767307,-6.3079443
1570727063,-1.6596985,-9.46637,-3.1230469,1.0797272,-0.9002075,1.1553802,-2.4880064,-0.90761185,-6.084209
1570727063,-2.4617615,-8.965973,0.119903564,0.6823883,-0.3697052,1.4664459,-2.9404461,-0.3870783,-3.1193485
1570727063,-2.2438812,-8.991119,-0.1877594,0.2040863,-1.9345856,1.8275604,-2.3568964,-0.4616127,-2.8120124
1570727063,-0.73553467,-10.045761,0.09715271,0.21792603,-2.738861,1.9532623,-0.9917538,-1.4067545,-2.6524847
1570727063,0.24967957,-10.409683,-1.2759247,0.56521606,-2.3937073,1.7466125,0.62615526,-1.752594,-4.031868
1570727063,0.11439514,-9.96077,-1.107132,0.29249573,-2.3340607,1.6315613,0.7373197,-1.5886536,-4.212516
1570727063,0.25924683,-8.8654175,-0.7731323,0.067733765,-2.1305847,1.6230316,0.9943157,-0.5481024,-4.0091195
1570727063,1.1762238,-7.890976,-0.55766296,-0.2742157,-2.0688019,1.499466,2.077662,0.40874672,-3.699231
1570727063,1.8609772,-7.0003357,-0.641449,-0.5224304,-1.8664093,1.1639099,2.920166,1.2959146,-3.7156763
1570727063,2.248825,-6.2952423,-0.06086731,-0.76530457,-1.8578796,0.6856079,3.3605266,2.0208416,-2.9933412
1570727063,2.2967224,-6.1695557,0.103134155,-0.8739624,-1.9590759,0.4927826,3.4072647,2.2259912,-2.8443134
1570727063,2.2967224,-6.1695557,0.103134155,-0.8739624,-1.9590759,0.4927826,3.4072647,2.2259912,-2.8443134
1570727063,2.2967224,-6.1695557,0.103134155,-0.8739624,-1.9590759,0.4927826,3.4072647,2.2259912,-2.8443134
1570727063,2.2967224,-6.1695557,0.103134155,-0.8739624,-1.9590759,0.4927826,3.4072647,2.2259912,-2.8443134
1570727064,2.2967224,-6.1695557,0.103134155,-0.8739624,-1.9590759,0.4927826,3.4072647,2.2259912,-2.8443134
1570727064,2.2967224,-6.1695557,0.103134155,-0.8739624,-1.9590759,0.4927826,3.4072647,2.2259912,-2.8443134
1570727064,2.2967224,-6.1695557,0.103134155,-0.8739624,-1.9590759,0.4927826,3.4072647,2.2259912,-2.8443134
1570727064,2.2967224,-6.1695557,0.103134155,-0.8739624,-1.9590759,0.4927826,3.4072647,2.2259912,-2.8443134
1570727064,2.2967224,-6.1695557,0.103134155,-0.8739624,-1.9590759,0.4927826,3.4072647,2.2259912,-2.8443134
1570727064,2.2967224,-6.1695557,0.103134155,-0.8739624,-1.9590759,0.4927826,3.4072647,2.2259912,-2.8443134
1570727064,2.2967224,-6.1695557,0.103134155,-0.8739624,-1.9590759,0.4927826,3.4072647,2.2259912,-2.8443134
1570727064,2.2967224,-6.1695557,0.103134155,-0.8739624,-1.9590759,0.4927826,3.4072647,2.2259912,-2.8443134
1570727064,2.2967224,-6.1695557,0.103134155,-0.8739624,-1.9590759,0.4927826,3.4072647,2.2259912,-2.8443134
1570727064,2.2967224,-6.1695557,0.103134155,-0.8739624,-1.9590759,0.4927826,3.4072647,2.2259912,-2.8443134
1570727064,2.2967224,-6.1695557,0.103134155,-0.8739624,-1.9590759,0.4927826,3.4072647,2.2259912,-2.8443134
1570727064,2.2967224,-6.1695557,0.103134155,-0.8739624,-1.9590759,0.4927826,3.4072647,2.2259912,-2.8443134
1570727064,2.2967224,-6.1695557,0.103134155,-0.8739624,-1.9590759,0.4927826,3.4072647,2.2259912,-2.8443134
1570727064,2.2967224,-6.1695557,0.103134155,-0.8739624,-1.9590759,0.4927826,3.4072647,2.2259912,-2.8443134
1570727064,2.2967224,-6.1695557,0.103134155,-0.8739624,-1.9590759,0.4927826,3.4072647,2.2259912,-2.8443134
1570727064,2.2967224,-6.1695557,0.103134155,-0.8739624,-1.9590759,0.4927826,3.4072647,2.2259912,-2.8443134
1570727064,2.2967224,-6.1695557,0.103134155,-0.8739624,-1.9590759,0.4927826,3.4072647,2.2259912,-2.8443134
1570727064,2.2967224,-6.1695557,0.103134155,-0.8739624,-1.9590759,0.4927826,3.4072647,2.2259912,-2.8443134
1570727064,2.2967224,-6.1695557,0.103134155,-0.8739624,-1.9590759,0.4927826,3.4072647,2.2259912,-2.8443134
1570727064,2.2967224,-6.1695557,0.103134155,-0.8739624,-1.9590759,0.4927826,3.4072647,2.2259912,-2.8443134
1570727064,2.2967224,-6.1695557,0.103134155,-0.8739624,-1.9590759,0.4927826,3.4072647,2.2259912,-2.8443134
1570727064,2.2967224,-6.1695557,0.103134155,-0.8739624,-1.9590759,0.4927826,3.4072647,2.2259912,-2.8443134
1570727064,2.2967224,-6.1695557,0.103134155,-0.8739624,-1.9590759,0.4927826,3.4072647,2.2259912,-2.8443134
1570727064,2.2967224,-6.1695557,0.103134155,-0.8739624,-1.9590759,0.4927826,3.4072647,2.2259912,-2.8443134
1570727064,2.2967224,-6.1695557,0.103134155,-0.8739624,-1.9590759,0.4927826,3.4072647,2.2259912,-2.8443134
1570727064,2.2967224,-6.1695557,0.103134155,-0.8739624,-1.9590759,0.4927826,3.4072647,2.2259912,-2.8443134
1570727064,2.2967224,-6.1695557,0.103134155,-0.8739624,-1.9590759,0.4927826,3.4072647,2.2259912,-2.8443134
1570727064,2.2967224,-6.1695557,0.103134155,-0.8739624,-1.9590759,0.4927826,3.4072647,2.2259912,-2.8443134
1570727064,2.2967224,-6.1695557,0.103134155,-0.8739624,-1.9590759,0.4927826,3.4072647,2.2259912,-2.8443134
1570727064,2.2967224,-6.1695557,0.103134155,-0.8739624,-1.9590759,0.4927826,3.4072647,2.2259912,-2.8443134
1570727064,2.2967224,-6.1695557,0.103134155,-0.8739624,-1.9590759,0.4927826,3.4072647,2.2259912,-2.8443134
1570727064,2.2967224,-6.1695557,0.103134155,-0.8739624,-1.9590759,0.4927826,3.4072647,2.2259912,-2.8443134
1570727064,1.3988953,-9.175476,3.1030731,-0.8739624,-1.9590759,0.4927826,3.4072647,2.2259912,-2.8443134
1570727065,2.3386078,-14.415176,4.4151,1.2331238,-0.19393921,0.8390045,3.2472668,-6.441416,0.35826755
1570727065,-1.1605072,-8.149551,1.5073395,0.63871765,-0.47410583,0.8102417,-0.39647686,-0.27266884,-2.471733
1570727065,-0.26148987,-5.4572754,0.7435913,-0.039855957,-0.8022003,0.7133026,0.5627078,2.4499326,-3.4524822
1570727065,0.46395874,-4.427765,0.19172668,-0.24012756,-0.7159271,0.55670166,1.2677157,3.4881878,-3.839603
1570727065,2.714508,-4.470871,-0.29908752,-0.52775574,-0.69781494,0.3830719,3.3592632,3.5108542,-4.2106295
1570727065,2.971878,-4.5833893,0.100753784,-0.8750305,-0.6967468,0.17427063,3.8652327,3.4811049,-3.7355356
1570727065,2.9144135,-4.9784393,-0.12550354,-1.2468109,-0.3665161,-0.24224854,3.678063,3.1374092,-3.6176417
1570727065,2.3446045,-5.906189,0.45628357,-1.406601,0.1789093,-0.7546387,3.0323687,2.3871346,-2.720347
1570727065,0.6255646,-7.400177,0.27792358,-1.4492035,0.22151184,-1.09552,1.107439,1.0294561,-2.5103087
1570727065,-1.9146881,-7.736557,0.5879669,-1.5844879,-0.1928711,-1.0806122,-1.6960285,0.7334461,-1.8179705
1570727065,-2.6760406,-7.6946564,1.413971,-2.206604,-1.1814423,-0.5192108,-2.8362982,0.96360207,-0.4784994
1570727065,-1.155716,-9.595657,1.3565063,-3.1983643,-1.6064758,-0.13145447,-1.410784,-0.83889866,0.09800148
1570727065,-1.4537964,-9.568115,12.02626,-2.3919678,1.7139435,0.22540283,-1.8617965,-0.96685314,10.302793
1570727065,-1.174881,-8.97435,9.976822,-0.23161316,0.97358704,0.5108948,-1.3267804,-0.19612122,10.037582
1570727065,0.45558167,-9.58728,3.8835907,-0.040924072,-0.35905457,0.5119629,0.53564596,-0.7582083,3.777165
1570727065,-0.783432,-10.310318,1.3541107,0.34576416,0.3046112,0.27867126,-0.6367551,-1.4400854,1.1373777
1570727065,0.44599915,-13.262375,-1.7260284,0.6088867,0.15119934,0.32447815,0.59748566,-4.200714,-2.1558144
1570727065,1.0242004,-11.244064,-1.1322632,0.21154785,0.18423462,0.1870575,1.390193,-3.2045555,-2.0668411
1570727065,0.56570435,-10.261246,-0.3182373,-0.49899292,-0.7734375,0.036849976,0.8254918,-1.3894358,-0.77385575
1570727065,1.45755,-12.532135,-1.2447968,0.31806946,-0.7872925,-0.17939758,1.7200136,-3.7904024,-1.860441
1570727065,1.1558838,-15.642212,-1.562027,0.23924255,-0.55718994,-0.5426483,1.6546307,-7.1967573,-2.3133328
1570727065,-0.77264404,-9.977524,-0.9682617,-0.6225586,-0.8128662,-0.04623413,-0.71696633,-1.4705992,-1.6131496
1570727065,-0.5751343,-8.207016,-1.1286774,-0.28486633,-0.22589111,0.23500061,-0.52464235,0.7077675,-1.2496372
1570727065,-0.9689789,-9.492706,-3.3109894,-0.04624939,1.3688049,0.09225464,-0.8243024,-0.38884258,-3.4671497
1570727065,-0.6373749,-9.241318,-2.1916962,-0.43721008,2.4660187,0.12634277,-0.4733619,-0.3157997,-2.5643961
1570727065,-0.5056915,-6.8854218,-0.08958435,-0.78234863,2.0090332,0.11994934,-0.2675924,2.0028057,-0.2295143
1570727065,-0.07473755,-6.124054,1.1398315,-1.3618469,0.47610474,-0.023864746,0.15299122,2.8609247,1.3322114
1570727065,-0.09269714,-6.6795197,0.9866028,-1.2276306,-0.8533325,-0.220932,0.11591771,2.281601,1.5767379
1570727065,-2.021225,-6.697464,4.9825287,-1.4374847,0.11073303,-0.24543762,-1.7238649,2.219572,5.3363366
1570727065,-2.7730103,-6.2042694,7.2163086,1.5154266,2.5075684,0.26376343,-2.7816594,2.639083,8.488988
1570727065,0.06411743,-5.229828,0.78549194,1.8137054,0.8510895,-0.0057525635,0.25706774,3.4596443,1.1424268
1570727065,-0.29141235,-3.1492615,-0.70251465,1.5388641,-0.39634705,-0.09310913,-0.13684845,5.6188793,-0.8009
1570727065,-0.2758484,-6.4448853,-2.1462097,1.221405,0.12670898,-0.40629578,-0.14998788,2.6648245,-2.599819
1570727065,-0.62301636,-15.2495575,-0.78630066,0.077316284,-0.22802734,-0.5873871,-0.6828808,-6.149331,-1.4944322
1570727066,-5.132492,-9.280823,2.5715637,-0.35411072,0.052139282,-0.8760681,-4.4209604,-1.4442167,0.8993646
1570727066,-5.89505,-6.693878,9.262161,1.9979858,1.5648041,-0.023864746,-6.3657537,2.2092228,8.669421
1570727066,-0.54519653,-12.873322,6.4369965,1.3098297,-1.6427002,0.42034912,-1.1287838,-3.6038685,4.7002373
1570727066,0.8961029,-15.394409,4.3097534,2.175888,-1.478653,0.52900696,0.5591142,-6.633197,3.167759
1570727066,2.145874,-13.129501,0.3796692,2.3431396,0.63056946,1.1383362,1.8753909,-4.6635885,-2.7035198
1570727066,3.2891083,-14.840149,0.17376709,1.8903961,0.5357666,1.1234283,3.8247375,-6.1203594,-3.6939285
1570727066,0.0904541,-17.085907,1.5432587,1.4216766,0.64016724,0.62275696,1.2338506,-8.627478,-2.4545236
1570727066,-2.5934448,-11.1219635,3.0982819,1.1234131,0.68170166,0.84965515,-1.6701238,-3.7761927,-0.29154706
1570727066,-0.82173157,-6.136032,1.5935364,0.5566864,-0.38356018,0.8698883,0.055032372,1.526021,-2.2904067
1570727066,1.3569946,-3.8771057,0.4514923,0.33511353,-0.83628845,0.62594604,2.2497194,3.917921,-3.2659502
1570727066,3.0389252,-2.5602875,-0.57681274,0.042160034,-0.5145874,0.24884033,4.1757097,5.362635,-4.5338726
1570727066,3.667389,-3.5646515,-0.48104858,-0.53308105,-0.38674927,-0.04837036,4.8428288,4.597823,-4.454381
1570727066,2.374527,-4.6432495,-0.7084961,-1.0486603,-0.34521484,-0.39883423,3.5239146,3.4724245,-4.433403
1570727066,2.5385284,-4.656418,0.6849365,-1.40979,-0.07676697,-0.63638306,3.2701151,3.3802624,-2.9023838
1570727066,2.2344666,-4.6109314,-0.7013092,-1.2798309,-0.22483826,-1.0326691,3.1913354,3.7727718,-3.4025438
1570727066,-1.6393585,-6.654373,-1.7763062,-1.6516113,-0.53163147,-1.4289398,-0.9398191,1.9911766,-4.5599775
1570727066,-4.7027283,-9.853027,2.026886,-2.5442963,-1.000351,-1.1967163,-4.252936,-0.65797424,-0.572979
1570727066,-8.120453,-13.116333,8.053085,-3.6340637,-0.37930298,-0.14530945,-8.107654,-4.5312185,5.6813345
1570727066,-3.1464996,-8.405731,11.986755,-1.5962067,1.76828,0.72395325,-4.215893,-0.0034036636,11.222237
1570727066,2.54451,-8.465591,10.668747,-0.37435913,-0.55825806,1.0754852,2.3216944,0.44681072,10.610294
1570727066,2.54451,-8.465591,10.668747,-0.37435913,-0.55825806,1.0754852,2.3216944,0.44681072,10.610294
1570727066,2.54451,-8.465591,10.668747,-0.37435913,-0.55825806,1.0754852,2.3216944,0.44681072,10.610294
1570727066,2.54451,-8.465591,10.668747,-0.37435913,-0.55825806,1.0754852,2.3216944,0.44681072,10.610294
1570727066,2.54451,-8.465591,10.668747,-0.37435913,-0.55825806,1.0754852,2.3216944,0.44681072,10.610294
1570727066,2.54451,-8.465591,10.668747,-0.37435913,-0.55825806,1.0754852,2.3216944,0.44681072,10.610294
1570727066,2.54451,-8.465591,10.668747,-0.37435913,-0.55825806,1.0754852,2.3216944,0.44681072,10.610294
1570727066,2.54451,-8.465591,10.668747,-0.37435913,-0.55825806,1.0754852,2.3216944,0.44681072,10.610294
1570727066,2.54451,-8.465591,10.668747,-0.37435913,-0.55825806,1.0754852,2.3216944,0.44681072,10.610294
1570727066,2.54451,-8.465591,10.668747,-0.37435913,-0.55825806,1.0754852,2.3216944,0.44681072,10.610294
1570727066,2.54451,-8.465591,10.668747,-0.37435913,-0.55825806,1.0754852,2.3216944,0.44681072,10.610294
1570727066,2.54451,-8.465591,10.668747,-0.37435913,-0.55825806,1.0754852,2.3216944,0.44681072,10.610294
1570727066,2.54451,-8.465591,10.668747,-0.37435913,-0.55825806,1.0754852,2.3216944,0.44681072,10.610294
1570727066,2.54451,-8.465591,10.668747,-0.37435913,-0.55825806,1.0754852,2.3216944,0.44681072,10.610294
1570727067,2.54451,-8.465591,10.668747,-0.37435913,-0.55825806,1.0754852,2.3216944,0.44681072,10.610294
1570727067,2.54451,-8.465591,10.668747,-0.37435913,-0.55825806,1.0754852,2.3216944,0.44681072,10.610294
1570727067,2.54451,-8.465591,10.668747,-0.37435913,-0.55825806,1.0754852,2.3216944,0.44681072,10.610294
1570727067,2.54451,-8.465591,10.668747,-0.37435913,-0.55825806,1.0754852,2.3216944,0.44681072,10.610294
1570727067,2.54451,-8.465591,10.668747,-0.37435913,-0.55825806,1.0754852,2.3216944,0.44681072,10.610294
1570727067,-0.34169006,-12.017395,-1.6027222,0.49702454,0.09901428,-0.31254578,-0.18443446,-2.3578062,-2.649533
1570727067,-4.542328,-11.387711,1.3265839,-0.898468,0.03616333,-0.79512024,-3.5156326,-3.5834827,-0.62473786
1570727067,-6.0159454,-8.614029,13.3897705,2.2121124,2.1070251,0.27867126,-6.8123255,0.3251524,13.678219
1570727067,-1.1114349,-13.836975,4.0763245,1.6017151,-2.1295319,0.31808472,-1.3040966,-4.642315,1.4979354
1570727067,-0.37521362,-15.716431,5.332077,2.4102478,-1.5596161,0.42781067,-0.5154011,-6.9995813,3.466964
1570727067,2.0453186,-13.902817,-0.91918945,2.538086,0.41752625,1.452591,1.7297422,-5.495534,-3.8390338
1570727067,4.461075,-14.878464,-0.11831665,1.5857391,0.2801056,1.2682953,5.3619227,-6.3012934,-4.4048777
1570727067,0.34184265,-15.054428,2.897171,1.1926422,0.97465515,0.82728577,1.7903035,-7.876498,-1.3571908
1570727067,-4.270584,-8.933655,3.7207794,0.8549652,0.28222656,0.82728577,-3.0448284,-1.4714518,-0.06588745
1570727067,-2.1098175,-6.764511,2.2028503,0.6493683,-0.6935425,0.87202454,-1.4264739,0.47889042,-1.0099759
1570727067,1.6059875,-4.5175476,0.112716675,0.23603821,-1.2112732,0.69625854,2.2373567,3.2614007,-3.9950762
1570727067,3.0592651,-4.2625732,-0.3936615,-0.015365601,-0.7404175,0.27760315,4.3600636,3.6318264,-4.5271287
1570727067,3.260376,-4.614517,-0.06803894,-0.5618439,-0.42190552,0.04324341,4.6104918,3.2204947,-4.3692865
1570727067,2.2332764,-3.9836426,-0.36253357,-0.980484,-0.33029175,-0.2901764,3.435429,3.833633,-4.0779915
1570727067,2.6977386,-3.565857,-0.4882202,-1.5418854,0.029769897,-0.57673645,3.5689673,4.4782295,-4.173774
1570727067,3.3046722,-4.494812,0.31503296,-1.6910248,0.3088684,-1.1551666,4.085227,4.090583,-2.9950264
1570727067,0.67463684,-8.113647,0.4514923,-1.5727692,-0.24293518,-1.8657074,1.801243,0.8261242,-2.2444026
1570727067,-5.353958,-9.642334,0.107925415,-1.9157867,-0.7702484,-1.6920624,-4.596225,-1.0119715,-2.157195
1570727067,-6.692322,-8.676285,0.8237915,-3.3262024,-1.0088654,-0.8611603,-7.130765,-0.17412186,-0.8886199
1570727067,-6.1895294,-10.292358,19.562012,-2.8340454,3.3246307,0.4810791,-9.803847,-1.9375429,16.031015
1570727067,0.43043518,-7.80719,18.124298,0.4086151,0.59329224,1.0605774,-0.93702066,1.5527344,19.72511
1570727067,3.0365295,-10.743668,-0.02734375,0.852829,-2.3265991,1.35672,2.566792,-1.2512693,3.4458923
1570727067,3.7487946,-16.464615,-5.3245087,0.70796204,0.6785126,0.47361755,4.220043,-7.134101,-7.0407505
1570727067,1.5497284,-13.804657,-2.5568237,0.40115356,0.70407104,-0.16340637,2.3076046,-6.0080175,-4.4696317
1570727067,0.8027344,-11.428421,-2.0971222,0.02192688,-0.091674805,-0.29656982,1.675769,-3.1180344,-3.5941122
1570727067,-0.77983093,-12.862534,-1.2567596,-0.44786072,-2.2807922,-0.11654663,-1.156065,-2.1085358,-2.2353969
1570727067,-0.80137634,-15.231598,-2.6466064,-0.53201294,-2.2243347,-0.63638306,-0.27385026,-7.4192734,-3.5780716
1570727067,-0.45661926,-9.814728,-1.9331207,-0.83880615,-0.83309937,-0.023864746,-0.75528616,-1.5101328,-2.684617
1570727068,-0.64097595,-7.764084,-1.5488586,-0.8835449,0.5858307,0.45443726,-0.9446879,0.9473095,-1.6680179
1570727068,0.6902008,-8.658325,-1.1993103,-0.89953613,2.1421814,0.44059753,0.60495365,0.34679985,-1.6299912
1570727068,0.58366394,-8.209412,0.37727356,-0.9059143,2.2668152,0.16468811,0.6929226,0.48076916,0.179008
1570727068,-0.14297485,-6.6400146,1.1326447,-0.93255615,1.3176727,-0.12187195,0.26068342,2.0346518,1.2494009
1570727068,-1.3759918,-6.143219,1.7515564,-0.86117554,0.4143219,-0.32426453,-1.0675697,2.7155313,1.9942102
1570727068,-2.163681,-5.59494,4.0775146,-0.1410675,0.7371063,-0.1421051,-2.054372,3.28187,4.2113104
1570727068,-1.2610626,-7.3750305,2.5428314,0.7654724,0.77119446,0.032592773,-1.5771835,2.0000477,4.0235734
1570727068,-1.2838135,-6.215042,2.9881592,0.72605896,0.6827698,-0.082458496,-1.1333978,1.7304192,2.4016678
1570727068,-0.6289978,-2.7769623,2.224411,1.6070404,0.7253876,-0.089904785,-0.81809497,5.5882473,3.0429723
1570727068,0.072509766,-4.985611,-0.5959625,1.4344635,0.23323059,-0.1186676,-0.15348807,5.4127913,-0.5149013
1570727068,-0.9498291,-14.2296295,-0.35295105,0.6024933,-0.588089,-0.4712677,-0.8711944,-3.7864637,-1.0337343
1570727068,-5.033127,-8.898941,2.7164154,0.14337158,-0.5710449,-1.0092316,-4.207792,-2.0113955,0.5283816
1570727068,-4.8344116,-6.83992,4.1912384,1.6634979,-0.88209534,-0.37327576,-6.0692506,2.5134459,4.0496235
1570727068,-4.3483887,-14.266739,0.65979004,1.0243378,-3.1351318,-4.272461E-4,-4.770633,-3.7418575,-0.7596905
1570727068,-1.2490997,-15.048447,5.9545746,0.9614868,-1.5628052,0.5300751,-2.6377168,-7.060548,2.6741734
1570727068,1.212143,-13.79628,4.844864,2.3729553,0.21937561,1.6677704,-0.13779229,-4.821186,3.5593178
1570727068,5.4666443,-15.226822,-1.0927582,2.1950684,1.2569427,1.9905548,5.234017,-6.447735,-2.8433232
1570727068,8.549179,-14.668961,-2.0348816,1.4035797,0.101135254,0.9529877,8.193534,-6.0372458,-3.7545042
1570727068,-1.2730408,-11.74086,5.6349487,0.8826599,-0.35054016,-0.10482788,1.5932474,-4.8138247,1.3170981
1570727068,-3.468521,-8.503891,1.6737366,0.94551086,-0.26957703,0.6653595,-3.6836045,-0.7167206,-1.3923116
1570727068,1.0433502,-5.0430756,-0.29788208,0.34043884,-0.5231018,0.9167633,1.2233479,2.4814644,-3.7068
1570727068,2.0297546,-3.6712036,-0.19493103,-0.16448975,-0.81073,0.59931946,2.961282,4.370532,-3.6257012
1570727068,2.077652,-4.1416626,-1.3345795,-0.45425415,-0.17263794,0.2850647,3.014131,4.165717,-4.9160733
1570727068,2.3948822,-4.697113,-0.5732269,-0.9655762,0.1554718,0.11248779,3.302465,3.5708818,-4.267691
1570727068,2.572052,-4.654022,-0.58639526,-1.2223053,0.1277771,-0.15914917,3.4435678,3.6371918,-3.7167575
1570727068,2.78154,-4.693527,-0.2320404,-1.3405457,0.31526184,-0.33598328,3.628245,3.6430387,-3.4765477
1570727068,2.78154,-4.693527,-0.2320404,-1.3405457,0.31526184,-0.33598328,3.628245,3.6430387,-3.4765477
1570727068,2.78154,-4.693527,-0.2320404,-1.3405457,0.31526184,-0.33598328,3.628245,3.6430387,-3.4765477
1570727068,2.78154,-4.693527,-0.2320404,-1.3405457,0.31526184,-0.33598328,3.628245,3.6430387,-3.4765477
1570727068,2.78154,-4.693527,-0.2320404,-1.3405457,0.31526184,-0.33598328,3.628245,3.6430387,-3.4765477
1570727068,2.78154,-4.693527,-0.2320404,-1.3405457,0.31526184,-0.33598328,3.628245,3.6430387,-3.4765477
1570727068,2.78154,-4.693527,-0.2320404,-1.3405457,0.31526184,-0.33598328,3.628245,3.6430387,-3.4765477
1570727068,2.78154,-4.693527,-0.2320404,-1.3405457,0.31526184,-0.33598328,3.628245,3.6430387,-3.4765477
1570727068,2.78154,-4.693527,-0.2320404,-1.3405457,0.31526184,-0.33598328,3.628245,3.6430387,-3.4765477
1570727069,2.78154,-4.693527,-0.2320404,-1.3405457,0.31526184,-0.33598328,3.628245,3.6430387,-3.4765477
1570727069,2.78154,-4.693527,-0.2320404,-1.3405457,0.31526184,-0.33598328,3.628245,3.6430387,-3.4765477
1570727069,2.78154,-4.693527,-0.2320404,-1.3405457,0.31526184,-0.33598328,3.628245,3.6430387,-3.4765477
1570727069,2.78154,-4.693527,-0.2320404,-1.3405457,0.31526184,-0.33598328,3.628245,3.6430387,-3.4765477
1570727069,2.78154,-4.693527,-0.2320404,-1.3405457,0.31526184,-0.33598328,3.628245,3.6430387,-3.4765477
1570727069,2.78154,-4.693527,-0.2320404,-1.3405457,0.31526184,-0.33598328,3.628245,3.6430387,-3.4765477
1570727069,2.78154,-4.693527,-0.2320404,-1.3405457,0.31526184,-0.33598328,3.628245,3.6430387,-3.4765477
1570727069,2.78154,-4.693527,-0.2320404,-1.3405457,0.31526184,-0.33598328,3.628245,3.6430387,-3.4765477
1570727069,2.78154,-4.693527,-0.2320404,-1.3405457,0.31526184,-0.33598328,3.628245,3.6430387,-3.4765477
1570727069,2.78154,-4.693527,-0.2320404,-1.3405457,0.31526184,-0.33598328,3.628245,3.6430387,-3.4765477
1570727069,2.78154,-4.693527,-0.2320404,-1.3405457,0.31526184,-0.33598328,3.628245,3.6430387,-3.4765477
1570727069,2.78154,-4.693527,-0.2320404,-1.3405457,0.31526184,-0.33598328,3.628245,3.6430387,-3.4765477
1570727069,2.78154,-4.693527,-0.2320404,-1.3405457,0.31526184,-0.33598328,3.628245,3.6430387,-3.4765477
1570727069,2.78154,-4.693527,-0.2320404,-1.3405457,0.31526184,-0.33598328,3.628245,3.6430387,-3.4765477
1570727069,2.78154,-4.693527,-0.2320404,-1.3405457,0.31526184,-0.33598328,3.628245,3.6430387,-3.4765477
1570727069,2.78154,-4.693527,-0.2320404,-1.3405457,0.31526184,-0.33598328,3.628245,3.6430387,-3.4765477
1570727069,2.78154,-4.693527,-0.2320404,-1.3405457,0.31526184,-0.33598328,3.628245,3.6430387,-3.4765477
1570727069,2.78154,-4.693527,-0.2320404,-1.3405457,0.31526184,-0.33598328,3.628245,3.6430387,-3.4765477
1570727069,-0.49491882,-5.696701,-0.02255249,-1.3405457,0.31526184,-0.33598328,-7.5055285,-3.51867,19.791088
1570727069,-3.5343628,-12.105972,11.911346,1.2437897,1.4891815,0.28720093,-4.019825,-2.8440142,9.929942
1570727069,0.57647705,-14.397217,5.467346,2.1322174,-1.115387,1.406784,-0.42551726,-5.6660233,4.3630953
1570727069,4.287491,-14.859299,-2.7986298,2.5647125,0.068115234,1.3854828,4.3464713,-6.456912,-4.4559546
1570727069,6.2710876,-15.314209,-2.874054,1.4536438,0.75627136,0.69625854,6.3521857,-6.6760616,-5.88824
1570727069,-2.0679169,-13.299484,4.526428,0.7803955,-0.27064514,-0.08351135,-0.7189083,-5.426917,0.8766792
1570727069,-3.0184174,-8.4344635,1.7299957,0.7015686,0.6337738,0.82940674,-2.9660082,-0.46700478,-1.4114623
1570727069,0.21855164,-6.5693817,0.63345337,0.022994995,-0.80007935,1.0339508,0.9503029,1.5588989,-2.6677015
1570727069,-0.9115143,-5.8930206,-0.12310791,-0.31469727,-0.9183197,0.76123047,0.10379559,2.2035456,-3.516795
1570727069,1.2720032,-6.519104,0.25756836,-0.53627014,-0.5135193,0.5119629,1.9048095,1.8757906,-3.089598
1570727069,3.1909485,-5.79126,0.7220459,-0.70777893,-0.747879,0.1593628,3.955495,2.5330381,-2.2598999
1570727069,3.445938,-4.808441,0.19412231,-0.7983246,-0.4485321,-0.3381195,4.578517,3.1967878,-2.9177418
1570727069,2.3757172,-3.7430267,0.3210144,-0.8238983,-0.020309448,-0.66941833,3.2983785,4.5496035,-2.4603179
1570727069,1.2851715,-4.05307,0.64064026,-0.84840393,0.117111206,-0.93040466,2.041791,4.4274864,-1.9498234
1570727069,-2.0104523,-6.637619,-0.34936523,-1.44281,-0.6615906,-1.2404022,-1.2583212,2.1948614,-2.3840735
1570727070,-5.030731,-10.731705,0.7507782,-2.301422,-0.57637024,-0.746109,-4.747021,-1.5057325,-1.453949
1570727070,-7.720627,-11.694168,17.65982,-1.8635864,1.9397888,1.0105133,-8.903748,-3.5461617,16.430176
1570727070,-0.37521362,-8.183075,12.021484,0.43418884,1.4827881,1.1298218,-1.2250409,0.701663,11.162707
1570727070,3.971466,-9.344269,2.7798615,0.7377777,-0.972641,0.8358002,4.532216,-0.61547375,1.7562944
1570727070,1.9315948,-8.908524,3.7243652,0.18916321,-1.4243164,-0.31254578,2.7366834,-0.2553854,2.2711504
1570727070,-0.30218506,-11.500244,1.5528259,0.040039062,-3.0754852,-1.0869904,0.56799555,-2.3095655,1.0565207
1570727070,-0.32014465,-14.935913,-2.7339935,0.29037476,-3.8637695,-1.064621,-0.42431086,-6.1702986,-4.117405
1570727070,-0.72117615,-12.61235,-3.6389923,-0.37329102,-3.3492584,-0.96875,-0.99832004,-4.7327757,-5.0874124
1570727070,-1.6668854,-10.249268,-2.0516357,-1.6026001,-3.217163,-0.105895996,-2.7263248,-1.3058691,-3.71005
1570727070,-1.0838928,-11.330246,-3.917923,-1.5887604,-2.4640198,0.2424469,-2.009017,-2.440072,-4.227815
1570727070,-0.15734863,-16.959015,-3.0536194,-0.502182,1.9323273,-0.101623535,-1.6379435,-4.0649824,-6.283477
1570727070,0.036590576,-7.3307343,0.55804443,0.66641235,1.3517609,-0.13998413,-0.77929014,1.2873945,0.33665076
1570727070,0.3753662,-8.4189,-3.0955048,1.1851959,1.5818481,0.05177307,-0.29419732,1.0025883,-3.0860257
1570727070,-0.08073425,-9.934433,-2.9949493,0.34895325,3.076416,0.13166809,-0.9366168,-0.9754276,-4.442828
1570727070,0.7847748,-7.3079987,0.11392212,0.19343567,3.342743,0.21688843,0.015120864,0.8975277,-1.0547154
1570727070,1.3569946,-5.590149,0.5664215,0.23710632,3.2873383,0.14764404,0.957196,3.0312767,-0.83634305
1570727070,0.6997833,-9.393341,1.6904907,-2.160797,0.22044373,-0.26887512,0.21078962,0.25650024,1.0135405
1570727070,1.8813171,-8.5924835,0.7244415,-2.1863708,-0.75320435,0.5545807,1.4854561,-0.11817837,0.5443217
1570727070,1.8310394,-5.847534,-0.4559021,-1.4768982,-1.5169983,0.19451904,1.6071948,3.0990362,-0.107161134
1570727070,1.4503632,-8.930069,-1.2088776,-1.0198975,-1.5798492,-0.46488953,1.2093453,0.030953407,-0.59450614
1570727070,-0.4159088,-10.553329,-0.23683167,-1.8231201,-2.801712,-0.8569031,-0.77169615,-1.6907587,0.74504304
1570727070,-1.0396118,-10.204971,-0.59117126,-1.5301666,-2.2488403,-0.6853943,-1.5053703,-1.4318905,0.9680288
1570727070,0.27001953,-11.619949,-1.0089722,-0.61616516,1.1578827,-0.105895996,-0.44160932,-2.883028,0.77687216
1570727070,2.3218536,-12.687759,0.58677673,-0.13893127,3.968048,-0.11122131,1.511842,-3.7785816,2.1064882
1570727070,4.4730377,-13.917191,1.3696747,0.7271271,3.2095795,-0.46061707,3.382604,-5.0461655,3.045608
1570727070,3.6973267,-13.808258,-1.5632172,1.0999756,2.1933136,-1.1487885,2.397586,-5.0099087,-0.22508991
1570727070,1.0170135,-13.1462555,-4.534424,0.51301575,2.7760162,-1.1551666,-0.6590487,-4.4175816,-3.4439435
1570727070,-1.1257935,-12.82663,-2.590332,-0.9304199,2.724884,-0.13891602,-3.2027137,-3.9321775,-1.9134289
1570727070,-0.15016174,-12.405243,-0.56243896,-0.7770233,0.70407104,0.3447113,-2.4769003,-4.0437565,0.023140669
1570727070,-0.38479614,-9.4340515,-1.961853,-0.25398254,-1.8227234,0.6046448,-1.9761034,-0.56529427,-0.65232754
1570727070,-3.4014893,-10.764023,-4.9246826,-1.104065,-0.55825806,1.8009338,-4.9028788,-1.9646215,-3.4560342
1570727070,1.2468567,-9.733322,6.881134,-0.65878296,3.3992004,2.1908264,0.062773466,-0.8063545,7.8455215
1570727070,-0.44345093,-7.800003,-2.6250458,0.5982361,0.7594757,2.2685852,-0.6780356,1.1267385,0.01485014
1570727071,2.9623108,-12.238846,-4.3512726,-1.0859528,0.45054626,1.547409,3.012961,-3.3211355,-2.783905
1570727071,3.0915833,-9.875778,1.0105438,-1.6345673,1.1387024,0.32980347,3.5482635,-1.5689955,2.2039647
1570727071,3.0317383,-8.882187,7.940567,0.7505646,1.8194122,-0.839859,3.0792694,-0.053257942,9.95817
1570727071,0.4519806,-10.718536,7.394684,4.0464935,1.2398987,-1.3724823,0.16492313,-1.6469002,8.925047
1570727071,-1.4107056,-11.658264,4.073929,6.363449,-0.46452332,-1.0390625,-1.8559572,-2.4054766,4.9744687
1570727071,-1.693222,-12.846985,1.0428619,7.1485443,-1.019516,-0.42546082,-2.6410043,-3.968029,-0.8662647
1570727071,-1.5878754,-12.755997,0.40960693,7.1059265,-0.80326843,-0.27845764,-2.5773234,-4.069029,-2.0969255
1570727071,-1.5878754,-12.755997,0.40960693,7.1059265,-0.80326843,-0.27845764,-2.5773234,-4.069029,-2.0969255
1570727071,-1.5878754,-12.755997,0.40960693,7.1059265,-0.80326843,-0.27845764,-2.5773234,-4.069029,-2.0969255
1570727071,-1.5878754,-12.755997,0.40960693,7.1059265,-0.80326843,-0.27845764,-2.5773234,-4.069029,-2.0969255
1570727071,-1.5878754,-12.755997,0.40960693,7.1059265,-0.80326843,-0.27845764,-2.5773234,-4.069029,-2.0969255
1570727071,-1.5878754,-12.755997,0.40960693,7.1059265,-0.80326843,-0.27845764,-2.5773234,-4.069029,-2.0969255
1570727071,-1.5878754,-12.755997,0.40960693,7.1059265,-0.80326843,-0.27845764,-2.5773234,-4.069029,-2.0969255
1570727071,-1.5878754,-12.755997,0.40960693,7.1059265,-0.80326843,-0.27845764,-2.5773234,-4.069029,-2.0969255
1570727071,-1.5878754,-12.755997,0.40960693,7.1059265,-0.80326843,-0.27845764,-2.5773234,-4.069029,-2.0969255
1570727071,-1.5878754,-12.755997,0.40960693,7.1059265,-0.80326843,-0.27845764,-2.5773234,-4.069029,-2.0969255
1570727071,-1.5878754,-12.755997,0.40960693,7.1059265,-0.80326843,-0.27845764,-2.5773234,-4.069029,-2.0969255
1570727071,-1.5878754,-12.755997,0.40960693,7.1059265,-0.80326843,-0.27845764,-2.5773234,-4.069029,-2.0969255
1570727071,-1.5878754,-12.755997,0.40960693,7.1059265,-0.80326843,-0.27845764,-2.5773234,-4.069029,-2.0969255
1570727071,-1.5878754,-12.755997,0.40960693,7.1059265,-0.80326843,-0.27845764,-2.5773234,-4.069029,-2.0969255
1570727071,-1.5878754,-12.755997,0.40960693,7.1059265,-0.80326843,-0.27845764,-2.5773234,-4.069029,-2.0969255
1570727071,-1.5878754,-12.755997,0.40960693,7.1059265,-0.80326843,-0.27845764,-2.5773234,-4.069029,-2.0969255
1570727071,1.8023071,0.41210938,10.344345,0.8773346,0.89901733,-1.0252075,0.91197443,-0.66677934,1.6544085
1570727071,1.0589142,1.3901367,9.521927,0.89012146,0.5123291,-1.2776794,0.3552739,-0.11568868,1.0067377
1570727071,0.45437622,2.1395264,8.646851,0.69303894,0.41645813,-1.1338654,-0.097232044,0.5974078,-0.051862717
1570727071,0.22932434,2.2747955,9.486023,-0.029205322,0.41964722,-0.8707428,-0.22751194,0.62244916,0.30693436
1570727071,0.35263062,1.687027,10.393417,-0.42121887,0.081970215,-0.77275085,-0.035648823,0.35749006,1.4895325
1570727071,0.13833618,1.6499176,10.4844055,-0.06222534,0.093673706,-0.89845276,-0.16073918,0.17539275,1.9565582
1570727071,-1.2431183,2.1981812,10.8207855,0.6056824,0.2374878,-0.7780762,-1.4958199,0.6149056,1.9667397
1570727071,-0.51527405,2.1251678,9.67276,0.91781616,0.11178589,-0.46168518,-0.81115067,0.40873826,1.1139717
1570727071,0.0054626465,1.873764,8.988022,0.59291077,-0.008590698,-0.41801453,-0.27026838,-0.24729204,0.31571007
1570727071,-0.27824402,2.0593262,9.245407,0.3148651,0.035095215,-0.6161499,-0.23192003,-0.11370778,0.40112877
1570727071,-0.86242676,2.4495697,9.523132,0.09222412,-0.0362854,-0.65237427,-0.76342607,0.07213378,0.6504059
1570727071,-0.8815918,2.1550903,10.169556,-0.30723572,-0.23867798,-0.6022949,-0.9924653,0.021712065,1.2055216
1570727072,-0.5571747,2.0892487,10.397018,-0.3455963,-0.3611908,-0.62786865,-0.664557,-0.1272006,1.6930418
1570727072,-0.30099487,2.315506,10.12767,-0.115493774,-0.23228455,-0.72587585,-0.48301744,0.23568416,1.4371586
1570727072,-0.49612427,2.4591522,10.040283,0.1295166,-0.12576294,-0.83026123,-0.6161673,0.27752376,1.1849575
1570727072,-0.27226257,2.3981018,9.517136,0.49702454,-0.13534546,-0.90057373,-0.5208231,0.004459858,0.8317976
1570727072,-0.50450134,3.0792542,9.143646,0.73991394,0.114990234,-0.99858093,-0.4187356,0.6674733,0.41747665
1570727072,-0.6661072,3.3450012,9.435745,0.7335205,0.20021057,-0.97088623,-0.53043693,0.78730345,0.69266415
1570727072,-0.8732147,3.620346,9.550659,0.67385864,0.15333557,-0.9367981,-0.6406219,0.8302064,0.8191128
1570727072,-0.69963074,3.6861877,9.8954315,0.69410706,0.14801025,-0.9272003,-0.4946537,0.76750636,1.1343489
1570727072,-0.7056122,3.3845062,10.352722,0.9646759,0.20979309,-1.0529022,-0.21268323,0.30772376,1.7269869
1570727072,-1.3245087,4.1757965,9.768539,1.026474,-0.030960083,-1.1402588,-0.63994926,0.6539843,1.5141201
1570727072,-1.3891602,3.9148254,9.226242,0.7196655,-0.17050171,-1.015625,-0.7508267,0.6743057,0.97930527
1570727072,-1.1317749,3.359375,9.353134,0.6578827,0.1277771,-1.1051025,-0.19082469,-0.43142033,0.84499454
1570727072,-1.4621735,3.7628021,9.9086,0.9348602,0.23855591,-1.0869904,-0.47427,-0.12923288,1.6324425
1570727072,-1.763855,4.877304,9.191528,0.86880493,-0.15133667,-0.7642212,-0.6176381,0.7411132,1.0008001
1570727072,-1.214386,4.9874268,7.984848,0.59609985,-0.55506897,-0.57566833,-0.19725502,0.6939354,0.22816563
1570727072,-0.9115143,5.1358643,7.392288,0.17532349,-0.50286865,-0.54478455,0.16409361,0.8144412,-0.6077728
1570727072,-0.6086426,4.988632,8.363144,0.16467285,0.032958984,-0.5319977,0.46692336,0.74221563,0.07377815
1570727072,-0.63378906,4.403244,9.323212,0.41500854,0.59754944,-0.6300049,0.7069206,0.10408592,0.9323659
1570727072,-0.83969116,4.8605347,9.796066,0.45655823,0.124572754,-0.62893677,0.5483633,0.21677685,1.933114
1570727072,-0.7259674,4.951523,9.045486,0.44056702,-0.25253296,-0.5660858,0.6334121,0.36327553,1.4373198
1570727072,-0.68525696,5.0532684,8.44574,0.38624573,-0.20884705,-0.5682068,0.75081027,0.3814578,0.6312289
1570727072,-0.8851776,5.4363403,8.521149,0.46081543,0.015914917,-0.5735321,0.7240912,0.66045046,0.7633376
1570727072,-1.2526855,5.8684998,8.540314,0.45761108,0.05532837,-0.49258423,0.39189947,1.0288701,0.84752226
1570727072,-1.3281097,6.743576,6.5914307,0.19662476,0.07876587,-0.40948486,0.4118905,1.336081,-0.4895258
1570727072,-1.3484497,5.4363403,8.290115,-0.14425659,0.12031555,-0.27845764,0.20961499,0.85538006,0.2666545
1570727072,-1.3340912,5.526123,9.481232,-0.12614441,-0.37609863,-0.52879333,0.48639715,0.63959837,1.6738458
1570727072,-1.3197327,6.031296,8.955704,-0.10484314,-0.6413574,-0.52879333,0.28876317,1.2405415,1.3087349
1570727072,-1.2407227,5.9067993,8.409821,-0.082473755,-0.47410583,-0.48298645,0.42666233,1.2395921,0.6456399
1570727072,-1.2024078,6.010956,8.789307,-0.09526062,-0.2727661,-0.43399048,0.37022507,1.333231,0.79059553
1570727072,-0.97016907,5.7368164,9.272934,-0.029205322,-0.27597046,-0.34024048,0.5397793,1.1738191,1.431004
1570727072,-0.76187134,5.564438,9.022736,-0.056900024,-0.45280457,-0.3892517,0.77331066,0.8838115,1.1846023
1570727072,-0.81933594,5.7092743,8.912613,-0.15704346,-0.4954071,-0.3604889,0.634632,1.1289959,0.9651842
1570727072,-0.6433716,5.4016266,9.209488,-0.08140564,-0.40592957,-0.3050995,0.75558245,0.91531086,1.1737523
1570727073,-0.56555176,5.2867126,9.17717,0.089035034,-0.34414673,-0.361557,0.8386698,0.72090673,1.1819229
1570727073,-0.7463074,5.43515,8.802475,0.065597534,-0.37077332,-0.36795044,0.6020236,0.84131813,0.8417673
1570727073,-0.8600464,5.4363403,8.958099,0.09329224,-0.30046082,-0.32958984,0.44326591,0.84900045,0.9302139
1570727073,-0.79060364,5.3489532,8.961685,0.21473694,-0.20779419,-0.34983826,0.5047158,0.6836233,0.9042578
1570727073,-0.96658325,5.5033875,8.830002,0.33511353,-0.070373535,-0.361557,0.37006342,0.7754326,0.8269305
1570727073,-1.1712799,5.648224,8.710297,0.40968323,-0.0021972656,-0.28378296,0.20504797,0.8707695,0.7697811
1570727073,-1.0659332,5.529724,8.557068,0.46188354,0.16612244,-0.22732544,0.32998073,0.67762375,0.63224554
1570727073,-1.056366,5.509369,8.826416,0.5705414,0.24601746,-0.21774292,0.39987004,0.5406642,1.0322819
1570727073,-1.1210022,5.69252,8.431366,0.67492676,0.29714966,-0.25608826,0.43225873,0.5273156,0.7272754
1570727073,-1.4537964,6.171356,8.073441,0.6269989,0.29608154,-0.23052979,0.30724347,0.7112489,0.5667062
1570727073,-1.7901917,6.7292175,5.467346,0.49597168,0.47930908,-0.1697998,0.12608087,0.60856867,-0.72012424
1570727073,-1.7123718,6.031296,7.169632,0.16041565,0.6657257,-0.089904785,0.2047689,0.5721607,-0.42029476
1570727073,-1.98172,6.256363,8.82402,-0.11123657,0.051071167,-0.17726135,0.13177204,0.70941544,1.3203135
1570727073,-2.3504333,6.7064667,8.100967,-0.31150818,-0.61364746,-0.05795288,-0.3728491,1.3561511,0.84328413
1570727073,-1.8308868,6.3150177,7.3815155,-0.4925995,-0.5050049,0.034729004,-0.05584967,1.0363569,-0.15151739
1570727073,-1.6908264,6.252762,8.573822,-0.6214905,-0.2631836,0.06668091,0.06305754,1.0866976,0.7439461
1570727073,-1.6644897,5.9343414,9.521927,-0.5384064,-0.3846283,0.06561279,0.042214513,0.86634254,1.6907687
1570727073,-1.3448639,5.8086395,9.086182,-0.41696167,-0.5241699,0.06349182,0.12387574,0.8427,1.3409581
1570727073,-0.93666077,5.6973114,8.74501,-0.17088318,-0.25997925,0.07521057,0.4615885,0.767735,0.7525282
1570727073,-0.9402466,5.572815,8.66481,-0.06436157,-0.09700012,0.05496216,0.47486186,0.6621461,0.7134371
1570727073,-0.97735596,5.5285187,8.767761,-0.17941284,-0.19500732,0.02407837,0.39099216,0.6763444,0.7715416
1570727073,-1.0048828,5.4519043,8.651642,-0.17515564,-0.17156982,-0.011077881,0.3132305,0.56798077,0.59353447
1570727073,-1.0922699,5.399231,8.846771,-0.04624939,-0.028823853,-0.028121948,0.22544277,0.58518267,0.74573135
1570727073,-1.1545258,5.466263,8.761765,0.0868988,0.052139282,-0.011077881,0.145388,0.6256552,0.71478844
1570727073,-1.1652985,5.4123993,8.673187,0.11354065,0.06918335,-0.013214111,0.15611756,0.56995773,0.6342335
1570727073,-1.0874939,5.414795,8.606155,0.12738037,0.1320343,-0.013214111,0.18688226,0.52251816,0.55170727
1570727073,-1.143753,5.426773,8.6779785,0.23284912,0.27264404,-0.017471313,0.22463334,0.3994851,0.657177
1570727073,-1.1724854,5.431549,8.595383,0.3010254,0.38876343,6.4086914E-4,0.18900263,0.35711765,0.60894966
1570727073,-1.2730408,5.363327,8.688751,0.39370728,0.46652222,-0.05795288,0.2961663,0.18236399,0.7559204
1570727073,-1.5998535,5.814621,8.600159,0.35534668,0.3450775,-0.09950256,0.11494577,0.5318923,0.7079401
1570727073,-1.9481964,6.688507,6.917038,0.1252594,0.6145935,-0.05155945,-0.17637694,1.4459906,-1.785964
1570727073,-2.282196,6.1402435,8.735443,-0.029205322,0.24388123,0.04219055,-0.4375397,0.83071136,0.69739103
1570727073,-1.9673615,6.036087,8.661209,-0.09098816,-0.29408264,0.016616821,-0.23403311,0.6836772,0.9214983
1570727074,-1.8512421,5.86969,7.9561157,-0.2742157,-0.3462677,0.014480591,-0.17762613,0.643023,0.08669615
1570727074,-1.8404694,5.8325806,7.9824524,-0.31469727,-0.29408264,0.012359619,-0.09826136,0.55180645,-0.023557663
