time,ax,ay,az,gx,gy,gz,la_x,la_y,la_z,fox,foy,foz
1570726802,5.538391,-0.65960693,7.5327606,-0.20951843,-0.4464264,0.58036804,-1.6954775,0.5696218,-0.10774946
1570726802,5.728134,-0.65960693,7.5327606,-0.23295593,-0.45921326,0.6016846,-1.6954775,0.5696218,-0.10774946
1570726802,5.728134,-0.65960693,7.5327606,-0.23295593,-0.45921326,0.6016846,-1.6954775,0.5696218,-0.10774946
1570726802,5.728134,-0.65960693,7.5327606,-0.23295593,-0.45921326,0.6016846,-1.6954775,0.5696218,-0.10774946
1570726802,5.728134,-0.65960693,7.5327606,-0.23295593,-0.45921326,0.6016846,-1.6954775,0.5696218,-0.10774946
1570726803,5.91008,-2.0446472,7.4058685,-0.7570648,-0.58491516,0.14787292,-2.1041183,0.1539545,0.6950717
1570726803,5.810135,-1.2431946,7.360977,-0.58769226,-0.70848083,0.1574707,-2.5377264,1.0138626,1.4284277
1570726803,5.08049,-1.2779083,7.3352356,-0.4768982,-0.9428406,-0.23242188,-2.9347267,1.3215735,1.170083
1570726803,5.08049,-1.2779083,7.3352356,-0.4768982,-0.9428406,-0.23242188,-2.9347267,1.3215735,1.170083
1570726803,5.08049,-1.2779083,7.3352356,-0.4768982,-0.9428406,-0.23242188,-2.9347267,1.3215735,1.170083
1570726803,5.08049,-1.2779083,7.3352356,-0.4768982,-0.9428406,-0.23242188,-2.9347267,1.3215735,1.170083
1570726803,3.7930145,-2.3307495,7.712921,-0.4768982,-0.9428406,-0.23242188,-2.9347267,1.3215735,1.170083
1570726803,5.932831,-10.044281,3.3548737,-4.9563293,-2.335144,2.567093,-2.5591817,-5.1191745,-4.6786175
1570726803,7.305908,-9.897034,-0.49440002,-4.0785522,-2.9572601,2.634201,-0.53772163,-3.02077,-3.687769
1570726803,7.827835,-10.187927,-0.25976562,-3.6790771,-5.56929,2.7503204,0.95746565,-2.2500548,-1.1646601
1570726803,6.3266754,-10.737396,5.7143555,-1.9480286,0.23320007,2.4861298,-0.14526129,-2.1209726,9.168129
1570726803,6.200989,-10.491394,3.2920227,1.0187378,0.34613037,2.4776154,-0.20705557,-2.0870342,5.1739054
1570726803,5.9322357,-13.305771,-2.7904358,0.4243164,0.37701416,2.7194214,-0.653069,-3.8808527,-2.1560702
1570726803,7.170639,-13.32254,0.7846985,-0.56637573,-0.13430786,2.2602997,2.7745228,-3.6982517,0.20263073
1570726803,7.0072327,-12.5504,1.3341675,-0.18501282,0.44519043,1.9758759,3.30465,-2.7688732,2.0954738
1570726803,9.005783,-11.871643,-1.6741486,0.19953918,-0.06932068,1.1343079,6.006481,-1.7583265,-0.5780364
1570726803,8.239044,-10.327988,-2.4283142,-0.3757019,-0.86187744,0.114852905,5.501234,-0.37877464,-2.1928072
1570726803,8.847168,-11.857285,-1.1959076,-0.68888855,-0.88531494,-1.1837006,6.3609,-0.87491703,-0.57263035
1570726803,8.437759,-13.667892,-0.9540863,-1.4590759,-0.037368774,-0.82577515,4.605095,-3.2656984,0.03555292
1570726803,9.30806,-11.368271,-2.3936005,-1.538971,-2.2094421,0.9734497,4.164112,-2.6974812,-0.08317459
1570726803,10.691315,-8.454529,2.1613617,-0.77090454,-3.7167969,0.023239136,7.503148,1.7096186,3.66731
1570726803,6.9713135,-12.449249,1.1719666,-0.049728394,-2.096527,-1.0665283,4.3420916,-1.2210512,4.173151
1570726803,1.9051819,-11.56279,-3.3411102,-1.7935638,-1.0973053,-0.5211029,-0.20783591,-2.7443247,-0.5397625
1570726803,3.7307587,-7.881119,0.18315125,-2.0960999,-0.7457733,-0.26332092,0.07613325,1.348567,3.6623755
1570726803,6.886917,-5.585678,-0.5195465,-1.5687866,0.10324097,-0.49661255,2.6104116,2.9876862,3.7770638
1570726803,8.863342,-4.525635,-0.84994507,-0.8337555,0.09791565,-1.2177887,5.557687,4.7862053,3.5666046
1570726803,3.862442,-4.8003693,1.3341675,0.6512146,-0.25254822,-1.1911621,0.06929588,3.9272938,5.5240006
1570726803,5.945999,-4.0019073,0.9977875,0.88664246,0.82336426,-0.9631958,0.9083724,4.807086,5.2087035
1570726803,9.900024,-3.5075073,0.24839783,0.7630768,1.4902191,-1.8974304,3.4023285,5.002557,4.395077
1570726803,7.5411377,-7.507614,-4.7979736,0.55215454,0.97143555,-2.466278,1.9778285,1.3737898,-1.1960671
1570726803,7.760803,-2.7964325,-0.8128357,1.1039581,-0.48583984,-2.1861115,1.4653487,5.428619,0.390867
1570726803,7.760803,-2.7964325,-0.8128357,1.1039581,-0.48583984,-2.1861115,1.4653487,5.428619,0.390867
1570726804,10.304642,-5.9424133,4.300583,-0.60899353,2.10701,0.22457886,0.08814192,0.6216507,4.338482
1570726804,10.304642,-5.9424133,4.300583,-0.60899353,2.10701,0.22457886,0.08814192,0.6216507,4.338482
1570726804,6.889908,-12.917908,0.980423,1.770813,4.497467,0.978775,-0.9278612,-5.01734,3.5942996
1570726804,19.139252,-12.824539,-1.8962097,0.47225952,3.096634,3.0038452,12.369343,-4.643458,-4.3670607
1570726804,19.139252,-12.824539,-1.8962097,0.47225952,3.096634,3.0038452,12.369343,-4.643458,-4.3670607
1570726804,3.0609894,-4.7608643,3.4266968,0.15800476,-0.60728455,2.2634888,-2.3022938,4.3302956,2.3895252
1570726804,-0.24121094,-5.4611816,-0.62368774,-0.04547119,0.9330902,2.554306,-5.7149487,2.7205715,1.5496459
1570726804,6.827072,-10.907379,6.0226135,-0.27983093,0.7104492,0.37904358,1.5136456,0.9580097,4.132377
1570726804,6.115387,-13.864822,2.015915,0.5393677,1.5083313,-0.29953003,1.8396001,-2.2130728,4.528635
1570726804,4.8931427,-13.672684,6.3392487,0.99316406,-0.519928,-0.19194031,-0.19976568,-4.5908813,4.283989
1570726804,3.3195648,-9.8090515,6.1530914,1.2882385,0.39512634,-0.32722473,-2.1240768,-1.0519514,3.6574662
1570726804,4.8039703,-9.481644,5.938217,1.2733307,1.1077881,-0.32936096,-1.0891314,-0.36706257,4.3399496
1570726804,3.4135284,-8.487442,1.1025238,1.438446,-0.424057,-0.81192017,-0.64709425,0.36713886,-1.2030337
1570726804,3.4135284,-8.487442,1.1025238,1.438446,-0.424057,-0.81192017,-0.64709425,0.36713886,-1.2030337
1570726804,2.9975433,-7.731476,4.988922,0.706604,0.013763428,-0.48168945,-2.5767355,0.69314957,1.551116
1570726804,5.281006,-6.300934,2.7994232,0.6607971,-0.48371887,0.0104522705,-0.61069393,1.9413376,-0.89711165
1570726804,3.9612122,-9.175186,4.22876,0.24534607,0.35890198,0.5643921,-0.88851833,-1.2525921,1.524075
1570726804,3.9612122,-9.175186,4.22876,0.24534607,0.35890198,0.5643921,-0.88851833,-1.2525921,1.524075
1570726804,4.257492,-8.644272,6.6917877,0.04827881,0.62841797,1.4411011,-1.8549733,-0.93182564,2.0509813
1570726804,2.1254578,-7.4052734,3.5320435,-0.21803284,0.43347168,1.691452,-2.6831865,0.84739304,1.2521143
1570726804,2.5426483,-6.8091125,3.0388336,-0.24467468,0.42388916,1.6978302,-2.3484344,1.2526503,0.05422139
1570726804,4.66391,-4.4568024,3.272873,-1.7573395,1.8470764,1.4965057,1.3914292,4.6869144,-0.23192883
1570726804,4.5088806,-4.305374,3.289032,-1.7445679,1.8492126,1.4421692,1.3914292,4.6869144,-0.23192883
1570726804,0.5746155,-5.017044,0.38127136,-1.8361816,1.4816895,0.92658997,-1.888861,4.6296043,-2.6082666
1570726804,0.5746155,-5.017044,0.38127136,-1.8361816,1.4816895,0.92658997,-1.888861,4.6296043,-2.6082666
1570726804,-0.4339447,-4.747696,1.6364441,-2.147232,0.8201752,1.8448486,-2.6079683,4.655607,-2.0068831
1570726804,0.1945343,-8.899246,2.5755615,-1.4026184,0.54000854,3.3873444,-1.1256685,1.5711384,1.7660475
1570726804,0.49620056,-7.936783,2.605484,-1.6774445,-1.4019775,4.0265045,0.29720062,1.9875984,1.0139686
1570726804,1.0809784,-2.8353271,2.011734,-1.6135406,-2.826233,4.4227753,2.3435965,7.329673,0.8635818
1570726804,0.82240295,-13.012482,8.550888,-0.7336273,-0.77986145,3.634491,5.2674484,4.4832,4.8860593
1570726804,-11.130051,-19.612701,-4.019272,2.2416534,8.207779,0.17663574,-7.1161213,-9.679717,-0.7151931
1570726804,-2.9017792,-11.110886,-2.8437195,-0.45666504,7.2010956,1.3452301,0.3594761,-2.2168474,-3.564594
1570726804,-5.3348846,-7.508209,-9.886856,-0.4225769,3.2489777,-0.027893066,0.40780377,2.1841106,-7.6352115
1570726804,-3.8331146,-5.127182,-2.072174,0.58517456,-5.677948,-0.5211029,-0.3024721,4.621825,-2.4041524
1570726805,-3.8947601,-7.021591,-0.46148682,0.48823547,-5.7194977,-0.569046,-0.36148763,3.4695292,-1.294183
1570726805,-2.5288696,-11.269501,9.88147,-0.23295593,-1.968689,-0.62657166,-0.0052466393,-0.9222717,8.38039
1570726805,0.4112091,-12.618637,-5.00029,0.61073303,0.7274933,-0.07156372,3.1156547,-5.1585894,-7.1846867
1570726805,0.5787964,-11.640015,-4.2048187,0.5500183,0.49525452,-0.07156372,3.3701437,-3.1944056,-6.2941666
1570726805,-3.245346,-7.8835144,0.32681274,-0.37782288,-0.5167389,-0.25904846,-0.10362959,1.8997221,-0.9085132
1570726805,-4.910507,-8.69873,3.2878418,-0.70700073,-0.21313477,-0.09288025,-1.4793658,2.0565357,1.0647309
1570726805,-0.5093689,-9.9874115,6.092041,-0.3245697,-0.0022125244,0.38223267,2.1735513,0.07623291,5.3805237
1570726805,-0.2346344,-10.237015,2.2996368,0.38383484,-1.0600281,0.37904358,3.0101666,-0.5901909,2.5282211
1570726805,-0.786499,-8.6041565,1.2132568,0.40834045,-1.2997131,0.27890015,2.3266633,1.1475763,0.15887386
1570726805,0.027526855,-8.10437,1.3652954,0.041885376,0.046783447,-0.021499634,2.8122568,1.7218533,0.29894805
1570726805,-3.7984009,-9.051285,2.8987732,-0.018829346,-0.52420044,-0.18235779,-0.4036634,0.85690594,2.106123
1570726805,-3.7984009,-9.051285,2.8987732,-0.018829346,-0.52420044,-0.18235779,-0.4036634,0.85690594,2.106123
1570726805,-2.9460602,-12.001541,4.5358124,0.7524109,-0.41661072,-0.12376404,-0.20157552,-1.1788607,2.9416971
1570726805,-2.9460602,-12.001541,4.5358124,0.7524109,-0.41661072,-0.12376404,-0.20157552,-1.1788607,2.9416971
1570726805,-0.13227844,-16.084244,8.143875,1.7164764,-0.42938232,-0.011917114,3.0472858,-6.2595844,6.288929
1570726805,-0.13227844,-16.084244,8.143875,1.7164764,-0.42938232,-0.011917114,3.0472858,-6.2595844,6.288929
1570726805,-4.3113556,-16.002243,3.0376434,2.4994507,-1.0152893,0.20539856,-1.273612,-6.4185896,0.9739711
1570726805,-7.5363464,-12.180496,2.3301544,1.2552185,-0.75109863,0.11911011,-5.583561,-4.047185,-1.8906765
1570726805,-1.1587982,-7.613556,-0.96784973,0.38490295,0.54959106,0.18835449,1.1765676,1.4006586,-4.6459355
1570726805,-0.10952759,-6.811508,-1.1396332,0.051467896,0.42921448,0.013656616,2.3205485,2.2660227,-5.254106
1570726805,-1.9345093,-6.4416046,-0.44711304,-0.6292267,-0.44537354,-0.34854126,0.92866087,2.9108,-4.492284
1570726805,-2.1685486,-6.04776,-0.5105591,-1.1203156,-0.7777252,-0.4625244,0.47453547,3.4234705,-4.382759
1570726805,-2.9424744,-5.0493774,1.450882,-1.2268372,-0.7159424,-0.3080597,-0.44660354,4.3232574,-2.808338
1570726805,-2.1242523,-4.944626,2.33255,-1.0585327,-0.38571167,0.044540405,-0.15671349,4.7757864,-1.0420897
1570726805,-1.012146,-5.6987915,2.4247284,-0.89341736,-0.1407013,0.3108673,1.1211712,4.1118946,-0.48838067
1570726805,-0.2633667,-8.6753845,3.4135284,-0.8529358,0.67315674,0.3928833,1.9240727,1.6429148,0.34555078
1570726805,1.1103058,-9.64444,4.384384,-0.9147186,2.3275146,0.0030059814,3.3992755,0.16667557,1.9384935
1570726805,-1.9243469,-9.242813,2.9257202,-1.1863708,1.5211182,-0.5136566,0.910275,0.608037,1.7468479
1570726805,-1.9243469,-9.242813,2.9257202,-1.1863708,1.5211182,-0.5136566,0.910275,0.608037,1.7468479
1570726805,-7.3023224,-17.00122,6.210556,-0.24253845,-1.25177,-0.57650757,-4.2380104,-5.600546,5.127105
1570726805,-7.3023224,-17.00122,6.210556,-0.24253845,-1.25177,-0.57650757,-4.2380104,-5.600546,5.127105
1570726805,-6.027405,-13.850464,-0.24301147,-0.07423401,-0.027786255,-0.042800903,-4.073662,-4.6530447,-1.0310023
1570726805,-6.4739227,-12.970581,1.2114716,0.0046081543,-0.4421692,-0.27609253,-4.446459,-2.8509045,-1.117341
1570726806,0.030532837,-11.160568,-0.042495728,1.8112946,-0.28024292,0.7433624,1.7312288,-0.89158344,-1.6415915
1570726806,0.030532837,-11.160568,-0.042495728,1.8112946,-0.28024292,0.7433624,1.7312288,-0.89158344,-1.6415915
1570726806,1.9237366,-12.897568,-3.751114,-1.0830383,1.4188538,-0.27183533,4.894685,-2.7103243,-5.123398
1570726806,1.9237366,-12.897568,-3.751114,-1.0830383,1.4188538,-0.27183533,4.894685,-2.7103243,-5.123398
1570726806,-4.268265,-9.434952,4.6028595,-1.3237762,-0.50076294,-0.6042023,-1.5052497,0.58322334,4.508873
1570726806,-4.4256744,-9.247604,4.522049,-1.2524109,-0.49969482,-0.5679779,-2.0598054,0.8335428,4.4365296
1570726806,-4.38797,-7.624939,3.3878021,-0.76664734,-0.4890442,-0.20365906,-2.547107,2.425599,3.455943
1570726806,-1.5059509,-9.114731,6.411072,-0.2531891,0.06808472,0.4621277,0.09520292,1.8263836,5.6688833
1570726806,0.37109375,-8.957901,0.9612732,0.6288452,-1.570282,0.24055481,2.9345899,0.7220154,1.7294936
1570726806,0.3070526,-8.957901,0.9612732,0.6288452,-1.570282,0.24055481,2.9345899,0.7220154,1.7294936
1570726806,-0.99838257,-7.1993713,1.6729431,0.41578674,-1.4147644,-0.21751404,1.5039957,3.2640553,0.36594337
1570726806,-1.3126221,-7.503433,2.1601715,0.40194702,-1.3210144,-0.22177124,1.5039957,3.2640553,0.36594337
1570726806,-3.351883,-9.263168,0.6793518,0.51272583,-0.40701294,0.112716675,-1.0959616,0.97800446,0.5759072
1570726806,-1.2366028,-10.775696,2.3912048,0.36039734,-0.6967621,0.4312439,0.66484547,-0.31595516,0.28207338
1570726806,1.2874756,-12.35289,5.031418,0.58836365,0.28007507,0.42803955,2.8661923,-2.147686,3.2351513
1570726806,0.5351105,-16.816269,9.713272,1.8485718,-0.6243286,0.04135132,3.0997038,-6.7330446,6.424114
1570726806,0.4303589,-16.851593,10.156204,1.897583,-0.4389801,0.034957886,3.0997038,-6.7330446,6.424114
1570726806,-8.325836,-12.515686,1.5131378,1.8784027,-0.9481659,-0.21751404,-6.2900114,-4.395541,-2.3367424
1570726806,-8.0421295,-11.971603,1.7250214,1.8485718,-1.0216675,-0.17277527,-6.1880064,-3.1396751,-2.335765
1570726806,-1.7866669,-9.442734,0.32382202,0.5042114,0.49952698,0.27464294,0.16056585,-0.07594681,-4.3491197
1570726806,-1.7866669,-9.442734,0.32382202,0.5042114,0.49952698,0.27464294,0.16056585,-0.07594681,-4.3491197
1570726806,-2.008728,-6.5643005,0.37109375,-0.72509766,-0.41340637,-0.24732971,0.25247455,2.8600426,-4.0048056
1570726806,-2.008728,-6.5643005,0.37109375,-0.72509766,-0.41340637,-0.24732971,0.25247455,2.8600426,-4.0048056
1570726806,-1.6382294,-4.8434753,0.5237274,-1.3845062,-0.20568848,0.04135132,0.5006714,4.8061523,-3.3172
1570726806,-1.6382294,-4.8434753,0.5237274,-1.3845062,-0.20568848,0.04135132,0.5006714,4.8061523,-3.3172
1570726806,-0.79966736,-6.728897,2.5354614,-0.8497467,1.024704,0.67518616,0.9076488,3.910181,-0.78915834
1570726806,-0.79966736,-6.728897,2.5354614,-0.8497467,1.024704,0.67518616,0.9076488,3.910181,-0.78915834
1570726806,1.2186432,-9.120117,1.3305817,-1.0979462,3.560028,-0.16850281,3.815581,0.8275614,-0.7596204
1570726806,-3.5086975,-11.396393,8.419815,-0.64308167,1.2750397,-0.63082886,-0.884202,-2.3683996,8.274189
1570726806,-3.5086975,-11.396393,8.419815,-0.64308167,1.2750397,-0.63082886,-0.884202,-2.3683996,8.274189
1570726806,-7.380722,-12.33493,6.5726776,-0.777298,-0.98864746,-1.0260468,-4.3477325,-1.2048826,4.885673
1570726806,-7.380722,-12.33493,6.5726776,-0.777298,-0.98864746,-1.0260468,-4.3477325,-1.2048826,4.885673
1570726806,-7.965515,-13.311768,-2.9077606,0.0791626,-1.7780151,-0.21858215,-6.220664,-4.2542887,-5.175183
1570726806,-7.937378,-13.128006,-1.9716187,0.096221924,-1.856842,-0.20472717,-6.074907,-3.213705,-4.137592
1570726807,-1.6669617,-13.1818695,3.4045563,0.93670654,0.41430664,0.74443054,-0.31481242,-3.194871,2.809272
1570726807,-0.5524597,-14.098862,1.3706818,1.5268707,1.1173706,0.95747375,1.4793403,-2.970296,0.9508188
1570726807,1.9021912,-14.626175,-1.0408783,0.55960083,1.5573273,0.74975586,3.793451,-5.4468517,-3.2963986
1570726807,1.5292969,-11.826752,-3.16214,-0.33096313,0.2033844,-0.16850281,3.8732774,-2.0482025,-4.403404
1570726807,0.05267334,-11.041458,-1.5592194,-0.68356323,-0.60728455,-0.46678162,3.1652448,-0.9052563,-3.0141237
1570726807,-0.89723206,-9.837769,3.6637268,-2.0353851,-0.20887756,-0.49661255,1.1296451,0.45677185,1.9524649
1570726807,-0.89723206,-9.837769,3.6637268,-2.0353851,-0.20887756,-0.49661255,1.1296451,0.45677185,1.9524649
1570726807,-3.327942,-8.575439,9.055466,-0.76664734,0.5091095,-0.07902527,-0.9830891,1.6004667,9.566585
1570726807,-3.1645355,-6.728897,3.728363,0.4786377,-0.15348816,0.5132599,-1.6009018,3.3129778,4.6370354
1570726807,-0.74339294,-7.538742,0.6985016,0.4477539,-0.5167389,0.33110046,0.95946,2.5881643,1.3246218
1570726807,-0.74339294,-7.538742,0.6985016,0.4477539,-0.5167389,0.33110046,0.95946,2.5881643,1.3246218
1570726807,-0.62667847,-8.672394,0.43215942,0.3028717,-0.90130615,0.0594635,1.255194,1.3627605,-0.692628
1570726807,-0.62667847,-8.672394,0.43215942,0.3028717,-0.90130615,0.0594635,1.255194,1.3627605,-0.692628
1570726807,0.14125061,-9.300278,2.660553,0.42645264,0.024414062,0.19581604,2.4544625,1.2382984,1.4376526
1570726807,1.0247192,-15.150513,7.696762,1.0123444,0.31948853,0.62831116,2.9609506,-3.9382715,6.330324
1570726807,-3.7253723,-19.452286,4.353256,2.9628448,1.965332,0.12657166,-0.5782659,-8.79977,3.4044647
1570726807,-3.7253723,-19.452286,4.353256,2.9628448,1.965332,0.12657166,-0.5782659,-8.79977,3.4044647
1570726807,-7.0569153,-18.741806,-6.8522034,2.581482,-0.062942505,-0.18128967,-3.1399062,-9.68628,-8.118884
1570726807,-2.676117,-10.526703,-0.09336853,1.1124725,-0.76174927,0.14042664,-1.2718384,-1.4388943,-3.6741452
1570726807,-2.269699,-10.284897,-0.21128845,1.0528259,-0.6701355,0.14147949,-1.2718384,-1.4388943,-3.6741452
1570726807,0.581192,-8.1887665,-0.7733307,-0.22016907,-0.6253967,-0.52537537,2.9228554,1.3031425,-5.6899757
1570726807,-1.459259,-7.744049,1.1468201,-0.31497192,-0.52420044,-0.57969666,0.54033136,1.4951515,-3.1658902
1570726807,-1.6005249,-6.6834106,0.4159851,-0.8486786,-0.31860352,-0.48382568,0.345639,2.460166,-4.1282754
1570726807,-1.6711578,-5.0733185,-0.008377075,-1.0031433,0.063827515,-0.24627686,0.07950449,4.2678356,-3.8826826
1570726807,-1.1665802,-3.7972107,-0.17118835,-1.3706512,0.12667847,-0.057724,0.45993125,5.9393454,-4.0462213
1570726807,-1.8076172,-3.9528198,1.5185242,-1.3578644,0.122421265,0.12657166,-0.108459115,5.9392786,-1.712872
1570726807,-1.4682465,-5.462967,1.5706024,-1.077713,0.4302826,0.7103424,0.2950654,4.8806705,-1.2458789
1570726807,0.72424316,-8.325836,1.7333984,-0.68463135,2.1613312,0.0594635,3.045882,1.570157,-0.20874786
1570726807,-1.371872,-11.645401,0.12509155,-1.3237762,3.5301971,-0.5392151,1.0920854,-0.66965294,-1.6857758
1570726807,-3.1735077,-13.933655,17.422607,-2.6266022,5.5552673,-0.8204498,-0.50601315,-3.3815851,8.110035
1570726807,-4.8368835,-11.879425,2.1278534,-1.2342987,-2.89122,-0.618042,-3.2530956,-0.21040726,0.2499097
1570726807,-4.8847656,-12.330139,2.410965,-1.1853027,-2.9849548,-0.6564026,-3.0559258,-1.3580313,1.276983
1570726808,-4.9542084,-11.07019,0.18136597,-0.010314941,-2.9253082,-0.12057495,-5.1185155,-2.4081497,-1.3683178
1570726808,-4.9542084,-11.07019,0.18136597,-0.010314941,-2.9253082,-0.12057495,-5.1185155,-2.4081497,-1.3683178
1570726808,-2.1679535,-11.277283,1.9309235,1.5023651,-1.5351257,0.40248108,-0.81319714,-0.3220806,1.5512004
1570726808,-0.4554901,-19.612701,2.7682953,1.0208588,2.0686646,1.324997,-0.3966452,-9.280244,0.47026455
1570726808,3.6852722,-13.363235,1.1737518,-0.8273773,5.708664,0.72525024,5.910531,-3.9171457,0.078171134
1570726808,3.9821625,-9.958084,-3.2220001,-0.64308167,1.4880829,0.0019378662,6.872592,0.45124817,-3.539176
1570726808,-0.8457489,-9.31105,-2.4935608,-0.59194946,-3.688034,-0.9951477,1.4289651,0.72989845,-3.7121022
1570726808,-0.86849976,-9.170395,-2.25354,-0.66545105,-3.7753906,-0.9898224,1.4289651,0.72989845,-3.7121022
1570726808,-1.6537933,-8.7699585,1.6112976,-1.8958282,-3.38443,-0.7533417,-0.12543547,1.6738758,1.496463
1570726808,0.038909912,-8.392868,8.919601,-2.4423065,-1.3274078,-0.35812378,0.9829881,1.9807501,7.3438964
1570726808,-3.7457275,-10.924149,7.491455,1.740982,0.9650421,0.85946655,-2.249683,0.092123985,10.543283
1570726808,-0.6578064,-8.066666,-1.170166,1.0155334,0.096847534,0.34388733,1.3644426,2.207306,-0.8661395
1570726808,-0.6578064,-8.066666,-1.170166,1.0155334,0.096847534,0.34388733,1.3644426,2.207306,-0.8661395
1570726808,0.4620819,-8.810669,-1.50177,0.8749237,-0.70954895,0.15852356,2.1303463,1.6650753,-2.6939
1570726808,1.4742279,-9.856323,1.4323273,0.54255676,-0.10128784,0.18409729,3.7519646,0.7050085,-0.19063878
1570726808,1.4742279,-9.856323,1.4323273,0.54255676,-0.10128784,0.18409729,3.7519646,0.7050085,-0.19063878
1570726808,-1.2695312,-14.425659,6.0268097,1.3361816,1.137619,0.14468384,0.7194816,-3.703372,4.2290907
1570726808,-1.3652954,-14.754272,5.98909,1.4309845,1.1887512,0.15213013,0.7194816,-3.703372,4.2290907
1570726808,-0.75297546,-16.410461,5.6383514,2.838211,-0.082107544,0.089279175,1.5000172,-6.293936,2.50062
1570726808,-0.98101807,-16.410461,5.6383514,2.838211,-0.082107544,0.089279175,1.5000172,-6.293936,2.50062
1570726808,-5.7843933,-11.769897,0.61291504,2.375885,-0.43258667,-0.007659912,-3.9150267,-3.2638597,-4.599212
1570726808,-5.7843933,-11.769897,0.61291504,2.375885,-0.43258667,-0.007659912,-3.9150267,-3.2638597,-4.599212
1570726808,-0.26275635,-8.89386,1.6208801,0.26878357,-0.41340637,-0.35173035,2.0080774,0.21196938,-4.1478214
1570726808,-0.26275635,-8.89386,1.6208801,0.26878357,-0.41340637,-0.35173035,2.0080774,0.21196938,-4.1478214
1570726808,-1.2036896,-5.125992,-0.7769165,-0.8667908,-0.08850098,-0.2569275,0.6606492,3.6981754,-5.5079284
1570726808,-1.2036896,-5.125992,-0.7769165,-0.8667908,-0.08850098,-0.2569275,0.6606492,3.6981754,-5.5079284
1570726808,-2.2714996,-4.984726,-0.6069336,-1.9267273,-0.31967163,-0.13548279,-0.28653705,4.6371555,-5.506667
1570726808,-2.2888641,-5.067932,-0.36750793,-1.9608154,-0.31221008,-0.115249634,-0.5308658,4.4773016,-5.097829
1570726808,-1.3551178,-5.736511,2.032074,-1.6625366,0.8052521,0.94363403,0.251328,4.442629,-1.3802044
1570726808,-1.3551178,-5.736511,2.032074,-1.6625366,0.8052521,0.94363403,0.251328,4.442629,-1.3802044
1570726808,2.9646149,-10.163986,2.4289246,-1.269455,3.653778,-0.54348755,5.6685762,-0.63187504,0.6637871
1570726808,-1.9363098,-15.086456,9.198517,-2.8417816,4.704117,-1.1336365,2.019386,-3.154356,2.8760016
1570726808,-1.7818909,-8.373718,7.340622,-1.1522827,-2.7261047,-1.0366974,0.19792473,1.9532452,6.3424625
1570726808,-1.7818909,-8.373718,7.340622,-1.1522827,-2.7261047,-1.0366974,0.19792473,1.9532452,6.3424625
1570726809,-6.5756683,-14.125198,-0.6775665,-0.061447144,-0.9694824,-0.7970123,-4.6085196,-2.16788,-0.05728513
1570726809,-6.5756683,-14.125198,-0.6775665,-0.061447144,-0.9694824,-0.7970123,-4.6085196,-2.16788,-0.05728513
1570726809,-5.636551,-11.757324,3.5583801,-0.54293823,0.961853,-0.32510376,-4.8686476,-1.3277063,3.1371782
1570726809,-5.636551,-11.757324,3.5583801,-0.54293823,0.961853,-0.32510376,-4.8686476,-1.3277063,3.1371782
1570726809,2.1613617,-11.215637,4.225174,1.2115479,0.86491394,0.6719818,3.6924624,-0.89539146,3.19784
1570726809,2.0853424,-11.240784,3.8259277,1.1945038,1.1685028,0.6496124,3.6924624,-0.89539146,3.19784
1570726809,5.6940155,-13.612839,-5.2564697,-0.29367065,1.1493378,-0.09500122,7.637273,-4.0815783,-7.4101963
1570726809,5.6161957,-13.051392,-5.0655365,-0.378891,0.9554596,-0.18554688,7.637273,-4.0815783,-7.4101963
1570726809,-2.0027466,-9.986221,-1.2138672,-2.2814484,-0.86294556,-1.3722534,-0.48537648,0.55279255,-2.239184
1570726809,-2.0967255,-10.005371,-1.1240845,-2.3656158,-0.8746643,-1.3616028,-0.48537648,0.55279255,-2.239184
1570726809,-9.689331,-9.05368,19.19252,-1.3227234,0.8638458,0.20327759,-9.372458,1.0083342,20.265903
1570726809,-9.102753,-8.707108,18.14685,-0.9360199,0.9565277,0.37265015,-9.372458,1.0083342,20.265903
1570726809,-0.50816345,-8.069656,2.9275055,0.58517456,-1.8802795,0.99476624,-0.64687717,2.8913183,1.962801
1570726809,1.3186035,-8.71788,3.8923798,0.49142456,-2.4161072,0.8711853,1.4347788,2.204751,3.558914
1570726809,2.05542,-8.435364,1.8872223,0.71939087,-2.145523,0.20220947,3.938023,1.6656351,1.9713312
1570726809,1.6238708,-6.6271515,1.6687622,1.1316528,-0.16093445,0.43443298,2.9654815,3.6011333,1.2371095
1570726809,1.2162476,-7.083252,1.028305,1.118866,0.098983765,0.3896942,2.9555795,3.5016737,0.49499768
1570726809,-0.5805969,-8.5125885,-1.869278,0.76519775,0.20445251,0.28422546,0.974383,2.18567,-2.3864636
1570726809,0.4052124,-11.335953,3.5045166,0.03337097,-0.12365723,0.09994507,1.5849947,-1.020525,0.36684024
1570726809,0.53330994,-12.403168,7.5920105,0.36679077,-0.48051453,0.049865723,2.3576407,-1.5983229,5.333188
1570726809,-1.4838104,-15.802322,7.8404083,2.4461823,-0.37825012,-0.20791626,1.5628576,-4.590232,5.0915155
1570726809,-4.9565887,-19.612701,10.357315,3.062973,0.6561127,-0.21751404,-2.3966513,-9.459302,7.609787
1570726809,-9.904816,-19.612701,-0.3615265,3.348465,-1.122879,-0.32296753,-7.9594536,-9.661315,-4.524565
1570726809,-6.016632,-12.840698,1.1970978,1.8272705,-1.9165039,-0.2846222,-5.627968,-3.6452665,-4.536961
1570726809,-0.30645752,-9.300873,-0.4925995,0.33589172,-0.6008911,-0.4295044,1.7727109,0.024334908,-5.298458
1570726809,-2.4223328,-7.4250183,0.5321045,-0.046524048,-0.68292236,-0.33894348,-1.3982635,1.2645788,-4.4802637
1570726809,-2.6503754,-3.7900238,-0.81103516,-0.9360199,-0.29623413,0.21179199,-2.1342616,5.449236,-5.6692333
1570726809,-2.6503754,-3.7900238,-0.81103516,-0.9360199,-0.29623413,0.21179199,-2.1342616,5.449236,-5.6692333
1570726809,-0.20051575,-4.1102448,-1.067215,-1.6912994,-0.45921326,0.4940796,0.6194633,5.5696964,-4.9717574
1570726809,-0.5309143,-3.5631714,-0.039505005,-1.9000854,-0.3686676,0.48023987,0.61787975,6.0284243,-3.9969094
1570726809,-1.7926636,-4.217987,1.0636292,-1.4388275,0.27368164,0.6922302,-0.66390336,5.915226,-1.7547693
1570726809,2.031479,-10.347733,0.67337036,-0.9243164,2.3275146,-0.3645172,3.8628895,-0.2916422,-1.6089356
1570726809,1.9309235,-10.329788,0.5596466,-0.9243164,2.3275146,-0.3645172,3.664862,-0.3449726,-1.6832149
1570726810,-0.32980347,-11.320984,5.7586517,-2.60849,-5.3860626,-1.9325867,-0.5909905,-1.8312464,4.1815863
1570726810,-0.32980347,-11.320984,5.7586517,-2.60849,-5.3860626,-1.9325867,-0.5909905,-1.8312464,4.1815863
1570726810,-6.8983,-15.969925,8.353363,-0.73043823,-3.2534027,-1.3765106,-4.8916297,-4.103383,12.225424
1570726810,-6.8983,-15.969925,8.353363,-0.73043823,-3.2534027,-1.3765106,-4.8916297,-4.103383,12.225424
1570726810,-7.72908,-12.07576,1.3186035,-0.13388062,-1.0802612,-0.17277527,-8.387709,-1.004837,-0.39291713
1570726810,-7.72908,-12.07576,1.3186035,-0.13388062,-1.0802612,-0.17277527,-8.387709,-1.004837,-0.39291713
1570726810,-0.18614197,-18.902817,0.04309082,1.2019653,-1.1686859,0.52072144,-1.0226417,-8.972351,-0.39840016
1570726810,-0.18614197,-18.902817,0.04309082,1.2019653,-1.1686859,0.52072144,-1.0226417,-8.972351,-0.39840016
1570726810,1.9985657,-14.381378,0.5422821,0.98783875,-0.1875763,-0.1365509,1.9527378,-4.2932568,0.09832689
1570726810,2.020111,-12.019485,-4.9224854,0.43710327,1.264389,-0.41778564,2.122346,-1.7726135,-3.2004495
1570726810,1.2952576,-7.795517,-8.538315,-1.429245,-1.7140961,0.22244263,1.1146677,1.8915491,-8.590822
1570726810,0.12509155,-7.502823,-8.847168,-1.5975494,-6.333084,-0.09288025,0.26538515,3.4506998,-8.975088
1570726810,-4.0886993,-9.856934,-1.1593933,-1.4207153,-6.614319,-0.98342896,-3.946119,0.9890318,-1.1588682
1570726810,-4.0886993,-9.856934,-1.1593933,-1.4207153,-6.614319,-0.98342896,-3.946119,0.9890318,-1.1588682
1570726810,1.8477325,-10.050858,1.1240845,0.75561523,-2.8475342,-0.0811615,1.0482715,0.42730045,2.7886467
1570726810,1.8477325,-10.050858,1.1240845,0.75561523,-2.8475342,-0.0811615,1.0482715,0.42730045,2.7886467
1570726810,10.049667,-11.352707,-7.6698303,-0.53549194,-0.20780945,0.112716675,10.524785,-1.0659342,-6.3735886
1570726810,10.005966,-11.080963,-7.558502,-0.7549286,-0.29623413,0.08609009,10.524785,-1.0659342,-6.3735886
1570726810,6.5044403,-9.03093,-4.7848053,-2.7224731,-1.5777435,0.05732727,8.020824,1.3751993,-5.2671666
1570726810,4.4448395,-10.766129,1.5562286,-3.4383392,-3.0392914,-0.40393066,5.1409507,-0.089001656,3.542385
1570726810,1.6765442,-12.548004,2.6156616,-2.8034363,-3.4046783,-0.8097992,2.8904555,-2.1553745,5.7027006
1570726810,-0.47045898,-11.5634,6.46434,0.8845062,-1.3902588,-0.05026245,0.3464167,-1.6513691,10.759886
1570726810,-0.17956543,-11.6753235,4.7016144,1.0283203,-0.9705353,0.0594635,0.3464167,-1.6513691,10.759886
1570726810,1.3856506,-11.151596,-1.9794006,0.86320496,0.2310791,0.35879517,2.0904918,-1.3769321,2.5962267
1570726810,5.2870026,-12.770081,1.7495575,0.42645264,-0.33244324,0.19367981,5.899375,-1.9221268,4.4117146
1570726810,5.2870026,-12.770081,1.7495575,0.42645264,-0.33244324,0.19367981,5.899375,-1.9221268,4.4117146
1570726810,-2.0488434,-12.515686,-0.34117126,-0.05718994,-1.1793365,-1.8558807,-0.49154678,-2.681778,0.98062205
1570726810,-2.0488434,-12.515686,-0.34117126,-0.05718994,-1.1793365,-1.8558807,-1.4712156,-2.2961254,2.025501
1570726810,-7.2472534,-15.355804,2.992157,4.794037,1.2718353,0.95321655,-7.757701,-4.547372,5.626314
1570726810,-7.341217,-17.681778,-9.009979,4.7950897,0.8340149,1.8682709,-6.4890723,-6.2653475,-4.010621
1570726810,-13.993515,-10.3980255,-7.711731,0.26771545,-5.375412,-1.5267181,-11.524187,2.2989588,-12.385062
1570726810,-13.993515,-10.3980255,-7.711731,0.26771545,-5.375412,-1.5267181,-11.524187,2.2989588,-12.385062
1570726810,3.1531677,-11.708847,-4.1198273,2.155365,1.0225677,1.4006348,0.26541883,-0.99977016,-4.5468197
1570726810,3.1531677,-11.708847,-4.1198273,2.155365,1.0225677,1.4006348,0.26541883,-0.99977016,-4.5468197
1570726811,1.5885468,-8.404251,2.561798,1.7942505,-1.5095673,-0.19726562,2.3542812,1.3803463,-0.0019426346
1570726811,1.5885468,-8.404251,2.561798,1.7942505,-1.5095673,-0.19726562,2.3542812,1.3803463,-0.0019426346
1570726811,-1.4879913,-5.8526306,0.9917908,0.63098145,0.7424011,-0.016174316,-0.55663764,4.137102,-2.910771
1570726811,-1.4879913,-5.8526306,0.9917908,0.63098145,0.7424011,-0.016174316,-0.55663764,4.137102,-2.910771
1570726811,-0.9247589,-4.7147827,-0.63027954,-0.6824951,0.37701416,0.23309326,-0.13860983,5.1872377,-4.5164785
1570726811,-1.2503662,-7.4250183,1.8100128,-1.6241913,-1.364685,0.08076477,0.0016885996,3.0779524,-2.6348333
1570726811,-1.2503662,-7.4250183,1.8100128,-1.6241913,-1.364685,0.08076477,0.0016885996,3.0779524,-2.6348333
1570726811,-0.80384827,-13.9133,10.562027,-1.9150085,-2.2477875,0.07543945,-0.6549108,-2.9020271,7.8826866
1570726811,-0.6799469,-13.9133,10.562027,-1.9150085,-2.2477875,0.07543945,-0.6549108,-2.9020271,7.8826866
1570726811,0.636261,-10.951675,5.7981567,-0.4076538,-0.15135193,-0.023635864,1.2503362,-1.1832275,5.142771
1570726811,0.636261,-10.951675,5.7981567,-0.4076538,-0.15135193,-0.023635864,1.2503362,-1.1832275,5.142771
1570726811,-4.340683,-19.322403,4.490326,-1.4644012,-1.2453766,1.1747894,-5.3482046,-9.019519,2.5873852
1570726811,-4.340683,-19.322403,4.490326,-1.4644012,-1.2453766,1.1747894,-5.3482046,-9.019519,2.5873852
1570726811,-6.8809357,-4.499298,-2.771881,0.28689575,-2.6078491,-0.12696838,-6.3279943,6.23934,-3.7599533
1570726811,-6.910858,-4.499298,-2.771881,0.28689575,-2.6078491,-0.12696838,-6.3279943,6.23934,-3.7599533
1570726811,-3.0663757,-8.288132,-2.2403717,-0.46731567,-3.958603,1.4304504,-2.7351196,2.830741,-3.7620318
1570726811,-3.0663757,-8.288132,-2.2403717,-0.46731567,-3.958603,1.4304504,-2.7351196,2.830741,-3.7620318
1570726811,3.1657257,-12.416931,-0.98402405,-0.030548096,4.597595,0.14787292,3.5859523,-2.8490753,-1.9314642
1570726811,3.1657257,-12.416931,-0.98402405,-0.030548096,4.597595,0.14787292,3.5859523,-2.8490753,-1.9314642
1570726811,7.4968414,-10.293274,3.095108,-3.5640411,-4.833191,0.14894104,7.623402,-0.96965504,-0.3722721
1570726811,7.4968414,-10.293274,3.095108,-3.5640411,-4.833191,0.14894104,7.623402,-0.96965504,-0.3722721
1570726811,0.3651123,-10.567413,14.522629,-0.31497192,-3.9607391,-1.5522919,2.734973,0.74922276,14.829232
1570726811,0.3651123,-10.567413,14.522629,-0.31497192,-3.9607391,-1.5522919,2.734973,0.74922276,14.829232
1570726811,0.39923096,-8.149261,6.372162,1.5492401,0.5698242,-0.4412079,0.065212786,1.8243599,8.738232
1570726811,0.6368561,-6.815689,0.048477173,1.7974396,-1.1708069,-0.5818329,1.8833854,3.3523521,0.34619808
1570726811,-2.1134796,-6.5912323,-1.359314,1.6791992,-1.4531097,-0.4060669,-1.7115496,4.098218,-1.9638249
1570726811,-3.0334473,-7.934387,-1.0965424,0.9580078,-1.488266,0.15640259,-2.9138453,2.6895895,-2.4575913
1570726811,-4.9589844,-11.450272,-1.280304,-0.2457428,-0.4155426,0.4823761,-4.3294873,-0.38197803,-2.8486805
1570726811,-4.9589844,-11.450272,-1.280304,-0.2457428,-0.4155426,0.4823761,-4.3294873,-0.38197803,-2.8486805
1570726811,1.8746643,-10.864288,4.4244843,-0.5599823,0.8340149,0.95747375,0.7413142,-0.7939396,2.825724
1570726811,8.240845,-11.24617,5.506668,0.6650696,-0.20568848,0.3460083,8.715778,-0.5001898,5.0778804
1570726811,5.331894,-17.358566,7.266403,1.3873138,0.108566284,0.100997925,6.112345,-6.409278,4.4223833
1570726811,-0.33039856,-19.315826,11.228806,2.8009186,2.0196533,-0.7107239,1.5306925,-8.701494,9.958806
1570726812,-8.08342,-14.000687,-3.1334076,2.0190125,-1.9143677,-0.40393066,-8.090915,-4.94108,-7.8254786
1570726812,-8.08342,-14.000687,-3.1334076,2.0190125,-1.9143677,-0.40393066,-8.090915,-4.94108,-7.8254786
1570726812,-5.661087,-8.779541,-0.7757263,0.38276672,0.17248535,-0.19087219,-6.5199413,0.5673704,-4.373036
1570726812,-5.661087,-8.779541,-0.7757263,0.38276672,0.17248535,-0.19087219,-6.5199413,0.5673704,-4.373036
1570726812,-0.296875,-6.9916687,-0.62368774,-1.173584,-1.0504303,-0.3368225,-0.098959744,2.128501,-4.6248775
1570726812,-0.296875,-6.9916687,-0.62368774,-1.173584,-1.0504303,-0.3368225,-0.098959744,2.128501,-4.6248775
1570726812,-1.9464874,-4.889557,0.8882446,-1.4505463,-0.92900085,-0.15678406,-1.9639697,4.69777,-3.035378
1570726812,-2.8353271,-3.925888,3.233368,-1.2619934,-0.36547852,0.40673828,-3.1698887,5.9656544,-0.41530466
1570726812,-1.6753387,-5.0068817,3.119049,-0.76771545,1.0087128,1.1375122,-2.037,5.5650463,0.4835863
1570726812,0.7116699,-8.074448,3.2477417,-0.86572266,3.3427124,1.5764008,0.6325395,2.743433,0.6513319
1570726812,2.1685486,-12.544418,2.7120361,-2.2345886,4.0756226,-0.0385437,4.268983,-1.478797,0.05649507
1570726812,-1.0696106,-9.272736,5.491699,-0.76664734,-2.1327515,-0.6244354,0.20713043,0.47068977,4.1526594
1570726812,-1.161789,-8.957901,5.5683136,-0.7261658,-2.239273,-0.6361542,-0.0317204,0.9481888,4.440635
1570726812,-1.9375153,-9.906006,7.242462,-0.6217804,-2.2073212,-0.7725067,-0.932295,1.3172989,5.963077
1570726812,-5.312729,-17.432785,1.4969788,0.38702393,0.6113739,-0.17170715,-4.8938227,-6.739128,1.4041815
1570726812,-5.312729,-17.432785,1.4969788,0.38702393,0.6113739,-0.17170715,-4.8938227,-6.739128,1.4041815
1570726812,-3.2088318,-13.560165,-2.0350647,0.28263855,-0.23231506,0.30340576,-3.180768,-3.9182596,-3.0738664
1570726812,-2.3762512,-11.50473,-0.8714905,0.27198792,-0.83631897,-0.022567749,-1.5592837,0.13729095,-1.5193225
1570726812,1.5466614,-12.396576,3.4925385,-0.81352234,-0.4102173,0.39395142,1.4293722,-3.2691193,0.9837139
1570726812,1.3162079,-9.334991,0.60095215,-0.2766266,2.124054,-0.35386658,2.1947432,1.417592,0.5436054
1570726812,1.3162079,-9.334991,0.60095215,-0.2766266,2.124054,-0.35386658,2.1947432,1.417592,0.5436054
1570726812,1.0061646,-8.868729,-2.33255,-0.54933167,0.7818146,-0.41351318,2.0197954,1.6495705,-3.0380545
1570726812,0.08918762,-8.890869,-1.2294159,-1.1703796,-1.1772003,-0.29847717,0.7290071,1.7031536,-1.6223906
1570726812,-0.058059692,-8.79689,-1.1474152,-1.2129974,-1.2485809,-0.30166626,0.51311564,1.7407188,-1.3525414
1570726812,0.18075562,-9.200912,6.6067963,-2.2921143,-2.5151825,-0.12483215,-0.22483295,2.2606869,3.075345
1570726812,5.546173,-7.9110413,19.579788,-0.48008728,-5.2742157,-0.2856903,4.614595,1.8928814,20.646378
1570726812,0.9151764,-8.128906,14.4496,3.000122,-5.492584,-1.1549377,3.5639467,3.386753,18.111404
1570726812,-2.4732056,-8.919006,-3.9288788,1.8826599,0.2672882,0.04135132,-2.4253006,1.2893848,-4.5511303
1570726812,-1.617279,-9.910202,-2.4325104,1.3937073,0.19273376,0.33642578,-1.4763108,0.52954865,-3.7565627
1570726812,-0.40940857,-9.11174,-0.43933105,0.08769226,1.6329651,0.82858276,0.041116416,2.0068092,-2.4651985
1570726812,-0.10475159,-10.324402,0.17118835,-0.10192871,1.868393,0.9425659,0.35360205,0.7285452,-1.513522
1570726812,10.282501,-16.084244,11.248566,-0.7261658,-0.60409546,0.27996826,11.41425,-6.1011267,6.584382
1570726812,6.8360443,-14.3472595,17.105377,1.6419067,-1.6373901,-0.37303162,8.733889,-4.222164,16.37549
1570726812,-3.257904,-18.429367,7.0227966,2.5899963,2.1368408,-1.0377655,-2.2777772,-8.030094,4.990878
1570726813,-6.3589935,-17.761978,1.7968445,2.8318176,1.7032776,-0.62338257,-5.2607145,-7.5786543,0.42224884
1570726813,-6.496063,-16.26561,0.18495178,2.854187,-0.8512268,-0.13868713,-5.9751835,-6.7149143,-3.5021172
1570726813,-3.81456,-12.704834,-1.2563629,2.0339355,0.7871399,0.11166382,-4.049529,-3.2343273,-4.5452023
1570726813,1.648407,-8.908829,-1.1492157,-0.04119873,-0.36013794,-0.585022,1.7747331,0.31585884,-5.110564
1570726813,1.6286621,-8.753799,-1.8997955,-0.33840942,-0.42938232,-0.711792,2.176308,0.7815056,-6.30072
1570726813,-0.0909729,-5.819107,-0.84695435,-1.6018219,-0.58917236,-0.90567017,0.05970539,3.5011082,-4.684787
1570726813,-0.83976746,-4.4939117,0.3214264,-1.7307129,-0.38038635,-0.6478729,-0.8855982,4.98038,-3.9341395
1570726813,-1.6609802,-3.7481232,0.6506195,-1.841507,-0.022460938,-0.10246277,-1.8762703,6.310334,-2.7768776
1570726813,-2.1876984,-4.1611176,1.9201508,-1.6944885,-0.23977661,0.52178955,-2.5973563,6.2265415,-0.89255977
1570726813,-0.18914795,-11.270706,6.8881226,-0.7048645,1.7789001,1.4432373,-1.424346,0.9909086,3.3459592
1570726813,0.35673523,-11.742355,7.147293,-0.6302948,2.1986237,1.344162,-0.19503215,-0.6130314,4.7217336
1570726813,-0.9397278,-10.950485,2.542038,-1.7605438,6.392563,0.05307007,0.25187647,-0.48090363,0.8753921
1570726813,-2.9508514,-12.612061,11.646591,-1.7797089,5.554199,-0.12590027,-2.97861,-2.2209988,9.907478
1570726813,-0.40881348,-8.36235,4.5274353,-0.18821716,-2.8699036,-0.3549347,0.016616464,2.4788952,2.994732
1570726813,-5.767029,-18.511368,4.6148224,-0.24253845,-0.9407196,-0.21218872,-5.208699,-7.295703,3.149441
1570726813,-5.767029,-18.511368,4.6148224,-0.24253845,-0.9407196,-0.21218872,-5.208699,-7.295703,3.149441
1570726813,-3.178299,-13.527237,-1.1486206,1.0442963,-1.9900055,0.21925354,-2.5701008,-2.401515,-2.487076
1570726813,-3.178299,-13.527237,-1.1486206,1.0442963,-1.9900055,0.21925354,-2.5701008,-2.401515,-2.487076
1570726813,0.44711304,-14.381973,3.225586,0.9750519,-0.25468445,0.57611084,-0.2133764,-5.2779675,1.2277896
1570726813,2.4438782,-12.009323,-4.578903,-0.09553528,1.9504089,0.016845703,2.8172197,-1.6550837,-5.968206
1570726813,2.4438782,-12.009323,-4.578903,-0.09553528,1.9504089,0.016845703,2.8172197,-1.6550837,-5.968206
1570726813,1.4317322,-8.881287,-1.9159546,-0.9413605,-0.89598083,-0.3357544,2.4758468,1.6331615,-3.0730329
1570726813,1.3239899,-8.854355,-1.8315582,-0.9850311,-0.9716034,-0.34640503,2.1994905,1.7325602,-3.0859928
1570726813,0.14125061,-7.7177124,0.8960266,-1.3184509,-1.1271362,-0.27929688,0.7498478,2.7388592,0.42237955
1570726813,0.14125061,-7.7177124,0.8960266,-1.3184509,-1.1271362,-0.27929688,0.7498478,2.7388592,0.42237955
1570726813,1.2150574,-8.218094,19.294876,-1.6604004,-1.8461914,0.18835449,0.38233897,2.3166943,14.294961
1570726813,1.7058716,-8.143875,19.612701,-1.2406921,-2.0038452,0.17131042,1.3367575,2.3598337,19.10044
1570726813,0.5237274,-8.489838,-1.2192535,1.6994324,0.16929626,0.38330078,0.8004438,1.2564316,-1.0553598
1570726813,0.5237274,-8.489838,-1.2192535,1.6994324,0.16929626,0.38330078,0.8004438,1.2564316,-1.0553598
1570726813,0.5686188,-7.423218,-1.7717133,0.5436249,1.9259186,0.32791138,1.470087,3.2566967,-2.765847
1570726813,0.5686188,-7.423218,-1.7717133,0.5436249,1.9259186,0.32791138,1.470087,3.2566967,-2.765847
1570726813,4.4406433,-14.514847,7.486664,0.61286926,-0.9172821,-0.07369995,5.508209,-3.6243095,4.595214
1570726813,4.4406433,-14.514847,7.486664,0.61286926,-0.9172821,-0.07369995,5.508209,-3.6243095,4.595214
1570726814,0.6290741,-16.300919,10.5290985,2.2278137,1.1759644,-0.36984253,1.3480623,-4.8195086,7.471657
1570726814,0.6290741,-16.300919,10.5290985,2.2278137,1.1759644,-0.36984253,1.3480623,-4.8195086,7.471657
1570726814,-7.8134766,-15.158295,2.0853424,2.4472504,-1.6299438,-0.44760132,-7.681728,-6.474909,-2.2485523
1570726814,-7.371155,-15.158295,2.0853424,2.4472504,-1.6299438,-0.44760132,-7.681728,-6.474909,-2.2485523
1570726814,3.2249908,-9.273941,1.7741089,0.5670624,0.33866882,-0.52537537,3.0683892,-0.22158241,-4.019903
1570726814,3.2249908,-9.273941,1.7741089,0.5670624,0.33866882,-0.52537537,3.0683892,-0.22158241,-4.019903
1570726814,-0.8750763,-5.723938,0.66978455,-0.6505432,0.39405823,-0.070495605,-1.0693386,3.50422,-4.337844
1570726814,-0.8750763,-5.723938,0.66978455,-0.6505432,0.39405823,-0.070495605,-1.0693386,3.50422,-4.337844
1570726814,-1.0067596,-4.4861298,-0.20649719,-1.715805,0.04145813,0.15000916,-0.87615687,5.3100967,-4.6889706
1570726814,-1.02771,-4.617218,-0.0688324,-1.7307129,0.06808472,0.15533447,-0.87615687,5.3100967,-4.6889706
1570726814,-1.2192535,-5.265442,0.73143005,-1.8564148,0.3642273,0.23416138,-0.9888162,4.702403,-3.4049037
1570726814,0.64105225,-11.809998,2.4181366,-2.0428314,1.2260284,1.039505,0.29667753,-0.15179253,-1.0483027
1570726814,1.514328,-12.673706,2.913147,-2.0481567,1.3730469,1.0075378,0.29667753,-0.15179253,-1.0483027
1570726814,-2.2834625,-10.73201,6.0393677,-2.8705444,1.8513489,-0.7309723,-1.473103,-0.34301662,4.6524067
1570726814,-2.222412,-10.621872,6.5331726,-2.7618866,1.6116638,-0.70965576,-1.473103,-0.34301662,4.6524067
1570726814,-3.640976,-10.581177,8.981247,-0.13494873,-3.145813,-0.64042664,-3.1586573,0.08450413,8.542055
1570726814,-3.640976,-10.581177,8.981247,-0.13494873,-3.145813,-0.64042664,-3.1586573,0.08450413,8.542055
1570726814,-7.4956512,-17.21312,9.526535,0.37850952,0.17034912,0.22669983,-6.166048,-5.885106,7.224821
1570726814,-7.4956512,-17.21312,9.526535,0.37850952,0.17034912,0.22669983,-6.166048,-5.885106,7.224821
1570726814,-2.7898407,-19.601929,-5.0338135,2.8722992,-2.223297,0.8946228,-2.2708209,-9.0303755,-6.236293
1570726814,-2.644394,-19.608505,-5.0811005,2.8254242,-2.206253,0.94789124,-2.2708209,-9.0303755,-6.236293
1570726814,2.545639,-14.323914,-0.15621948,1.3660126,-1.105835,0.7742462,1.5329702,-7.308564,-4.232005
1570726814,0.43814087,-11.569977,-3.4680023,-0.21377563,2.7706604,-0.017242432,1.2522278,-0.67008686,-4.6937094
1570726814,0.62727356,-11.890808,-3.9845428,-0.20419312,2.6609497,0.0594635,1.2522278,-0.67008686,-4.6937094
1570726814,-0.3645172,-10.661377,-0.6943207,-1.9192657,-2.0219574,-0.3922119,0.42568165,-0.050671577,-2.1977673
1570726814,-0.3645172,-10.661377,-0.6943207,-1.9192657,-2.0219574,-0.3922119,0.42568165,-0.050671577,-2.1977673
1570726814,-2.1152802,-8.303085,9.315247,-2.0289917,-1.314621,-0.36984253,-0.28894883,2.4459753,6.92278
1570726814,-2.6533813,-8.310272,10.269333,-1.9245911,-1.2070312,-0.3400116,-1.4257877,2.4038153,8.977213
1570726814,-4.570526,-8.4216,13.315353,-0.66012573,-0.49650574,0.14042664,-3.975792,2.283699,13.653878
1570726814,2.7898407,-7.941574,1.9776154,0.70448303,0.6955261,0.85095215,2.8357358,2.314354,1.8233306
1570726814,3.126831,-7.8966827,2.012329,0.706604,0.77223206,0.84988403,3.5669084,2.5909004,1.7364808
1570726814,3.4560242,-9.276932,1.5101471,0.40194702,0.16929626,0.11911011,5.6697216,1.0654078,0.77264315
1570726814,3.1118622,-9.1141205,1.6029205,0.3998108,0.08833313,0.093551636,4.9138713,1.1441393,0.8775912
1570726815,-0.76016235,-7.705139,4.3179474,1.1007538,-0.8799896,-0.03215027,0.69666755,2.8745852,3.1800144
1570726815,-0.85113525,-7.855377,4.5034943,1.1391144,-0.8746643,-0.023635864,0.69666755,2.8745852,3.1800144
1570726815,-1.4802094,-16.573257,8.330627,1.6823883,1.2452087,0.22351074,-0.6797924,-4.990835,6.9941187
1570726815,-0.6374512,-17.9236,-0.41659546,2.9074402,1.5434875,-0.27397156,1.7916877,-8.130171,-1.0237405
1570726815,-0.81941223,-17.645264,-1.4975739,2.9287567,1.2430725,-0.3038025,1.109907,-7.884449,-2.8274221
1570726815,-6.6900024,-14.692017,-0.205307,0.5553436,-2.876297,-0.8673248,-5.117976,-5.257819,-5.661299
1570726815,-6.756439,-14.3675995,0.5686188,0.45733643,-2.8379517,-0.84921265,-5.7175155,-4.827636,-4.388625
1570726815,0.14425659,-9.323624,-0.22445679,-0.7101898,-0.5028839,-0.4571991,-0.009262055,0.3745079,-3.6937535
1570726815,0.762558,-8.899246,-0.55426025,-0.857193,-0.38357544,-0.49980164,0.5961421,0.8509779,-4.047798
1570726815,-0.42018127,-5.032013,-0.1484375,-1.2129974,-0.9950409,-0.46891785,-0.46917197,4.192726,-3.2352982
1570726815,-2.6755219,-3.0418396,1.6711578,-1.2886353,-0.96520996,0.17770386,-2.967739,7.11675,-1.1256433
1570726815,-2.6755219,-3.0418396,1.6711578,-1.2886353,-0.96520996,0.17770386,-2.967739,7.11675,-1.1256433
1570726815,-2.067398,-2.4175415,1.6502075,-1.3791809,-0.5944977,0.47277832,-2.4167473,7.9781914,-0.45882392
1570726815,0.9181824,-10.65181,8.226471,-0.554657,2.6630707,1.3377838,-0.18462029,2.0726662,5.2158833
1570726815,1.3575134,-11.273697,8.408432,-0.42362976,3.1371155,1.2653351,1.0875449,0.14256191,6.612074
1570726815,0.33818054,-12.70842,4.604645,-1.492096,8.2482605,0.41099548,2.059163,-1.8920937,1.97202
1570726815,-1.6699524,-15.629944,-0.07601929,0.003540039,-4.115204,-0.6009979,-1.6542082,-4.198985,-1.3600266
1570726815,-1.6699524,-15.629944,-0.07601929,0.003540039,-4.115204,-0.6009979,-1.6542082,-4.198985,-1.3600266
1570726815,-14.9045105,-13.238144,16.135727,0.51272583,2.125122,-0.31871033,-10.014687,-2.061615,17.921677
1570726815,-14.9045105,-13.238144,16.135727,0.51272583,2.125122,-0.31871033,-10.014687,-2.061615,17.921677
1570726815,-0.30645752,-13.08371,-1.1875305,3.4347534,1.9642639,2.5127563,-0.70863414,-2.726489,-2.5466044
1570726815,8.586807,-14.919464,-10.093353,0.51379395,1.2835541,0.90740967,10.358178,-5.1485424,-13.406117
1570726815,6.581665,-12.410339,-2.2523499,-1.1458893,-0.33139038,-0.19087219,9.876444,-3.2753124,-7.3861403
1570726815,1.4790192,-11.250351,1.2623444,-2.3570862,-1.2698822,-0.8982086,3.2398534,-0.9471035,-0.63997173
1570726815,1.036087,-11.0785675,1.5885468,-2.3134155,-1.2592316,-0.9855652,2.9909477,-0.72504234,-0.11434579
1570726815,-1.5741882,-9.210495,13.7343445,-1.8329773,-1.029129,-0.25160217,0.25562823,0.7604761,9.811585
1570726815,-2.387024,-8.128906,15.438416,-0.9882202,-0.5913086,-0.091812134,-0.854926,1.8093319,14.871407
1570726815,-1.4389191,-5.420471,-0.039505005,-0.0017852783,0.7264252,0.18835449,-0.08872795,4.94751,-0.040683508
1570726815,-2.6785126,-6.617569,1.7717133,0.06425476,-0.5209961,0.17451477,-1.1853727,4.3946705,1.2009957
1570726815,-2.8383331,-6.9473724,2.039856,0.06425476,-0.5209961,0.17451477,-1.1853727,4.3946705,1.2009957
1570726815,1.0061646,-8.250412,7.929596,0.96014404,-0.20994568,0.4621277,1.8887625,1.7971544,7.882503
1570726815,1.2916718,-7.989456,6.707962,1.1135406,-0.12365723,0.45680237,2.3845787,2.1123924,7.4370418
1570726815,1.2605438,-9.615112,3.359665,2.0690765,0.35038757,0.5409546,2.9172738,1.6218443,2.8552372
1570726816,0.10594177,-19.612106,3.2549133,2.1362,-0.3633423,-0.13015747,2.213986,-9.410346,-0.106117725
1570726816,-1.7758942,-19.125488,3.6589355,2.4515076,-1.0419159,-0.35812378,0.7589841,-9.030545,1.3399422
1570726816,-6.62236,-15.292358,4.0886993,0.7353668,-2.750595,-0.6564026,-5.876618,-5.963419,-0.0016424656
1570726816,-6.62236,-15.292358,4.0886993,0.7353668,-2.750595,-0.6564026,-5.876618,-5.963419,-0.0016424656
1570726816,-2.7287903,-10.549454,1.0301056,0.2975464,-1.2091675,-0.2888794,-2.6475081,-0.886199,-2.4391775
1570726816,0.57221985,-8.747818,-0.07661438,-0.51737976,-0.58810425,-0.3410797,0.9498189,1.2302608,-3.9851122
1570726816,-1.4520874,-8.018188,0.9834137,-1.2790375,-0.2749176,-0.40711975,-1.1665978,1.7276535,-2.1587825
1570726816,-1.5185242,-8.018188,0.9834137,-1.2790375,-0.2749176,-0.40711975,-1.1665978,1.7276535,-2.1587825
1570726816,-2.099121,-4.9111023,0.70928955,-1.4175262,-0.25575256,0.45040894,-2.145221,5.3705654,-1.8309507
1570726816,-2.0644073,-4.8135376,0.7799072,-1.4047394,-0.26853943,0.47277832,-2.145221,5.3705654,-1.8309507
1570726816,-0.6775665,-6.6445007,3.2998047,-1.032959,0.72535706,-0.039611816,-0.23228669,3.8620481,1.9709215
1570726816,-0.79966736,-6.758835,3.2998047,-0.99887085,0.72535706,-0.039611816,-0.23228669,3.8620481,1.9709215
1570726816,-1.0061646,-9.029129,2.659958,-1.253479,2.6865082,-0.2846222,-0.8428973,1.7250662,1.4155724
1570726816,-1.3904266,-10.63385,3.095108,-1.4239197,3.3746796,-0.33468628,-0.69985604,0.77504444,1.9744565
1570726816,2.557602,-13.211807,6.7893524,-0.552536,-1.265625,-0.5903473,2.3884628,-3.2791767,6.9518104
1570726816,-0.2675476,-9.788101,11.495163,-0.047592163,-1.4754791,-0.92378235,0.51807386,1.2186279,12.234092
1570726816,-0.98402405,-10.114304,10.47464,0.0791626,-1.0791931,-0.8918152,0.51807386,1.2186279,12.234092
1570726816,-5.062546,-15.310913,-0.80804443,0.927124,0.2811432,-0.19407654,-5.25961,-4.624836,0.6159907
1570726816,-4.2862244,-15.81311,-4.116226,0.7971649,-0.83418274,0.43017578,-4.94394,-5.361493,-5.1727457
1570726816,-3.7098083,-12.664734,-3.0065155,0.99316406,-1.5500488,-0.14933777,-3.2319953,-1.3812819,-3.7565541
1570726816,-3.8672333,-16.851593,-1.0378876,0.08555603,-1.3210144,0.22457886,-4.1460595,-5.4865456,-2.9905548
1570726816,-3.8672333,-16.851593,-1.0378876,0.08555603,-1.3210144,0.22457886,-4.2007275,-6.0804405,-2.4665036
1570726816,-0.20889282,-12.556992,-0.8170166,-0.7879486,1.824707,-0.13122559,-0.17081001,-2.4372797,-1.4594041
1570726816,-0.2783203,-12.37323,-0.75057983,-0.78582764,1.8172607,-0.14401245,-0.31428266,-1.9498405,-1.7850617
1570726816,-0.18016052,-9.018356,-1.9279327,-0.6302948,-1.5809326,-0.34321594,-0.34811568,1.4769888,-2.4572432
1570726816,-0.18016052,-9.018356,-1.9279327,-0.6302948,-1.5809326,-0.34321594,-0.34811568,1.4769888,-2.4572432
1570726816,0.53330994,-8.520966,-3.8133698,-0.6824951,-4.320801,-0.23881531,-0.07305488,2.295413,-4.091409
1570726816,0.794281,-10.283691,0.31723022,-1.5155334,-3.9138641,0.100997925,0.47843137,0.88419247,-0.08409673
1570726816,0.794281,-10.283691,0.31723022,-1.5155334,-3.9138641,0.100997925,0.47843137,0.88419247,-0.08409673
1570726816,2.1056976,-10.407593,-0.047286987,-0.14666748,-1.4786682,0.12231445,1.7182992,0.2063818,0.9936615
1570726816,2.3570862,-10.199295,0.089782715,-0.09233093,-1.3870544,-0.082214355,2.1364622,0.44699955,1.0653538
1570726816,2.458847,-10.257355,0.21128845,-0.31497192,-1.2166138,0.023239136,2.1797543,0.44167042,1.1524454
1570726816,3.0687714,-10.933121,-1.5472565,-1.3855743,-1.0280609,0.4355011,2.7219722,-0.07478523,0.0031255484
1570726817,2.8963928,-11.432312,1.5532379,-1.6614685,-0.83631897,-0.04067993,3.0408206,-1.4094391,4.7004213
1570726817,2.8963928,-11.432312,1.5532379,-1.6614685,-0.83631897,-0.04067993,3.0408206,-1.4094391,4.7004213
1570726817,2.3924103,-10.735596,2.149994,-1.445221,-1.7918549,-0.23881531,2.703671,-0.5171318,4.9146357
1570726817,3.0903168,-15.290573,5.8131256,1.3660126,0.026550293,-0.4625244,3.1010363,-4.587413,9.81194
1570726817,3.0903168,-15.290573,5.8131256,1.3660126,0.026550293,-0.4625244,3.1010363,-4.587413,9.81194
1570726817,0.30885315,-11.827957,-2.2667084,1.309555,0.7658386,-0.99942017,0.5254514,-1.7627468,-0.36561036
1570726817,-0.08140564,-11.646591,-1.7130585,1.2445679,0.59646606,-0.97917175,0.022939473,-1.3794107,-0.1707635
1570726817,-9.026733,-14.176071,11.186905,1.7388458,-0.62753296,0.7465515,-8.10583,-3.5666533,9.311114
1570726817,-9.168594,-13.918091,11.563995,1.9487152,-0.61154175,0.89675903,-8.10583,-3.5666533,9.311114
1570726817,-8.787323,-9.459488,-6.232712,3.9386292,-0.66799927,1.0437622,-7.7015185,0.67618656,-3.7944787
1570726817,-9.090179,-12.641983,-7.9804688,1.4767914,-4.497635,0.15319824,-11.401056,-2.4714508,-12.244923
1570726817,3.1196442,-12.2960205,-6.0950317,1.7686768,0.80418396,1.1385651,2.4292922,-2.0009747,-7.398804
1570726817,3.1196442,-12.2960205,-6.0950317,1.7686768,0.80418396,1.1385651,2.4292922,-2.0009747,-7.398804
1570726817,3.0496216,-10.832565,2.1051025,0.7162018,-2.6387482,-0.20472717,4.6796865,-0.47862148,-3.944069
1570726817,-1.5352783,-10.085571,3.0304565,1.2775879,-0.8970337,-0.32296753,-0.88174224,-0.29188633,0.7609017
1570726817,-2.0147247,-5.8789673,0.16758728,1.0219269,-0.4102173,0.36732483,-1.9416323,4.0965242,-3.0853493
1570726817,-1.8926239,-4.948822,-1.5658112,0.1920929,-0.50927734,0.657074,-1.447002,5.0708227,-5.031637
1570726817,-1.8926239,-4.948822,-1.5658112,0.1920929,-0.50927734,0.657074,-1.447002,5.0708227,-5.031637
1570726817,-2.2661133,-5.0350037,-1.4335327,-1.398346,-1.2720184,0.70606995,-1.7769537,5.1427126,-4.6655693
1570726817,-1.9979553,-6.416458,-0.841568,-2.3091583,-1.5969238,0.8765106,-1.2085744,4.0826397,-3.6284263
1570726817,-1.829773,-7.8050995,0.47705078,-2.734192,-1.3529663,0.76252747,-0.94248366,3.1564398,-2.088296
1570726817,7.0964203,-19.612701,13.8349,-1.220459,-4.8289337,-0.59461975,7.0915627,-9.054868,12.3551035
1570726817,8.138489,-19.612701,14.275421,-1.1565399,-4.834259,-0.77571106,7.0915627,-9.054868,12.3551035
1570726817,5.776016,-11.376648,7.7697906,-1.272644,-3.879776,-1.3349762,7.6482162,-2.2305346,8.241086
1570726817,0.19992065,-19.601929,7.502823,-0.4492035,-2.0411377,0.7923584,-0.6728055,-8.695491,6.627428
1570726817,-3.4955292,-5.0038757,-3.0226746,0.60861206,0.79885864,0.32151794,-5.4886665,1.6983557,-2.801115
1570726817,-3.4955292,-5.0038757,-3.0226746,0.60861206,0.79885864,0.32151794,-4.1464133,4.175619,-2.801115
1570726817,-4.035431,-7.3112946,-1.2509766,-1.1533356,-2.875229,0.0072631836,-4.8246675,3.9160404,-2.575673
1570726817,-3.8654327,-7.585434,-1.0576324,-1.126709,-2.9849548,0.07437134,-4.231416,3.4479837,-1.7756422
1570726817,-1.8914185,-12.74852,1.9919739,0.31140137,-2.3063812,0.6687927,-1.4381387,-1.6328821,1.7985135
1570726817,-1.8914185,-12.74852,1.9919739,0.31140137,-2.3063812,0.6687927,-1.4381387,-1.6328821,1.7985135
1570726817,-0.17837524,-10.732605,-0.61291504,-0.332016,2.9464417,0.36839294,0.713103,-0.17642117,-0.61863476
1570726817,1.0582428,-9.76236,-1.1983032,-0.68888855,4.3792114,0.25334167,1.4874368,0.79426765,-1.3820834
1570726818,2.135025,-10.674545,-4.838089,-1.8649445,-1.6373901,0.024307251,2.3045294,-0.25876808,-6.1871657
1570726818,2.4492645,-10.439316,-4.0174713,-1.9171295,-2.0773468,0.04135132,2.6228933,-0.104356766,-4.510237
1570726818,3.9079285,-9.441528,3.2010498,-1.2950134,-4.119461,-0.7373657,4.8968816,1.1795273,4.1431036
1570726818,0.24002075,-11.590927,0.9062042,-0.48008728,-3.9085388,-0.6595917,0.7016572,-0.76828,2.0633526
1570726818,0.1879425,-11.681305,0.97624207,-0.505661,-3.8819122,-0.6127167,0.5952221,-0.9718523,2.252435
1570726818,1.8291626,-10.7332,2.9969482,-0.85079956,-1.5979767,0.1105957,2.1363034,-0.30971432,4.666694
1570726818,1.8519135,-10.773315,3.0256653,-0.8529358,-1.4562988,0.12017822,2.2829812,-0.22567463,4.747193
1570726818,2.8880005,-9.785706,2.071579,-1.2300415,0.66571045,-0.39007568,3.5758514,0.5090418,4.428587
1570726818,2.810791,-9.783905,2.0147247,-1.239624,0.67103577,-0.44866943,3.352921,0.6046715,4.4399824
1570726818,0.46746826,-10.303452,2.74794,0.7502899,-1.4477844,-0.4880829,0.1392717,0.06858921,5.4344826
1570726818,0.66259766,-10.290878,2.621048,0.8568115,-1.490387,-0.4699707,0.42835402,0.027319908,5.336142
1570726818,2.4809875,-16.573868,1.7094574,2.0211487,-0.73298645,-0.90992737,2.3797863,-4.464305,4.076461
1570726818,-2.2200165,-15.788559,-0.920578,1.2584229,-0.28344727,-1.0516052,-2.5208466,-5.7017336,-0.07421601
1570726818,-2.2200165,-15.788559,-0.920578,1.2584229,-0.28344727,-1.0516052,-2.5208466,-5.7017336,-0.07421601
1570726818,-8.234863,-14.669876,13.522446,1.3830566,-0.4155426,-0.17596436,-7.3343263,-3.6526833,10.002231
1570726818,-6.1345367,-13.669693,-8.566452,3.9322357,-0.025650024,1.979065,-6.2336693,-3.0882998,-7.90004
1570726818,-6.760025,-10.031708,0.10295105,0.7992859,-4.4145355,0.091415405,-8.233398,0.36434555,-5.8472247
1570726818,-6.760025,-10.031708,0.10295105,0.7992859,-4.4145355,0.091415405,-8.233398,0.36434555,-5.8472247
1570726818,8.87291,-8.1732025,-6.229706,1.8549652,1.3687744,0.88822937,8.32724,0.970603,-6.674343
1570726818,8.87291,-8.1732025,-6.229706,1.8549652,1.3687744,0.88822937,8.32724,0.970603,-6.674343
1570726818,-0.81941223,-7.27359,-0.06643677,0.055740356,-1.0419159,-0.4859619,0.5353385,2.9188938,-3.7359357
1570726818,-0.81941223,-7.27359,-0.06643677,0.055740356,-1.0419159,-0.4859619,0.5353385,2.9188938,-3.7359357
1570726818,-2.1140747,-7.33284,0.6314697,-0.5088501,-0.04801941,-0.25904846,-1.8071024,2.7389355,-3.0948064
1570726818,-2.0218964,-7.1203613,-0.3034668,-1.0691833,0.40898132,0.039215088,-1.9094872,2.7628756,-3.2525072
1570726818,-0.35913086,-7.810486,0.9971924,-1.7573395,-0.599823,-0.054519653,-0.26120397,2.7892275,-2.0170312
1570726818,-0.40821838,-8.025955,1.1988983,-1.7882385,-0.7127533,-0.0619812,-0.079211116,2.5331802,-1.6703701
1570726818,-0.038909912,-11.348511,7.8679504,-1.319519,-2.8209076,0.22669983,-0.2926208,-0.59806347,5.7370224
1570726818,0.21548462,-11.513718,8.036743,-1.2705231,-2.8059998,0.24694824,-0.043403663,-0.835062,6.2285576
1570726818,2.3924103,-11.271896,8.237854,-0.7421417,-1.6469879,-0.11630249,2.4333339,-1.1707077,7.1252375
1570726818,1.1629791,-8.00441,4.8057556,-0.15092468,-0.35269165,-0.10992432,1.0999972,2.2401295,3.8293595
1570726818,1.4550781,-6.2991486,4.0485992,0.1686554,0.11177063,-0.023635864,1.4095298,3.8418179,3.4875038
1570726818,-0.88645935,-6.4769135,2.2559357,0.68530273,0.42921448,0.09887695,-1.1146317,3.962532,0.672922
1570726818,-0.88645935,-6.4769135,2.2559357,0.68530273,0.42921448,0.09887695,-1.1146317,3.962532,0.672922
1570726818,-0.9528961,-10.448303,1.0947418,-0.7368164,2.268921,-0.15678406,-0.9517711,0.118432045,-0.26430142
1570726818,-0.9528961,-10.448303,1.0947418,-0.7368164,2.268921,-0.15678406,-0.9517711,0.118432045,-0.26430142
1570726819,-3.0119019,-19.612701,4.1844635,-1.0361633,-0.95988464,0.14575195,-2.8888888,-9.064567,3.004335
1570726819,-3.0119019,-19.612701,4.1844635,-1.0361633,-0.95988464,0.14575195,-2.8888888,-9.064567,3.004335
1570726819,-4.9147034,-12.069168,-2.8365326,0.6938324,-2.9135895,-0.07369995,-5.078191,-1.4075727,-2.80174
1570726819,-4.9147034,-12.069168,-2.8365326,0.6938324,-2.9135895,-0.07369995,-5.078191,-1.4075727,-2.80174
1570726819,-1.9674377,-14.2287445,0.57221985,1.3755951,-0.85762024,0.64216614,-2.0132844,-3.296811,-0.80261445
1570726819,4.1258087,-12.547409,-6.254257,-0.7059326,3.5195465,0.091415405,4.6976914,-2.1121702,-7.1968455
1570726819,3.9773712,-12.624619,-6.5678864,-0.9008789,3.4034271,-0.026824951,4.6976914,-2.1121702,-7.1968455
1570726819,0.29808044,-9.767746,-0.5590515,-1.6177979,-1.0504303,-0.64575195,0.8724789,0.71793175,-1.3428575
1570726819,0.29808044,-9.767746,-0.5590515,-1.6177979,-1.0504303,-0.64575195,0.8724789,0.71793175,-1.3428575
1570726819,-0.36990356,-8.851364,2.4325104,-1.9597473,-2.5205078,-0.25160217,-0.34045026,1.6874113,2.7306237
1570726819,-0.36990356,-8.851364,2.4325104,-1.9597473,-2.5205078,-0.25160217,-0.34045026,1.6874113,2.7306237
1570726819,0.97384644,-7.9511414,7.5908203,-1.2193909,-2.5396729,-0.06304932,0.7898154,2.442731,7.362063
1570726819,1.435318,-7.6201477,10.0269165,-0.79008484,-2.302124,-0.0342865,1.4743887,2.9330902,10.620121
1570726819,-0.95588684,-6.9683228,0.051467896,1.1007538,-1.4030457,0.35560608,-0.72613615,3.5029202,2.272966
1570726819,-0.71287537,-6.879135,-0.31184387,1.022995,-1.2837219,0.37158203,-0.6660823,3.5789452,1.0303705
1570726819,-0.35673523,-11.905167,3.5637665,0.3763733,0.060638428,0.6613312,-0.04735303,-1.6876879,3.5759234
1570726819,-0.35673523,-11.905167,3.5637665,0.3763733,0.060638428,0.6613312,-0.04735303,-1.6876879,3.5759234
1570726819,2.4438782,-9.020752,4.0252533,1.4863892,-0.3952942,0.40353394,3.2003589,1.2066126,4.9127665
1570726819,1.7232208,-11.00914,-1.8483276,0.7236481,0.9000702,0.563324,2.2010894,-0.024228096,-2.7418835
1570726819,2.245758,-11.239578,-1.3688812,0.58303833,0.8382721,0.54522705,2.665462,-0.45222092,-2.6362348
1570726819,3.4326935,-10.53569,3.107071,0.39874268,0.2854004,0.10420227,4.5937867,-0.15413284,1.499445
1570726819,2.2284088,-17.804474,14.949997,3.1194305,-1.2762756,-0.57969666,3.6782932,-5.2603064,13.81104
1570726819,-7.4022675,-19.612701,-1.9578552,3.3229065,0.19485474,-0.07902527,-6.4049172,-9.509801,-4.267879
1570726819,-7.4022675,-19.612701,-1.9578552,3.3229065,0.19485474,-0.07902527,-6.4049172,-9.509801,-4.267879
1570726819,-5.4569855,-13.603256,-2.221817,1.930603,-0.65841675,-0.072631836,-5.2127028,-4.6855917,-6.2581253
1570726819,1.2371979,-12.123047,1.0492554,1.0315094,0.32481384,-0.3453369,0.9882596,-2.7157488,-3.1909971
1570726819,-0.008377075,-9.76416,0.07122803,-0.07423401,-0.5593567,-1.2135315,1.8852971,-0.55605793,-4.8719196
1570726819,-2.4492645,-7.1011963,0.5404968,-0.26383972,0.18952942,-0.90353394,-1.401804,1.7283211,-3.6469917
1570726819,-1.7411804,-3.4739838,-0.42855835,-0.9147186,-0.20887756,-0.15039062,-1.5368296,5.866165,-5.2125154
1570726819,-1.2611389,-3.5619812,-0.5608368,-1.54216,0.025482178,0.37797546,-1.0743777,6.4332294,-4.1137824
1570726819,-1.2611389,-3.5619812,-0.5608368,-1.54216,0.025482178,0.37797546,-1.0743777,6.4332294,-4.1137824
1570726819,-1.130661,-4.9865265,0.99838257,-1.4526825,0.15969849,1.1002197,-0.6776588,5.2887154,-1.950633
1570726819,-1.130661,-4.9865265,0.99838257,-1.4526825,0.15969849,1.1002197,-0.6776588,5.2887154,-1.950633
1570726820,4.5076904,-11.031876,2.1003113,-0.5344238,3.0902405,-0.084350586,5.9917355,-1.3474455,1.5682852
1570726820,-4.7327423,-12.9795685,15.665863,-1.380249,2.3839722,-0.67770386,-4.2952085,-6.6169147,18.508005
1570726820,-4.7327423,-12.9795685,15.665863,-1.380249,2.3839722,-0.67770386,-4.2952085,-6.6169147,18.508005
1570726820,-3.1633453,-8.959106,3.0328522,-0.99461365,-3.0478058,-0.46359253,-2.956757,1.7021036,2.0672276
1570726820,-6.8420258,-15.3199005,4.8530426,-0.44387817,-2.2467346,-0.3922119,-6.5120807,-5.343732,4.2484493
1570726820,-8.451538,-16.449356,4.3257294,-0.17222595,-1.6682892,-0.37835693,-7.4424343,-5.343732,4.2484493
1570726820,-3.4332886,-15.609604,3.2507324,1.1604156,0.6859436,0.8488159,-5.4286737,-6.2486687,4.345062
1570726820,3.4566345,-12.534241,2.9412842,1.6216736,0.20124817,0.9095459,2.3855903,-2.7011976,0.3874042
1570726820,2.3337555,-12.112259,-1.2611389,1.3596191,1.1013947,0.6027374,3.8196669,-1.1349249,-2.8324711
1570726820,2.2948456,-12.586914,-1.5574341,1.3020935,1.0950012,0.5654602,3.7764406,-1.5879316,-3.1740096
1570726820,1.7028809,-12.548004,-0.58717346,-0.92536926,-0.9950409,-0.44654846,2.8330941,-2.5727205,-3.0477061
1570726820,1.7028809,-12.548004,-0.58717346,-0.92536926,-0.9950409,-0.44654846,2.8330941,-2.5727205,-3.0477061
1570726820,-0.14245605,-10.172363,0.04548645,-1.5357666,-0.5444336,-0.7874298,0.78099495,0.31714344,-1.4239033
1570726820,-1.3461456,-8.57843,1.1450195,-2.907837,-0.027786255,-0.80659485,-0.49993348,2.2561321,0.55682325
1570726820,-1.577179,-8.71489,1.2689209,-2.9941254,0.010574341,-0.80659485,-0.49993348,2.2561321,0.55682325
1570726820,-3.2842407,-9.521744,13.828903,-1.8148651,-0.67866516,-0.27183533,-3.703639,0.7469425,11.97946
1570726820,-1.8513184,-8.720276,8.079239,0.8791809,-1.7641602,0.026443481,-1.5334496,1.9904728,10.903036
1570726820,1.8549042,-6.6073914,6.0866547,1.1593475,-1.0440521,0.037094116,2.8260787,4.0047894,6.1822257
1570726820,1.8549042,-6.6073914,6.0866547,1.1593475,-1.0440521,0.037094116,2.8260787,4.0047894,6.1822257
1570726820,-0.9337311,-8.628098,-1.3371582,1.3223267,0.1053772,0.6251221,-1.0366967,1.4515123,-2.2300236
1570726820,-0.9337311,-8.628098,-1.3371582,1.3223267,0.1053772,0.6251221,-1.0366967,1.4515123,-2.2300236
1570726820,1.8722687,-8.957901,1.2036896,0.20806885,2.0430908,0.64749146,2.149041,1.6586466,-0.37124908
1570726820,1.8722687,-8.957901,1.2036896,0.20806885,2.0430908,0.64749146,2.149041,1.6586466,-0.37124908
1570726820,5.431244,-12.76947,5.4647675,0.5904999,9.765625E-4,0.3332367,6.689256,-1.9968443,3.5336099
1570726820,-2.5306702,-16.510422,8.405441,1.9561615,1.1504059,-0.4806366,-0.37830305,-5.2927933,5.633485
1570726820,-2.5306702,-16.510422,8.405441,1.9561615,1.1504059,-0.4806366,-0.37830305,-5.2927933,5.633485
1570726820,-5.0254364,-19.612701,-0.5135498,2.9692383,1.0023346,-0.44334412,-3.0493279,-9.482915,-2.0156794
1570726820,-4.976944,-12.121246,1.5418701,1.2882385,-0.707428,0.17770386,-4.191911,-2.5258741,-1.6675539
1570726820,-4.7261505,-12.121246,1.5418701,1.2882385,-0.707428,0.17770386,-4.191911,-2.5258741,-1.6675539
1570726820,-1.932724,-11.46463,-0.67456055,0.45521545,-0.65948486,0.2362976,-1.588007,-1.9004898,-4.901694
1570726820,0.5877838,-10.302246,-0.6673889,-0.112579346,-0.773468,0.014724731,1.0425323,-0.9623461,-4.702065
1570726820,0.70150757,-8.5203705,-0.34895325,-1.1714478,-0.90663147,-0.40286255,1.7321582,1.1062412,-4.8806343
1570726820,-1.1797485,-6.6917877,1.4915924,-1.2449493,-1.0131531,-0.33468628,-0.31797326,3.085641,-2.4147074
1570726821,-2.652176,-4.2910156,2.1398163,-1.0766449,-0.5412445,0.11378479,-2.232432,5.556752,-1.2511601
1570726821,-1.462265,-4.4418488,1.7992401,-0.9615936,0.62416077,0.6847687,-0.9132547,6.010668,-1.1751058
1570726821,-1.414978,-4.6076355,1.8788452,-0.97010803,0.69766235,0.7188568,-0.9132547,6.010668,-1.1751058
1570726821,1.2689209,-13.099869,4.5328217,-1.3727875,4.516632,-0.35279846,2.922223,-2.1388721,1.750857
1570726821,1.2689209,-13.099869,4.5328217,-1.3727875,4.516632,-0.35279846,2.922223,-2.1388721,1.750857
1570726821,-0.73262024,-7.0772552,5.6275635,-1.032959,-2.893341,-0.78422546,0.40496743,3.1610956,3.8758893
1570726821,-0.73262024,-7.0772552,5.6275635,-1.032959,-2.893341,-0.78422546,0.40496743,3.1610956,3.8758893
1570726821,-2.6384125,-8.719086,8.853165,-0.7591858,-1.6150208,-0.697937,-1.0864055,2.8344994,7.1961837
1570726821,-8.26059,-16.970703,-0.8427582,0.68955994,0.009506226,0.34707642,-7.838305,-5.9404755,-0.99752903
1570726821,-2.9795837,-14.383163,2.0985107,-0.13175964,0.39619446,0.47917175,-3.0835981,-4.226309,-0.5702388
1570726821,-2.9795837,-14.383163,2.0985107,-0.13175964,0.39619446,0.47917175,-3.0835981,-4.226309,-0.5702388
1570726821,3.3907928,-17.584213,2.0207062,0.8323059,-0.13005066,0.54522705,3.7346594,-7.4422865,-0.038435936
1570726821,-0.87867737,-12.25412,-1.6633759,0.85787964,-0.33457947,0.039215088,0.48110306,-1.3453417,-3.333113
1570726821,-0.87867737,-12.25412,-1.6633759,0.85787964,-0.33457947,0.039215088,0.48110306,-1.3453417,-3.333113
1570726821,0.24241638,-13.289017,-2.644394,-0.26383972,0.24705505,-1.9836426E-4,1.5407888,-2.8142738,-4.9801126
1570726821,0.108932495,-10.202286,-0.5895691,-1.2023468,0.28007507,-0.40925598,1.4109286,0.20765781,-2.4064703
1570726821,0.108932495,-10.202286,-0.5895691,-1.2023468,0.28007507,-0.40925598,1.4109286,0.20765781,-2.4064703
1570726821,-0.3609314,-9.406815,0.10115051,-1.3876953,0.10751343,-0.39860535,0.6696049,1.0364199,-1.0760142
1570726821,0.22924805,-8.037338,0.9391327,-2.353897,0.16716003,-0.23135376,1.259965,2.4649105,0.18455884
1570726821,-1.0223236,-8.449738,2.5109253,-2.8023682,0.24598694,-0.44441223,0.3026957,2.3676195,1.9556099
1570726821,-0.7194519,-8.04512,11.972809,2.023285,-3.193756,-0.40286255,0.8390788,3.0735083,15.319643
1570726821,-2.339737,-9.148239,4.8650208,2.311966,-1.7854767,-0.13334656,-1.1023023,1.7587376,7.024226
1570726821,-1.2820892,-7.9960327,0.27893066,1.2541504,0.3802185,0.19793701,-0.55107206,2.3694944,-0.6241611
1570726821,-1.3305817,-7.9242096,-0.22087097,0.6927643,0.6774292,0.5313721,-0.21893078,3.1323824,-1.3818958
1570726821,-1.3305817,-7.9242096,-0.22087097,0.6927643,0.6774292,0.5313721,-0.28693908,2.8274994,-1.3135825
1570726821,3.4991302,-10.543472,1.8207855,0.1686554,-0.09170532,0.40673828,3.4658034,0.055573463,0.22520709
1570726821,1.5131378,-12.641388,4.9224854,1.00914,-0.082107544,-0.0385437,3.0037172,-1.9603157,3.3377295
1570726821,1.5131378,-12.641388,4.9224854,1.00914,-0.082107544,-0.0385437,3.0037172,-1.9603157,3.3377295
1570726821,2.099121,-16.232086,8.122925,1.6536255,1.6212463,-0.19940186,3.2205634,-4.961026,4.8130064
1570726821,-0.99479675,-19.612701,6.193207,3.2408752,0.9842224,-0.66812134,0.65234816,-9.39677,4.9007874
1570726821,-5.292984,-14.219162,0.9714508,2.012619,-1.2720184,-0.25904846,-5.0609035,-5.0132504,-3.6442227
1570726821,-4.700409,-13.4739685,1.4975739,1.9476471,-1.3327332,-0.1876831,-4.401583,-4.124954,-3.119895
1570726821,-1.6962891,-10.685928,-0.053863525,0.32951355,0.56344604,-0.11097717,-1.7676678,-1.7064934,-4.594667
1570726821,-1.4257507,-10.320801,-0.025146484,0.25920105,0.6156311,-0.115249634,-1.3228076,-1.2506123,-4.932581
1570726822,0.27713013,-8.566452,-0.5632324,-0.4864807,0.31097412,-0.522171,0.995526,0.97814655,-5.444418
1570726822,0.11431885,-7.7506256,0.43634033,-1.0851593,0.309906,-0.664917,0.36466128,1.8578625,-3.6160636
1570726822,-1.924942,-4.988922,-0.75717163,-1.6912994,0.3376007,-0.011917114,-1.5360754,5.002385,-4.5264177
1570726822,-1.924942,-4.988922,-0.75717163,-1.6912994,0.3376007,-0.011917114,-1.5360754,5.002385,-4.5264177
1570726822,-1.7615356,-5.6814423,-0.3040619,-1.8819885,0.024414062,0.5366974,-1.4938933,4.7738028,-3.6040432
1570726822,-1.4059906,-14.474747,3.2602997,-2.3720093,0.22894287,1.3984985,-1.955703,-1.6418533,-1.7259792
1570726822,-0.59555054,-13.964188,7.4088593,-1.2811737,3.4236755,-0.25585938,0.4720528,-3.3923788,3.7944746
1570726822,-0.59555054,-13.964188,7.4088593,-1.2811737,3.4236755,-0.25585938,0.4720528,-3.3923788,3.7944746
1570726822,-1.5951385,-8.075638,4.4466248,-0.5472107,-4.53598,-0.9397583,-1.2150123,1.7722445,2.5100336
1570726822,-1.5951385,-8.075638,4.4466248,-0.5472107,-4.53598,-0.9397583,-1.2150123,1.7722445,2.5100336
1570726822,-4.0019073,-4.7465057,3.3099823,-0.24147034,-2.8166504,-0.62550354,-4.2497888,5.070339,3.5321543
1570726822,-0.18075562,-5.914276,1.7818909,1.3660126,-0.644577,0.37265015,-0.71443975,5.4185,0.10127938
1570726822,-0.18075562,-5.914276,1.7818909,1.3660126,-0.644577,0.37265015,-0.71443975,5.4185,0.10127938
1570726822,-0.7194519,-15.308533,-2.142212,-0.065704346,2.9411163,0.32151794,0.1955606,-3.7557173,-3.5224776
1570726822,-0.9906006,-15.606003,-2.269104,-0.21165466,2.9645386,0.32151794,-0.2435801,-4.739418,-3.9868586
1570726822,-2.178131,-13.730148,-2.2128448,-2.6212769,3.031662,0.040283203,-1.1001182,-3.5015898,-3.0013769
1570726822,-3.0579987,-12.444458,0.13526917,-2.0481567,0.9139099,-0.37623596,-2.3506913,-2.0581236,-2.6798782
1570726822,-11.061813,-19.612701,6.6714478,1.9572296,-2.636612,1.0671997,-10.998436,-8.981996,8.0535145
1570726822,5.818512,-15.433029,-7.897278,2.327942,0.1799469,0.13189697,8.962937,-3.4082022,-8.062162
1570726822,5.818512,-15.433029,-7.897278,2.327942,0.1799469,0.13189697,8.962937,-3.4082022,-8.062162
1570726822,6.6397247,-11.5017395,-2.771881,0.39022827,-0.28024292,-0.24095154,7.543007,-2.1603642,-5.671018
1570726822,1.2671356,-9.757568,-4.426285,-0.88809204,-1.8280792,-0.7064667,2.7380767,0.71085835,-7.034237
1570726822,-0.8277893,-9.182968,0.9750366,-1.8809204,-2.5173035,-0.53282166,-0.3182584,1.160758,-0.56381416
1570726822,-0.8277893,-9.182968,0.9750366,-1.8809204,-2.5173035,-0.53282166,-0.3182584,1.160758,-0.56381416
1570726822,-2.5198975,-8.259399,13.123215,-3.5501862,1.9781036,0.058395386,-1.2510968,3.4465218,6.9426208
1570726822,-2.2116394,-9.973053,19.60971,-2.70224,5.788559,0.26611328,-2.7312384,0.87773895,20.17966
1570726822,-1.0007782,-10.441711,15.770004,1.6312561,8.073547,0.6890259,0.20251168,0.7417612,19.952763
1570726822,0.9714508,-8.757385,-5.276825,0.497818,-2.5162354,1.7276611,1.5408334,1.937521,-7.4694614
1570726822,2.6671448,-6.692993,0.27293396,0.63204956,-3.352478,1.0320435,3.6280763,3.5916328,-0.22800474
1570726822,0.93852234,-8.714294,1.4419098,0.71299744,-1.0973053,0.5175171,2.109474,1.5068111,0.7566309
1570726822,4.039612,-13.114243,7.3513947,1.8496399,-0.13644409,0.2437439,5.1890817,-1.6410017,5.5808053
1570726822,4.039612,-13.114243,7.3513947,1.8496399,-0.13644409,0.2437439,5.1890817,-1.6410017,5.5808053
1570726822,4.0467987,-18.474854,10.569199,2.8914642,0.42921448,0.105270386,5.4227257,-7.497532,8.180742
1570726823,-2.316986,-19.609116,-4.4879303,2.2480469,1.5168457,-0.77571106,0.76969993,-9.505383,-9.740715
1570726823,-5.917267,-13.02626,-1.0785828,0.9388428,-2.0059814,-0.8662567,-5.093958,-3.8535109,-4.7550364
1570726823,-5.917267,-13.02626,-1.0785828,0.9388428,-2.0059814,-0.8662567,-5.093958,-3.8535109,-4.7550364
1570726823,-4.9123077,-9.677368,2.2756958,0.11326599,0.075546265,-0.2899475,-4.543818,0.03348732,-1.4962621
1570726823,-2.54982,-10.538086,0.13946533,-0.2073822,0.46650696,-0.16210938,-2.5032587,-0.46429062,-3.243103
1570726823,0.16340637,-8.834,0.8439636,-0.7964783,0.07022095,-0.7352295,0.6233014,0.8742466,-2.8687646
1570726823,0.043701172,-8.672989,0.9295502,-0.8071289,0.1288147,-0.7181854,0.61639804,1.2416782,-2.5429661
1570726823,-0.8840637,-5.699997,-0.7182617,-0.9093933,0.044662476,-0.07476807,-0.5127608,4.514284,-3.565605
1570726823,-0.8840637,-5.699997,-0.7182617,-0.9093933,0.044662476,-0.07476807,-0.5127608,4.514284,-3.565605
1570726823,-1.6526031,-5.8334656,-1.7250214,-1.1970215,-1.2176819,0.09674072,-1.1612027,4.730606,-4.4384227
1570726823,-3.8474884,-9.191345,0.8056488,-1.3940887,-1.2443085,0.4078064,-3.9007084,1.237855,-1.6744193
1570726823,-3.32016,-8.710709,1.074997,-1.335495,-1.1697388,0.3151245,-3.5809357,1.2069359,-1.1468645
1570726823,-2.5193024,-5.6784515,0.37049866,-1.190628,-0.7723999,-0.10139465,-2.2831852,4.764374,-0.8935391
1570726823,-5.526413,-11.778275,13.490128,-1.0819702,1.8907623,0.037094116,-3.8982115,-0.2797985,7.9803634
1570726823,0.11073303,-11.453857,15.216949,0.2506714,6.0559387,0.38648987,-1.1730975,-1.2525663,16.435844
1570726823,1.3353729,-9.427765,-1.8973999,0.28475952,0.7700958,0.14147949,2.5963454,1.014452,-2.742355
1570726823,1.4221497,-9.635468,2.5546112,-0.075286865,0.34718323,-0.29101562,2.8404198,1.1171274,2.2871127
1570726823,1.4221497,-9.635468,2.5546112,-0.075286865,0.34718323,-0.29101562,2.8404198,1.1171274,2.2871127
1570726823,-2.8832245,-18.51616,-4.641754,0.5478821,0.532547,-0.23988342,-1.4461377,-6.51379,-4.019882
1570726823,-3.1483765,-19.056656,-5.2666473,0.35081482,0.38980103,-0.19300842,-2.1293106,-7.73897,-5.368532
1570726823,-4.146164,-13.609238,19.612701,-0.32029724,-4.2355804,-0.7160492,-0.8855348,-2.8138027,17.770098
1570726823,-6.5912323,-12.398972,-5.0655365,3.2110443,0.27156067,0.28955078,-7.0110674,-2.0381145,-1.3084964
1570726823,-5.9154663,-12.140396,-6.3111115,3.1460724,0.25024414,0.47491455,-6.370506,-1.8704348,-5.4719563
1570726823,3.9869385,-14.056351,-4.3412933,0.7545471,0.37701416,0.23522949,4.807926,-3.9168606,-7.042201
1570726823,3.9869385,-14.056351,-4.3412933,0.7545471,0.37701416,0.23522949,4.807926,-3.9168606,-7.042201
1570726823,0.885849,-9.967667,0.06942749,-1.9746552,0.46116638,-0.5807648,1.9477407,-0.0014324188,-2.2038054
1570726823,0.296875,-9.186554,0.32920837,-1.9576111,0.37275696,-0.6382904,1.4052671,0.94849586,-1.3855708
1570726823,-0.3938446,-8.463501,-0.885849,-2.1589508,-0.56040955,-0.23667908,0.083767295,2.229638,-1.3957431
1570726823,1.4239502,-9.750992,6.242279,-2.8034363,-4.6531677,-0.21858215,0.91359055,1.1536522,3.3756595
1570726823,3.3488922,-8.222885,14.848846,-1.2715912,-6.317108,-0.6595917,3.6118124,1.5904951,11.099399
1570726823,0.070632935,-9.42836,-0.7541809,0.53404236,1.313385,0.3151245,-0.35159215,0.8779707,0.43535545
1570726823,0.070632935,-9.42836,-0.7541809,0.53404236,1.313385,0.3151245,-0.35159215,0.8779707,0.43535545
1570726823,-0.6548157,-8.10318,1.5155334,0.4743805,1.1269684,0.2394867,-0.15102461,2.3805323,1.360368
1570726823,-0.73083496,-7.720108,1.0067596,0.5734558,0.20124817,0.23736572,-0.3994338,2.9320383,0.9261594
1570726824,0.22146606,-9.054871,0.786499,0.5542755,-0.38145447,0.37477112,0.5595236,1.7529583,0.17226753
1570726824,2.3229675,-13.098679,2.1733398,0.75668335,-0.44003296,0.23522949,2.7481394,-1.8117304,1.367293
1570726824,2.8317413,-15.6957855,7.484268,1.1817169,-0.45069885,-0.2569275,3.4663236,-5.165715,5.5531287
1570726824,0.69970703,-16.183014,11.427521,2.1351318,1.1152496,-0.45399475,1.5913858,-5.5026093,9.923023
1570726824,-2.604889,-17.131119,1.5310974,2.7423248,2.2220612,-0.30059814,-1.1862001,-6.189069,1.977277
1570726824,-6.549942,-18.939331,-4.4573975,2.1788025,-2.0730896,0.056259155,-5.4381638,-9.093619,-8.567779
1570726824,-7.459732,-12.379227,5.5354004,1.3702698,-1.474411,-0.068374634,-7.4936094,-3.449009,1.0789392
1570726824,-1.8794556,-9.0746155,-1.6035156,0.8248596,0.77116394,0.050933838,-2.6988344,0.52663517,-5.2558775
1570726824,2.3361359,-7.783554,-0.69192505,-0.34906006,-1.1282043,-0.37303162,2.6587076,2.1462574,-4.902248
1570726824,-0.69311523,-5.510254,-1.036087,-0.8944855,-1.0749359,-0.4060669,-0.64515865,4.223093,-4.7209654
1570726824,-1.1881256,-3.9851532,-0.51416016,-1.0894318,-1.1015625,-0.14294434,-1.4099352,5.8455772,-4.1928473
1570726824,-1.3976135,-3.0496216,0.79248047,-1.4281769,-0.6669464,0.32151794,-1.7049339,7.127513,-2.1190076
1570726824,-1.3976135,-3.0496216,0.79248047,-1.4281769,-0.6669464,0.32151794,-1.6916977,7.1582756,-2.0749104
1570726824,-2.4378967,-4.7303467,0.7344208,-1.7957001,-0.08317566,0.84669495,-2.5457766,6.116416,-2.1160166
1570726824,3.8361053,-13.53981,5.147537,-1.0180511,3.4833221,0.8434906,4.158249,-3.5832615,4.533119
1570726824,-4.084503,-19.58397,14.663879,-0.8987427,0.9692993,-0.34854126,-0.91505605,-8.440294,10.831608
1570726824,2.356491,-9.266754,10.813416,-0.6079254,-5.2859344,-1.3552094,2.743977,0.9949455,9.617521
1570726824,-0.3040619,-8.77655,9.217072,-0.88916016,-3.7317047,-1.1176605,0.4250495,1.4091005,8.623636
1570726824,-8.011597,-14.561539,2.45047,0.16226196,-0.9577637,-0.5871582,-8.164572,-2.9766197,2.8377986
1570726824,-8.073242,-17.402847,0.46388245,0.38383484,-0.3207245,0.54522705,-9.1506405,-7.0382338,-0.7252101
1570726824,-3.3249512,-14.293976,-4.755478,0.5628052,0.28007507,0.9936981,-3.6922028,-3.5466413,-6.3942065
1570726824,0.5201416,-13.414108,-6.035782,0.8877106,-0.9268646,0.90315247,-0.58678114,-4.213875,-7.13194
1570726824,1.6675568,-14.35144,-3.1130676,0.086624146,-1.3902588,0.0317688,1.257868,-3.5991726,-5.4841666
1570726824,1.5604248,-14.663879,-3.186081,0.04081726,-1.3668213,-0.016174316,1.8111956,-3.6777124,-4.840295
1570726824,2.3391418,-12.358871,-3.6062622,-2.114212,0.18634033,-0.43695068,2.6781533,-2.4986172,-4.563266
1570726824,-0.19631958,-11.495163,-1.5119324,-2.7256775,-0.33244324,-0.32084656,-0.28730226,-1.1990995,-2.625558
1570726824,0.66378784,-9.2326355,-1.2354126,-2.340042,-1.7417908,-0.395401,0.053949296,0.8511982,-1.1119887
1570726824,0.32740784,-9.481033,1.648407,-0.6302948,-4.596695,-0.74694824,-0.085032344,1.3672552,2.6520844
1570726824,0.25378418,-9.515152,1.7070618,-0.5514679,-4.597763,-0.711792,-0.19552767,1.2306242,2.6637363
1570726824,1.2796936,-11.323975,0.53630066,0.037628174,-4.214279,0.034957886,0.60181576,-0.5621042,1.6706336
1570726824,1.2796936,-11.323975,0.53630066,0.037628174,-4.214279,0.034957886,0.60181576,-0.5621042,1.6706336
1570726824,2.9346924,-10.741592,1.5466614,-0.17222595,-2.617447,0.103134155,2.744642,-0.25600815,2.8517702
1570726824,2.9346924,-10.741592,1.5466614,-0.17222595,-2.617447,0.103134155,2.744642,-0.25600815,2.8517702
1570726825,3.0687714,-10.184341,1.4401093,-0.90193176,-0.64030457,-0.06411743,3.2260919,0.5386467,3.0316448
1570726825,3.0687714,-10.184341,1.4401093,-0.90193176,-0.64030457,-0.06411743,3.2260919,0.5386467,3.0316448
1570726825,2.1416168,-10.214264,1.438324,-1.1298981,0.05531311,-0.042800903,2.152873,0.00228405,3.517022
1570726825,4.2838287,-16.38292,4.7644653,0.008865356,-0.084243774,-0.5168457,3.3692634,-3.9769611,6.13507
1570726825,4.2838287,-16.38292,4.7644653,0.008865356,-0.084243774,-0.5168457,3.3692634,-3.9769611,6.13507
1570726825,1.5197144,-17.126923,1.1725616,1.053894,0.5357361,-1.1592102,2.911962,-7.6939306,5.2886896
1570726825,-6.858795,-13.773239,7.0066376,1.4096832,-0.7819824,-0.32403564,-6.0711126,-3.0168314,6.9160585
1570726825,-5.4144897,-13.985138,2.1302338,3.4081268,0.59007263,1.7830505,-6.0225043,-2.6089725,4.3355484
1570726825,-14.490311,-11.739365,-7.542938,1.647232,-3.4930878,0.10739136,-15.889589,-1.9426641,-9.846189
1570726825,-14.490311,-11.739365,-7.542938,1.647232,-3.4930878,0.10739136,-15.889589,-1.9426641,-9.846189
1570726825,-5.2708282,-8.860336,-1.5023651,1.0964966,-4.9738007,0.77957153,-5.6954727,2.0962992,-3.4053905
1570726825,-3.0962982,-12.895172,-0.8445587,3.2121124,-0.53378296,1.9385834,-3.32261,-1.8471785,-1.1933692
1570726825,3.2321777,-9.31105,-8.095398,0.847229,0.59007263,1.3622742,3.9672313,1.0347967,-12.006769
1570726825,2.771881,-9.05307,1.4802094,1.1103516,-2.1370087,0.55055237,4.36201,0.8215866,-0.39319134
1570726825,0.16879272,-7.3507996,-0.09037781,0.41792297,-1.5468445,0.046676636,1.5622375,2.4282217,-3.631694
1570726825,0.06764221,-7.2957306,-0.08679199,0.35507202,-1.4839935,0.02217102,1.3028994,2.6590528,-3.7774758
1570726825,-1.7866669,-6.296753,0.2567749,-0.78689575,-0.8331299,0.20433044,-1.0919902,3.5099716,-3.21923
1570726825,-1.7866669,-6.296753,0.2567749,-0.78689575,-0.8331299,0.20433044,-1.0919902,3.5099716,-3.21923
1570726825,-0.40222168,-9.154831,2.5761566,-1.6593475,-2.096527,0.013656616,0.3072611,1.5461025,-0.73907256
1570726825,-0.3357849,-9.436752,2.9747925,-1.6753235,-2.112503,-0.0012664795,0.3072611,1.5461025,-0.73907256
1570726825,0.37409973,-14.029419,11.723801,-1.1618652,-2.2935944,-0.0342865,0.7587242,-3.3366423,8.850325
1570726825,0.37409973,-14.029419,11.723801,-1.1618652,-2.2935944,-0.0342865,0.7587242,-3.3366423,8.850325
1570726825,3.2201996,-12.6719055,11.132446,-1.0659943,-1.7726898,-0.19726562,3.396793,-2.5046043,9.480865
1570726825,-1.9716187,-11.1073,0.6572113,-0.040145874,-0.32286072,0.20114136,-0.43890068,0.46170044,0.41908133
1570726825,-1.9716187,-11.1073,0.6572113,-0.040145874,-0.32286072,0.20114136,-0.43890068,0.46170044,0.41908133
1570726825,-5.5683136,-13.575119,2.3702545,-1.0926208,-0.2344513,0.07118225,-5.0908775,-2.9405918,0.7989391
1570726825,-5.5683136,-13.575119,2.3702545,-1.0926208,-0.2344513,0.07118225,-5.0908775,-2.9405918,0.7989391
1570726825,-3.5033112,-6.9856873,-1.6094971,0.028030396,-2.8411407,-0.031082153,-3.0254822,3.8918047,-2.1306324
1570726825,-3.5033112,-6.9856873,-1.6094971,0.028030396,-2.8411407,-0.031082153,-3.0254822,3.8918047,-2.1306324
1570726825,-2.6659393,-9.819824,-1.7166443,-0.1285553,-2.3756256,0.52072144,-2.5533931,1.0430984,-2.6416068
1570726825,-0.50756836,-12.674896,-0.7254486,-0.56318665,0.6103058,0.58143616,-0.03956759,-1.8810234,-1.4612156
1570726825,-0.50756836,-12.674896,-0.7254486,-0.56318665,0.6103058,0.58143616,-0.03956759,-1.8810234,-1.4612156
1570726826,3.0490112,-10.277115,-3.2064362,-0.61431885,3.6654816,0.079696655,3.9432127,0.8157959,-2.2499275
1570726826,3.118454,-10.357315,-4.4843445,-0.7101898,3.5664215,0.04348755,3.9432127,0.8157959,-2.2499275
1570726826,3.12323,-9.54509,2.000351,-1.1501465,-4.037445,-0.97065735,3.9638977,0.9519491,3.1822238
1570726826,3.12323,-9.54509,2.000351,-1.1501465,-4.037445,-0.97065735,3.9638977,0.9519491,3.1822238
1570726826,0.6374512,-11.880035,1.1396332,-0.71232605,-5.404175,-1.5480194,1.0210474,-1.0824461,2.3833961
1570726826,0.34536743,-11.932709,1.332367,-0.7549286,-5.4499817,-1.4809113,0.82691795,-1.265399,2.6192384
1570726826,-0.9038086,-10.544662,4.0013123,-0.16903687,-2.176422,-0.3453369,-0.98450816,-0.12017441,5.902386
1570726826,-0.79667664,-10.544662,4.0013123,-0.16903687,-2.176422,-0.3453369,-0.98450816,-0.12017441,5.902386
1570726826,-0.13168335,-10.289673,3.1316223,0.322052,-0.869339,-0.096069336,-0.27072188,0.23612022,5.1793647
1570726826,0.16400146,-10.681137,-0.96665955,-0.1605072,1.043869,-0.09074402,0.10671579,-0.14140415,0.71528435
1570726826,0.16400146,-10.681137,-0.96665955,-0.1605072,1.043869,-0.09074402,0.10671579,-0.14140415,0.71528435
1570726826,0.72784424,-10.405792,-0.43574524,-0.63882446,0.124557495,-0.017242432,0.4214319,0.13878918,1.0039314
1570726826,1.02771,-10.655991,0.17597961,-0.59194946,-0.084243774,-0.103530884,0.76694596,0.0027103424,1.7380773
1570726826,0.61172485,-10.99118,2.1876984,-0.8028717,-1.0387115,-0.34854126,0.50312597,-0.6223364,4.1754184
1570726826,0.61172485,-10.99118,2.1876984,-0.8028717,-1.0387115,-0.34854126,0.50312597,-0.6223364,4.1754184
1570726826,1.0241241,-14.875778,7.339432,1.869873,-0.60302734,-0.23881531,0.6082982,-4.2916164,9.709248
1570726826,1.0241241,-14.875778,7.339432,1.869873,-0.60302734,-0.23881531,0.6082982,-4.2916164,9.709248
1570726826,-4.5411987,-15.186417,5.427063,3.5167847,2.585312,0.5558777,-4.2974243,-3.3199015,5.8578916
1570726826,-4.5411987,-15.186417,5.427063,3.5167847,2.585312,0.5558777,-4.2974243,-3.3199015,5.8578916
1570726826,-2.3115997,-10.626068,-8.526352,2.823288,-3.2523346,2.0845337,-2.1520314,-2.8808355,-13.019586
1570726826,-2.3115997,-10.626068,-8.526352,2.791336,-3.7104034,1.6190033,-2.1520314,-2.8808355,-13.019586
1570726826,7.2167206,-10.485413,-5.0062714,2.0552368,-0.37612915,0.29914856,6.183981,-1.0807009,-6.675469
1570726826,7.2167206,-10.485413,-5.0062714,2.0552368,-0.37612915,0.29914856,6.183981,-1.0807009,-6.675469
1570726826,-0.26097107,-7.400482,0.3501587,0.6991577,0.0904541,-0.44866943,0.19116376,2.2275085,-3.8825393
1570726826,-0.25857544,-7.234085,0.015563965,0.64482117,0.16183472,-0.46891785,0.19116376,2.2275085,-3.8825393
1570726826,-0.47525024,-4.470566,-0.0053863525,-0.3938141,0.035064697,-0.23028564,-0.5380644,5.3197727,-4.2853417
1570726826,-0.5129547,-4.3466797,-0.07661438,-0.3938141,0.035064697,-0.23028564,-0.5380644,5.3197727,-4.2853417
1570726826,-1.2503662,-4.6309814,-0.4303589,-1.7243195,-0.4975586,0.46105957,-1.2532123,5.494643,-3.9969678
1570726826,-1.2503662,-4.6309814,-0.4303589,-1.7243195,-0.4975586,0.46105957,-1.2532123,5.494643,-3.9969678
1570726826,-1.4850006,-5.052368,-0.15023804,-1.9320526,-0.6211395,0.8296509,-1.3220198,5.127492,-3.4125018
1570726826,0.2926941,-11.432907,2.1751251,-0.91259766,3.560028,-0.12057495,1.4869063,-0.7565222,0.67426205
1570726826,0.2926941,-11.432907,2.1751251,-0.91259766,3.560028,-0.12057495,1.4869063,-0.7565222,0.67426205
1570726826,-0.57640076,-12.932877,9.594162,-3.0058289,4.7328796,-0.5541382,0.10470015,-2.2194033,1.497898
1570726826,-0.9211731,-6.3494263,6.2704163,-0.28408813,-2.2627106,-0.4412079,-0.0963158,4.0314713,5.5889993
1570726826,-0.9211731,-6.3494263,6.2704163,-0.28408813,-2.2627106,-0.4412079,-0.0963158,4.0314713,5.5889993
1570726827,-5.0846863,-13.24353,0.4908142,0.08023071,0.1565094,0.07650757,-4.6775417,-2.4123201,-0.29495978
1570726827,-3.822342,-18.41919,6.3793488,-0.2073822,2.0984802,0.67944336,-4.4573326,-8.780479,4.894666
1570726827,-3.822342,-18.41919,6.3793488,-0.2073822,2.0984802,0.67944336,-4.4573326,-8.780479,4.894666
1570726827,-1.8992004,-16.773178,-0.27713013,1.4075623,-1.7939911,-0.0033874512,-0.7261595,-3.6999512,-1.2339677
1570726827,-1.8992004,-16.773178,-0.27713013,1.4075623,-1.7939911,-0.0033874512,-0.7261595,-3.6999512,-1.2339677
1570726827,2.407364,-10.753555,-0.33398438,0.6927643,2.6971588,-0.035354614,3.7126977,-0.12945461,-1.1065583
1570726827,2.1853027,-10.81102,-0.9816284,0.6927643,2.6929016,-0.05026245,3.7126977,-0.12945461,-1.1065583
1570726827,-0.32261658,-10.47464,-5.5838776,-0.5141754,-1.05896,-0.096069336,0.4711982,-0.47780704,-7.949271
1570726827,-0.43515015,-9.278732,-2.2170258,-1.175705,-2.6749573,-0.35173035,0.5597801,1.2623491,-3.9540596
1570726827,-1.3503265,-9.167999,0.28311157,-1.5549469,-3.3396912,0.0104522705,-0.8218435,1.3925571,-0.6233761
1570726827,-1.498764,-9.112335,0.37768555,-1.571991,-3.321579,0.039215088,-0.8218435,1.3925571,-0.6233761
1570726827,0.63327026,-9.083008,19.612701,-3.5597687,2.313675,0.093551636,0.14139003,1.7418947,15.123427
1570726827,-2.5510254,-9.658203,14.046783,1.611023,4.0596313,0.039215088,-0.36111683,1.5167999,20.141869
1570726827,0.81881714,-7.8218536,-1.4999695,0.78863525,-1.9708252,0.78170776,1.7531934,1.933712,-3.2342086
1570726827,0.81881714,-7.8218536,-1.4999695,0.78863525,-1.9708252,0.78170776,1.7531934,1.933712,-3.2342086
1570726827,3.3423004,-9.358337,3.5673676,0.4434967,-1.5138245,0.54415894,3.6873174,1.3268013,1.4903518
1570726827,3.3423004,-9.358337,3.5673676,0.4434967,-1.5138245,0.54415894,3.6873174,1.3268013,1.4903518
1570726827,2.0566254,-12.252335,4.107849,1.2243347,0.5155029,0.30873108,3.5166135,-1.1863356,2.4436522
1570726827,2.0566254,-12.252335,4.107849,1.2243347,0.5155029,0.30873108,3.5166135,-1.1863356,2.4436522
1570726827,0.73861694,-16.689377,10.130463,2.0051727,1.0587921,0.044540405,2.717528,-5.944499,7.29108
1570726827,-2.7623138,-16.90306,5.570709,2.8925323,0.9096527,-0.047073364,-1.0445065,-6.8235207,3.9639943
1570726827,-6.32428,-11.93689,1.7148438,1.1582794,-0.86294556,-0.0033874512,-5.432966,-3.5444746,-3.7616863
1570726827,-6.32428,-11.93689,1.7148438,1.1582794,-0.86294556,-0.0033874512,-5.432966,-3.5444746,-3.7616863
1570726827,-3.0615845,-9.34697,-1.2455902,0.66719055,-0.12046814,-0.0033874512,-2.113534,0.22300243,-4.868678
1570726827,0.49021912,-8.067856,0.6212921,-1.0074005,-0.707428,-0.4806366,1.9405175,1.6853209,-3.2762494
1570726827,0.49021912,-8.067856,0.6212921,-1.0074005,-0.707428,-0.4806366,1.9405175,1.6853209,-3.2762494
1570726827,-2.0931244,-4.8793793,1.2228394,-1.5400391,-0.7393799,-0.4113922,-1.3704989,5.0070515,-2.280742
1570726827,-2.0530243,-4.7895966,1.4371185,-1.5379028,-0.7212677,-0.3911438,-1.3704989,5.0070515,-2.280742
1570726827,-2.0608063,-3.802597,0.94091797,-1.4558716,-0.3952942,0.19900513,-1.5127861,6.526724,-1.5558236
1570726827,-1.6633759,-4.8404846,1.4484863,-1.445221,-0.32286072,0.53456116,-1.1327643,6.0147533,-1.5833776
1570726827,1.4449005,-9.557648,3.712204,-1.0446777,3.8178253,0.1105957,2.3964677,1.3962584,2.0478265
1570726827,1.7453766,-11.22522,3.7642822,-1.4697266,4.9981384,-0.033218384,2.8462934,-0.24773693,2.0730386
1570726828,-1.6974945,-8.881287,6.2781982,0.086624146,0.73921204,-0.091812134,-0.6879699,0.3203478,6.330339
1570726828,-3.0196838,-11.184509,10.244186,-0.17649841,-2.3596497,-1.2113953,-0.120465994,1.901824,7.86684
1570726828,-3.0196838,-11.184509,10.244186,-0.17649841,-2.3596497,-1.2113953,-0.120465994,1.901824,7.86684
1570726828,-4.2467194,-14.833878,-6.522995,1.9646912,-2.079483,0.013656616,-3.573944,-4.3097706,-8.458389
1570726828,-4.2467194,-14.833878,-6.522995,1.9646912,-2.079483,0.013656616,-3.573944,-4.3097706,-8.458389
1570726828,-8.837601,-19.612701,0.22206116,0.98677063,-2.0709534,0.3918152,-8.259839,-9.162787,-5.6827374
1570726828,-4.1533356,-12.121841,10.374069,0.5212555,4.385605,0.12763977,1.3838015,-0.07103348,8.508626
1570726828,1.3886414,-13.130997,-6.519409,2.1138306,1.9610596,0.72099304,1.3322172,-2.8985043,-6.9572597
1570726828,0.6188965,-14.953583,-9.433746,-0.1519928,-1.0504303,0.037094116,1.8751484,-4.602331,-12.64822
1570726828,1.2192535,-11.568192,-0.33338928,-1.1874237,-2.078415,-0.31977844,2.740397,-1.7872734,-2.7790034
1570726828,-0.25138855,-9.819214,0.54707336,-1.4388275,-0.88531494,-0.48382568,0.8524204,0.6455431,-1.0941719
1570726828,-0.010772705,-9.530121,0.6649933,-1.8159332,-0.49116516,-0.13761902,0.5758726,1.1324205,-0.3152089
1570726828,0.50457764,-8.426987,2.6396027,-3.2806702,0.3418579,0.18409729,1.3362896,2.108018,1.1280855
1570726828,-2.0811615,-9.326019,10.380661,-3.7653656,0.8617096,-0.03640747,-0.72475404,1.6402731,8.62825
1570726828,0.19273376,-8.371918,-5.950928E-4,1.3361816,-0.68292236,0.39927673,1.0163735,2.2892857,1.7434189
1570726828,0.17417908,-8.357559,-0.46388245,1.2392426,-0.5593567,0.41845703,1.0499034,2.2209053,0.47013843
1570726828,0.8032532,-7.198166,-0.22865295,0.5862427,-0.093826294,0.5196533,1.4631724,2.7008934,-1.1630659
1570726828,-2.4528656,-13.9133,2.90596,0.11752319,0.69447327,0.5888977,-1.3158746,-2.1354551,1.5660102
1570726828,-2.4528656,-13.9133,2.90596,0.11752319,0.69447327,0.5888977,-1.3158746,-2.1354551,1.5660102
1570726828,2.2385712,-9.9401245,6.0064545,0.112197876,-0.05227661,0.75401306,2.7111468,-0.7542553,5.496669
1570726828,0.8601227,-8.617935,1.0821838,1.550293,0.54426575,0.13722229,2.7917361,2.3746576,1.1326714
1570726828,1.8632812,-10.9522705,-0.34536743,1.4086151,1.0140533,-0.016174316,2.9925666,0.4674158,-1.1505852
1570726828,0.70928955,-14.964355,10.31662,1.6674805,-1.9718933,-0.7970123,2.1076875,-4.495266,6.9919844
1570726828,0.375885,-15.155304,11.189896,1.8411102,-2.0049133,-0.85879517,2.1076875,-4.495266,6.9919844
1570726828,-2.8515015,-17.126328,10.718842,2.6880035,-0.055480957,-1.0217896,-1.6766019,-6.4106245,9.086369
1570726828,-4.134186,-19.612701,-4.708191,2.1777344,1.3986053,1.041626,-1.2671664,-9.494971,-7.2212105
1570726828,-4.9990997,-9.006393,-0.5566559,1.6834564,-1.6448517,-0.16317749,-3.5426834,-4.180375,-5.259512
1570726828,-2.0362701,-11.133636,5.2510834,0.78756714,0.5623779,0.26611328,-2.5704556,-1.7558908,1.1463146
1570726828,0.4303589,-10.347733,-2.8359375,-0.7016754,1.3304291,-0.569046,1.6173786,-0.6177559,-7.328551
1570726828,0.4303589,-10.347733,-2.8359375,-0.7016754,1.3304291,-0.569046,1.6173786,-0.6177559,-7.328551
1570726828,-0.21247864,-8.860947,0.7841034,-1.2577362,0.2534485,-0.91952515,1.4982442,1.0753946,-3.9952257
1570726828,-3.2698822,-6.5242004,1.6711578,-0.8124542,1.1301575,-0.23881531,-2.1223865,3.4732018,-1.5075204
1570726828,-3.3429108,-5.558136,0.51594543,-0.44706726,0.81910706,0.15213013,-2.3203917,4.420472,-2.345973
1570726828,-2.771881,-6.72052,0.5051727,-0.9967499,-0.44856262,1.3271179,-1.5444877,3.632285,-2.7861526
1570726829,-0.025146484,-5.9675446,5.697006,-0.9690552,0.94906616,2.281601,1.7564862,3.6433668,2.9444356
1570726829,-0.025146484,-5.9675446,5.697006,-0.9690552,0.94906616,2.281601,1.7564862,3.6433668,2.9444356
1570726829,0.09158325,-8.7939,2.5396423,-0.78157043,4.2513885,-0.09925842,3.2738163,3.4229355,1.4823347
1570726829,-0.096969604,-10.516525,1.916565,-0.63775635,4.303589,-0.3868866,3.3003945,1.5027428,1.3856956
1570726829,-0.82121277,-8.807663,8.54071,-2.2846527,-5.4936523,-2.0625458,1.5817814,1.5987415,7.4740343
1570726829,-0.82121277,-8.807663,8.54071,-2.2846527,-5.4936523,-2.0625458,1.5817814,1.5987415,7.4740343
1570726829,-5.91008,-10.418961,2.8568878,0.5958252,-0.75749207,-1.6375122,-4.291939,0.306571,3.8036075
1570726829,-7.15567,-18.151047,-4.217987,-0.8316345,1.775711,-0.99302673,-6.3122363,-6.8898726,-5.034276
1570726829,-6.901291,-18.388062,-3.7403412,-0.9647827,1.8534698,-0.9078064,-6.3122363,-6.8898726,-5.034276
1570726829,-1.9147644,-16.471512,0.8200073,1.165741,-1.7545776,-0.07156372,-1.8631979,-5.9927053,0.39024985
1570726829,-1.5436554,-16.063293,0.7661438,1.2658691,-1.8046417,0.0871582,-1.8631979,-5.9927053,0.39024985
1570726829,-0.3040619,-14.416092,0.7080841,0.7577362,-0.262146,0.09994507,1.1662465,-6.3981495,0.9975877
1570726829,0.9337311,-13.9953,0.2340393,1.1465607,-0.33244324,-0.07156372,1.667362,-1.6794739,-0.69470274
1570726829,-0.76135254,-13.084915,-2.4169464,0.046142578,0.3929901,0.24055481,0.1979835,-2.6539297,-3.947374
1570726829,-0.8379669,-12.981964,-2.37146,-0.003921509,0.31736755,0.22990417,0.1979835,-2.6539297,-3.947374
1570726829,-1.7974396,-10.606918,-2.6827087,-0.46411133,-0.916214,0.16279602,-0.88160706,-0.34239292,-4.0323415
1570726829,-3.039444,-10.657196,-0.30586243,-1.9267273,-0.8054199,0.5643921,-2.3864255,-0.40292358,-1.3633419
1570726829,-1.5837708,-7.66803,0.06703186,-3.0090332,-1.6043701,0.9042206,-0.33238935,2.924694,0.21909165
1570726829,-1.5837708,-7.66803,0.06703186,-3.0090332,-1.6043701,0.9042206,-0.33238935,2.924694,0.21909165
1570726829,1.9578552,-7.0156097,6.4739227,-2.7895813,-4.4923096,0.58036804,2.7428622,3.2539482,5.5291348
1570726829,0.52433777,-4.6632996,4.146759,0.81207275,-0.8277893,0.69755554,2.0703676,5.0907307,6.19036
1570726829,0.52433777,-4.6632996,4.146759,0.81207275,-0.8277893,0.69755554,2.0703676,5.0907307,6.19036
1570726829,3.6948547,-9.491211,1.4233551,1.2413788,0.05104065,0.77319336,5.5725703,0.9949961,1.371702
1570726829,3.6948547,-9.491211,1.4233551,1.2413788,0.05104065,0.77319336,5.5725703,0.9949961,1.371702
1570726829,1.1887207,-13.353653,1.4059906,1.548172,-1.0887909,-0.50193787,3.679083,-2.8199005,1.2654432
1570726829,1.2378082,-13.332718,1.138443,1.6344604,-1.1207428,-0.50619507,3.50055,-3.0923777,0.99651384
1570726829,-3.052002,-16.496643,0.5165558,1.8485718,-1.4190216,-1.1112671,-0.17347789,-5.5157137,-0.9004358
1570726829,-5.8568115,-16.974289,3.1669312,1.6600189,-2.128479,-1.49263,-4.0592556,-6.7268295,0.957412
1570726829,-5.336075,-16.850388,3.8504791,1.7740021,-2.5641785,-1.9975739,-4.1839724,-6.4851665,1.4492273
1570726829,-4.027649,-14.501678,2.5594025,0.32312012,-1.202774,-0.90460205,-4.8123417,-4.9777355,-0.58520675
1570726829,-3.9037476,-14.278427,2.6952667,0.29115295,-1.1367188,-0.8140564,-4.4683337,-4.333557,-0.53103447
1570726829,-1.9351196,-13.233353,3.1381989,0.015258789,0.096847534,0.14575195,-2.8348124,-3.435112,0.26993704
1570726829,-0.7978668,-11.329361,2.8921967,-0.06996155,0.276886,0.103134155,-2.1931233,-2.5705042,0.005441904
1570726830,-1.0007782,-8.058289,0.8439636,-0.648407,1.2984772,-1.668396,-1.7959404,1.7889242,-1.7186358
1570726830,-1.0893555,-7.882904,0.7068939,-0.68463135,1.3208466,-1.6779938,-1.7959404,1.7889242,-1.7186358
1570726830,-2.3421326,-8.057678,3.0783386,-1.7498932,0.42282104,-1.6577454,-3.817246,2.6145258,-0.6637044
1570726830,-2.4774017,-8.042725,3.4410706,-1.731781,0.46116638,-1.6311188,-4.0641174,2.4063005,0.71902156
1570726830,0.026931763,-7.25383,2.0129242,-0.54826355,1.0641174,-0.5722351,-2.2363553,3.2510252,0.69722974
1570726830,0.026931763,-7.25383,2.0129242,-0.54826355,1.0641174,-0.5722351,-2.2363553,3.2510252,0.69722974
1570726830,5.2947845,-7.238266,2.3062134,-0.18821716,-0.121520996,-0.47317505,2.385547,3.0673885,0.9168594
1570726830,6.4493866,-8.95192,1.7142487,-0.5653076,-0.13856506,-1.2710571,3.1571045,1.0920095,1.2700772
1570726830,6.5684967,-8.987228,1.6903076,-0.59194946,-0.15135193,-1.3115387,3.2384477,1.0911789,0.63461137
1570726830,1.462265,-10.541672,5.4288483,-0.648407,-1.3987732,-0.50193787,-1.5530784,-0.4121456,4.2421002
1570726830,0.75717163,-11.985367,4.604645,-0.71658325,-0.9812012,0.14575195,-2.8236613,-1.6102028,4.4617887
1570726830,3.1459808,-12.298416,0.020355225,-0.8635864,-0.8139496,1.0533447,-0.6895001,-2.1353855,0.5797827
1570726830,0.9421234,-14.526215,-1.0013733,-1.3930206,-0.5913086,1.1130066,-1.4312727,-4.3164034,-0.059230387
1570726830,0.40641785,-14.2365265,-1.5137329,-1.3440247,-0.7969055,1.1929016,-1.8464932,-4.15746,-0.47773504
1570726830,-0.2633667,-13.46199,-0.6201019,-1.2737122,1.3698425,1.7319183,-2.3614507,-2.742731,0.80014455
1570726830,-0.2633667,-13.46199,-0.6201019,-1.2737122,1.3698425,1.7319183,-2.3614507,-2.742731,0.80014455
1570726830,3.0113068,-12.801193,-1.1013336,-1.3184509,0.8159027,1.7670746,1.8967437,-2.2472515,0.33049083
1570726830,4.730942,-12.915527,-2.6491852,-0.35012817,-0.40914917,1.5625458,4.1758127,-2.6557312,0.11114359
1570726830,4.8608246,-12.734161,-2.8389282,-0.3373413,-0.50608826,1.5188751,4.1758127,-2.6557312,0.11114359
1570726830,4.568741,-11.867462,-0.46087646,0.035491943,-0.8373871,0.80940247,5.0168886,-1.3402004,1.5845599
1570726830,1.8213959,-11.590332,-1.6184845,0.08236694,0.6870117,0.51646423,2.5465536,-0.8447819,0.2839899
1570726830,2.8491058,-10.49678,0.11730957,0.110061646,1.1259003,1.0714569,3.070047,-0.4004326,2.237461
1570726830,5.015854,-7.1568604,3.588913,1.3329926,1.0790253,0.2725067,5.79763,3.0527477,5.2544427
1570726830,5.039795,-7.0976105,3.5464172,1.4427032,1.1408081,0.20327759,5.7969856,3.3487654,5.505621
1570726830,5.365402,-7.8164673,-0.74339294,2.2672272,1.1365509,-0.8556061,5.4237604,3.0576572,1.2790734
1570726830,4.118622,-7.684189,1.1528015,2.3705597,0.22254944,-1.2635956,4.4728622,2.8193407,1.5690422
1570726830,2.3223724,-8.0151825,2.3115997,2.9063873,0.5080414,-1.6108704,2.074087,2.9174871,1.0650053
1570726830,0.39804077,-9.946106,2.071579,3.744751,1.4902191,-1.0079346,-0.55370426,0.8064766,0.08196664
1570726830,0.33039856,-9.946106,2.071579,3.744751,1.4902191,-1.0079346,-0.55370426,0.8064766,0.08196664
1570726830,-0.833786,-13.008301,3.277069,4.7237244,1.6052704,-0.1365509,-1.8794088,-3.4488106,-1.6617007
1570726830,-0.833786,-13.008301,3.277069,4.7237244,1.6052704,-0.1365509,-1.8794088,-3.4488106,-1.6617007
1570726830,-0.79907227,-11.744156,0.4123993,3.9524689,1.13974,-0.19300842,-1.4383923,-3.4700975,-6.147518
1570726830,-1.8004456,-10.472244,4.1838684,1.8400574,0.14372253,-0.6244354,-2.7337344,-3.316328,-3.8308992
1570726830,-1.7082672,-10.269333,4.4376526,1.7431183,0.16822815,-0.6137848,-2.7337344,-3.316328,-3.8308992
1570726831,-1.9255371,-9.397247,7.5968018,1.1252594,0.21936035,-0.4390869,-2.426508,-1.8407431,-0.9118047
1570726831,-0.87687683,-11.686691,10.750565,2.4365997,0.67848206,1.1098175,-2.0121002,-5.8821135,2.4801197
1570726831,-0.87687683,-11.686691,10.750565,2.4365997,0.67848206,1.1098175,-2.0121002,-5.8821135,2.4801197
1570726831,1.9542694,-7.3154907,11.34433,2.379074,1.4444122,0.30021667,2.013833,-1.6739473,5.4521933
1570726831,-1.5682068,-7.2831573,10.45668,2.8744202,2.7578888,0.17237854,-0.69227433,-3.145557,1.0877819
1570726831,-1.241394,-1.7220306,7.019806,1.9668121,-1.950592,0.43443298,-0.68418336,1.1331432,-5.397583
1570726831,-0.9911957,-1.6400299,7.7883453,1.9913177,-2.1870728,0.3971405,-0.11956501,1.2722011,-3.6510086
1570726831,-0.1149292,-0.96965027,9.422974,2.8936005,-1.5255432,-0.615921,0.5161954,1.2954369,-0.646904
1570726831,-5.1595,-4.173691,10.143631,1.9593658,-0.47732544,0.100997925,-5.533317,-3.1327085,-0.8886881
1570726831,-5.1595,-4.173691,10.143631,1.9593658,-0.47732544,0.100997925,-5.533317,-3.1327085,-0.8886881
1570726831,2.7928314,0.27293396,7.479492,2.8914642,-0.18011475,0.59954834,2.6097956,-0.69336283,-3.7370176
1570726831,2.9867706,0.58299255,7.7177124,3.031021,-0.3675995,0.561203,2.6097956,-0.69336283,-3.7370176
1570726831,0.26934814,1.7950592,7.1879883,3.7862854,-1.4456482,-0.538147,0.8538302,0.5857011,-3.0702267
1570726831,-0.6177063,-0.7846985,6.5319824,2.5463257,-1.8493805,-0.54774475,-1.1660862,-3.5426505,-4.213855
1570726831,1.0815735,2.1481934,7.680603,1.5353851,-1.4019775,-0.65000916,-0.15085721,-1.4488924,-2.55618
1570726831,1.0815735,2.1481934,7.680603,1.5353851,-1.4019775,-0.65000916,-0.15085721,-1.4488924,-2.55618
1570726831,1.2683258,3.7618866,6.676834,-0.31817627,0.6529236,-1.2305756,0.03396237,-0.9831171,-3.0536785
1570726831,1.2683258,3.7618866,6.676834,-0.31817627,0.6529236,-1.2305756,0.03396237,-0.9831171,-3.0536785
1570726831,-0.16160583,2.3313599,13.925278,-1.0819702,0.36210632,-1.2103424,-0.83199495,-1.4313061,6.290614
1570726831,1.8572998,1.6358337,13.138779,-1.1064758,0.31097412,-1.0388336,1.3868985,-1.6509917,2.9650755
1570726831,0.48841858,1.5753784,14.304764,-1.2524109,0.24172974,-0.8470764,0.5105647,-1.5056999,3.9088478
1570726831,0.48841858,1.5753784,14.304764,-1.2524109,0.24172974,-0.8470764,0.5105647,-1.5056999,3.9088478
1570726831,0.45968628,2.3259735,13.2686615,-0.34268188,-0.10128784,-0.25585938,0.24883088,-0.3017385,3.6105213
1570726831,0.72784424,1.7286072,12.364853,0.13563538,-0.60835266,-0.25585938,0.43876347,-0.58339906,1.959445
1570726831,0.72784424,1.7286072,12.364853,0.13563538,-0.60835266,-0.25585938,0.43876347,-0.58339906,1.959445
1570726831,0.99957275,1.8231812,9.373306,0.30075073,-0.24510193,-0.16105652,0.11411813,-1.0591478,-0.7956734
1570726831,0.99957275,1.8231812,9.373306,0.30075073,-0.24510193,-0.16105652,0.33851397,-0.965986,-0.9227562
1570726831,1.2455902,1.5915527,9.158417,0.2517395,-0.04801941,-0.2856903,0.76151425,-1.1459544,-1.0802603
1570726831,0.5704193,2.1559753,8.859146,0.5233917,-0.215271,-0.280365,-0.254686,-2.200462,-1.3384857
1570726831,0.5704193,2.1559753,8.859146,0.5233917,-0.215271,-0.280365,-0.254686,-2.200462,-1.3384857
1570726831,0.7260437,1.4215546,8.704117,0.28370667,-0.17160034,-0.105651855,-0.047571123,-1.751648,-1.5009241
1570726831,0.8523407,1.4335327,8.798096,0.28157043,-0.17053223,-0.08753967,-0.047571123,-1.751648,-1.5009241
1570726832,0.47584534,2.051834,8.285141,0.1409607,0.1565094,-0.0342865,0.109603345,-1.2232697,-1.6212225
1570726832,0.47584534,2.051834,8.285141,0.1409607,0.1565094,-0.0342865,0.109603345,-1.2232697,-1.6212225
1570726832,2.2876587,2.323578,10.985794,0.27731323,-0.35055542,0.04774475,1.0088232,0.48035145,0.6188402
1570726832,2.5779572,2.600708,11.278488,0.33695984,-0.3633423,0.039215088,1.0088232,0.48035145,0.6188402
1570726832,1.4706421,3.478775,7.396881,0.5510864,0.0861969,-0.08648682,0.66790247,-0.51262426,-2.3674784
1570726832,1.4598694,3.6338043,7.380722,0.5084686,0.08407593,-0.105651855,0.66790247,-0.51262426,-2.3674784
1570726832,0.96546936,3.9737701,8.761581,0.23043823,-0.07571411,-0.1599884,0.42210972,0.1460867,-1.6320219
1570726832,0.6949158,3.4829712,9.285904,-0.4065857,-0.13323975,-0.1599884,0.036253393,-0.26374054,-0.69272995
1570726832,0.7146759,3.4745789,9.363129,-0.45132446,-0.17585754,-0.1599884,0.024315655,-0.40281534,-0.5530338
1570726832,1.7070618,2.605484,12.601883,-0.8827667,-0.28877258,-0.21218872,0.7095809,-1.0222273,1.7655954
1570726832,-0.09336853,2.9897614,12.309784,0.6693268,-0.13005066,-0.19407654,-0.39448678,-1.1826124,3.4601831
1570726832,-0.6775665,2.8484955,9.737213,0.70448303,-0.5710602,-0.22390747,-1.1960609,-0.63964343,0.45869255
1570726832,0.9911957,3.509903,11.739365,-0.01777649,-0.45602417,-0.20791626,-0.1915096,-0.23595428,1.31219
1570726832,0.9911957,3.509903,11.739365,-0.01777649,-0.45602417,-0.20791626,-0.1915096,-0.23595428,1.31219
1570726832,0.53689575,2.8299408,9.696518,-0.17436218,0.1884613,-0.43055725,-0.32958043,-0.94051075,0.33277416
1570726832,0.53689575,2.8299408,9.696518,-0.17436218,0.1884613,-0.43055725,-0.32958043,-0.94051075,0.33277416
1570726832,0.4734497,2.419342,12.108078,0.2794342,-0.14389038,-0.52005005,-0.14837474,-1.0840726,2.2197752
1570726832,0.4734497,2.419342,12.108078,0.2794342,-0.14389038,-0.52005005,-0.14837474,-1.0840726,2.2197752
1570726832,-0.35134888,3.0843353,7.4339905,0.24108887,-0.29196167,-0.48168945,-0.9020303,-0.8885026,-2.520812
1570726832,-0.35134888,3.0843353,7.4339905,0.24108887,-0.29196167,-0.48168945,-0.9020303,-0.8885026,-2.520812
1570726832,-0.16160583,2.80661,9.424179,-0.26171875,0.057434082,-0.52430725,-0.5563193,-0.6817019,-0.445961
1570726832,-0.052078247,2.692276,9.563644,-0.27023315,0.061706543,-0.49980164,-0.5563193,-0.6817019,-0.445961
1570726832,0.8242035,2.8323364,11.107895,-0.091278076,-0.3729248,-0.50086975,0.10040939,-0.9262314,1.0632267
1570726832,0.8242035,2.8323364,11.107895,-0.091278076,-0.3729248,-0.50086975,0.10040939,-0.9262314,1.0632267
1570726832,0.48483276,2.945465,11.122269,-0.020965576,-0.33776855,-0.5583954,0.06761527,-0.7520313,1.3169813
1570726832,0.48483276,2.945465,11.122269,-0.020965576,-0.33776855,-0.5583954,0.06761527,-0.7520313,1.3169813
1570726832,0.48483276,2.945465,11.122269,-0.020965576,-0.33776855,-0.5583954,0.06761527,-0.7520313,1.3169813
1570726832,0.48483276,2.945465,11.122269,-0.020965576,-0.33776855,-0.5583954,0.06761527,-0.7520313,1.3169813
1570726832,0.9044037,1.1180878,11.743561,-0.16477966,-0.21313477,0.028564453,0.012033045,-1.701828,1.588397
1570726832,0.9044037,1.1180878,11.743561,-0.16477966,-0.21313477,0.028564453,0.012033045,-1.701828,1.588397
1570726832,0.4728546,0.76734924,10.426147,0.014190674,0.03187561,0.1105957,-0.23794138,-2.0634687,0.5015764
1570726832,0.4728546,0.76734924,10.426147,0.014190674,0.03187561,0.1105957,-0.23794138,-2.0634687,0.5015764
1570726832,0.4728546,0.76734924,10.426147,0.014190674,0.03187561,0.1105957,-0.23794138,-2.0634687,0.5015764
1570726832,0.4728546,0.76734924,10.426147,0.014190674,0.03187561,0.1105957,-0.23794138,-2.0634687,0.5015764
1570726832,0.4728546,0.76734924,10.426147,0.014190674,0.03187561,0.1105957,-0.23794138,-2.0634687,0.5015764
1570726833,-0.2639618,-1.1414337,10.415375,-1.7189941,1.4880829,-0.2420044,0.6632984,-2.2880006,-0.24696827
1570726833,-1.051651,-0.6368561,9.991608,-0.681427,0.29499817,-0.16638184,0.08209276,-1.3350918,-0.17158604
1570726833,-1.1575928,-0.9295502,9.092575,-0.5887451,0.06489563,-0.26437378,0.037596107,-1.2947717,-1.4171896
1570726833,-1.1575928,-0.9295502,9.092575,-0.5887451,0.06489563,-0.26437378,0.037596107,-1.2947717,-1.4171896
1570726833,-1.1575928,-0.9295502,9.092575,-0.5887451,0.06489563,-0.26437378,0.037596107,-1.2947717,-1.4171896
1570726833,-1.1575928,-0.9295502,9.092575,-0.5887451,0.06489563,-0.26437378,0.037596107,-1.2947717,-1.4171896
1570726833,0.2639618,-0.6188965,9.834778,-1.2087402,-0.18864441,0.8573456,-0.09597325,-3.0247345,-0.6231594
1570726833,-0.56503296,0.049682617,13.485336,0.275177,-0.20887756,0.28955078,0.17844054,0.88329744,3.1022463
1570726833,-0.9941864,-0.84994507,19.612701,0.31565857,2.0185852,0.5622711,-1.2373624,0.2647357,2.8634148
1570726833,-1.4209595,-1.874054,14.347855,1.1923676,4.194931,0.7156677,0.10559857,-0.81362975,5.136614
1570726833,-1.4209595,-1.874054,14.347855,1.1923676,4.194931,0.7156677,0.10559857,-0.81362975,5.136614
1570726833,-1.4209595,-1.874054,14.347855,1.1923676,4.194931,0.7156677,0.10559857,-0.81362975,5.136614
1570726833,-1.4209595,-1.874054,14.347855,1.1923676,4.194931,0.7156677,0.10559857,-0.81362975,5.136614
1570726833,-0.7068939,0.3142395,11.411362,2.1969147,-0.91407776,1.7415161,0.95250297,-0.66157293,0.874527
1570726833,-0.03352356,0.5602417,10.463257,1.5747986,0.6028595,1.6435089,1.2270449,-1.4512041,0.6808491
1570726833,-0.23582458,2.1122894,9.244614,0.85787964,1.0843506,1.3899689,1.6920652,-0.2500136,-1.1377716
1570726833,-0.3214264,2.2116394,9.293091,0.8173981,1.0737,1.3675995,1.5757912,-0.09635162,-1.0677614
1570726833,-0.3214264,2.2116394,9.293091,0.8173981,1.0737,1.3675995,1.5757912,-0.09635162,-1.0677614
1570726833,-0.3214264,2.2116394,9.293091,0.8173981,1.0737,1.3675995,1.5757912,-0.09635162,-1.0677614
1570726833,-0.3214264,2.2116394,9.293091,0.8173981,1.0737,1.3675995,1.5757912,-0.09635162,-1.0677614
1570726833,-2.079361,0.86968994,9.770142,-0.31924438,0.31736755,0.73057556,0.15693665,-1.5919878,-0.32024765
1570726833,-2.4181366,1.4029999,8.99501,-0.38102722,0.25131226,0.52604675,-0.0019023418,-0.9812038,-1.1130466
1570726833,-2.3852234,1.1845245,9.064453,-0.5322876,0.34931946,0.420578,0.00839901,-1.0020628,-0.90100384
1570726833,-2.3852234,1.1845245,9.064453,-0.5322876,0.34931946,0.420578,0.00839901,-1.0020628,-0.90100384
1570726833,-2.3852234,1.1845245,9.064453,-0.5322876,0.34931946,0.420578,0.00839901,-1.0020628,-0.90100384
1570726833,-2.3852234,1.1845245,9.064453,-0.5322876,0.34931946,0.420578,0.00839901,-1.0020628,-0.90100384
1570726833,-3.0334473,0.9211731,10.251373,-0.31817627,-0.041625977,0.46958923,-0.23308134,-1.1850824,-1.2156305
1570726833,-3.257309,0.87927246,10.491989,-0.46943665,0.24066162,0.50154114,-0.7530091,-0.6966764,0.2104969
1570726833,-3.1711273,0.7302246,10.666168,-0.36824036,0.12135315,0.5793152,-0.65957665,-0.6978996,0.5110369
1570726833,-3.1405945,0.7044983,10.655991,-0.3277588,0.07022095,0.58569336,-0.61384225,-0.74293065,0.45330238
1570726833,-3.1405945,0.7044983,10.655991,-0.3277588,0.07022095,0.58569336,-0.61384225,-0.74293065,0.45330238
1570726833,-3.1405945,0.7044983,10.655991,-0.3277588,0.07022095,0.58569336,-0.61384225,-0.74293065,0.45330238
1570726833,-3.1405945,0.7044983,10.655991,-0.3277588,0.07022095,0.58569336,-0.61384225,-0.74293065,0.45330238
1570726834,-2.691681,0.59077454,10.479416,-0.07209778,-0.09489441,0.27996826,-0.05867076,-0.5969727,0.24578762
1570726834,-2.525879,0.5051727,10.334564,0.07383728,-0.06399536,0.258667,0.07771516,-0.69083226,0.14669895
1570726834,-2.395996,0.8625183,10.405197,0.13668823,-0.02458191,0.25653076,0.21006632,-0.40200794,0.20667267
1570726834,-2.3936005,0.89064026,10.37587,0.1409607,-0.020324707,0.25653076,0.21006632,-0.40200794,0.20667267
1570726834,-2.3936005,0.89064026,10.37587,0.1409607,-0.020324707,0.25653076,0.21006632,-0.40200794,0.20667267
1570726834,-2.3936005,0.89064026,10.37587,0.1409607,-0.020324707,0.25653076,0.21006632,-0.40200794,0.20667267
1570726834,-2.3936005,0.89064026,10.37587,0.1409607,-0.020324707,0.25653076,0.21006632,-0.40200794,0.20667267
1570726834,-1.9632416,1.0378876,11.566986,-0.053985596,0.033996582,0.0019378662,0.642782,-0.36145413,1.2294102
1570726834,-1.9716187,0.16699219,10.706268,-0.020965576,0.38661194,-0.0854187,0.6689255,-1.271892,0.80304146
1570726834,-2.0943298,1.0139465,9.547485,-0.14666748,0.42282104,-0.07688904,0.7773628,-0.5356275,-0.548049
1570726834,-2.1679535,1.1402435,9.572617,-0.17436218,0.39938354,-0.07688904,0.7773628,-0.5356275,-0.548049
