time,ax,ay,az,gx,gy,gz,la_x,la_y,la_z,fox,foy,foz
1570714751,-1.0384064,7.6856995,6.621353,0.1252594,0.31845093,-0.021728516,0.07858896,-0.18597364,-0.33822298
1570714751,-0.96777344,7.3852234,7.3252563,0.20515442,0.4068756,-0.04623413,0.26053798,-0.48510408,0.28649616
1570714751,-0.4769745,7.217636,7.1768036,0.46614075,0.34828186,-0.13891602,0.8570813,-0.6959424,0.3038807
1570714751,-0.89834595,7.260727,7.0020294,0.70262146,0.27371216,-0.25715637,0.52965164,-0.83091354,0.31089067
1570714751,-1.2071991,7.777878,6.082657,0.6397705,0.24708557,-0.26994324,0.29958403,-0.4100895,-0.49068975
1570714752,-1.1700897,7.537262,6.6967773,0.6866455,0.22897339,-0.1974945,0.38750267,-0.6707983,0.30214834
1570714752,-0.8253174,7.1410217,6.0898438,1.0765381,0.4857025,-0.35195923,0.9120171,-1.2365274,-0.04838276
1570714752,-1.1222076,7.4845886,5.9665375,1.4184875,0.8329773,-0.504303,0.7958759,-1.031786,0.2339859
1570714752,-0.9498291,7.4450836,5.153717,1.3811951,0.81700134,-0.5660858,1.2090011,-1.2701435,-0.21360731
1570714752,-2.3204956,7.691681,5.695999,1.2011719,0.4888916,-0.55648804,0.115682125,-1.1528597,0.7571211
1570714752,-2.8580017,8.7547,3.8452759,0.9146118,0.2609253,-0.34877014,-0.31471896,-0.2160511,-0.79622936
1570714752,-2.4055023,8.38002,4.770645,0.36920166,0.20339966,-0.1847229,0.27719355,-0.58510303,0.21610212
1570714752,-2.4880981,8.147781,3.5938873,0.048553467,-0.2131195,-0.14530945,0.23939896,-0.89906025,-0.7584028
1570714752,-2.9166565,8.826538,5.162094,-0.2657013,-0.32817078,-0.2944336,-0.21707559,-0.17282963,0.5687938
1570714752,-2.7011871,8.512894,5.9473877,-0.09738159,-0.1694336,-0.5426483,0.16756678,-0.43343735,1.3256931
1570714752,-2.879547,8.836105,5.968933,0.4778595,0.51979065,-0.9176178,0.19767118,-0.025493622,1.4135003
1570714752,-5.0642548,10.802948,3.6309967,0.5779877,0.7818451,-0.80895996,-1.816745,2.162774,-0.54896545
1570714752,-4.1580505,9.166504,5.7091675,-0.28807068,-0.13961792,-0.74398804,-0.5603366,0.38695908,1.4284573
1570714752,-4.2143097,8.290237,5.0890656,-0.40098572,-0.8959503,-0.70137024,-0.3670802,-0.38307858,0.67074156
1570714752,-5.9920044,9.785416,4.940628,-0.02708435,-0.36863708,-0.53944397,-2.0829318,1.184227,0.31666613
1570714752,-3.6756134,8.87561,6.146103,0.38731384,-0.43362427,-0.7631531,0.32321262,0.29240608,1.6043735
1570714752,-3.4661255,8.97377,5.4996796,0.5662689,-0.18115234,-0.91015625,0.6913767,0.46943283,0.86654615
1570714752,-4.1700287,8.822937,3.8069763,0.6557617,0.57518005,-1.0454559,0.35460806,0.39032745,-1.18114
1570714752,-4.162842,7.743149,5.6936035,0.2594757,0.69129944,-0.70137024,0.45433617,-0.5806837,1.3216162
1570714752,-3.539154,7.044052,5.315323,0.21154785,-0.105529785,-1.3522491,1.5531349,-1.3011827,1.1892219
1570714752,-6.100952,8.608658,3.8620453,0.49169922,-0.4400177,-1.542923,-0.71365166,0.462924,-0.18325615
1570714752,-5.251007,8.018494,5.0052643,0.55029297,-0.27383423,-1.3831329,0.30429888,0.052640438,0.8756933
1570714752,-5.665207,8.341705,4.3624268,0.41394043,-0.8810425,-1.3352051,0.32303095,0.56783724,0.40109634
1570714752,-6.524719,8.420715,3.9230957,0.5023651,-0.621109,-0.8760681,-0.46783447,0.83988667,-0.1568799
1570714752,-6.1979065,7.676117,4.480942,0.87945557,-0.5827637,-0.45210266,-0.38318634,0.1661005,0.32338762
1570714752,-6.326004,7.799423,3.7722626,0.6120758,-0.86932373,-0.47447205,-0.20136833,0.20040369,-0.1787591
1570714752,-6.6599884,7.7694855,3.5436096,0.2861023,-0.87358093,-0.39031982,-0.55606604,0.19863033,-0.4349208
1570714752,-6.64563,8.233963,3.52565,0.42884827,-0.75427246,-0.3178711,-0.5743866,0.65990305,-0.6775403
1570714752,-6.614502,7.794632,3.6609192,0.73991394,-0.8160553,-0.39990234,-0.5007534,0.2950859,-0.50051737
1570714752,-6.9844055,7.498947,3.6465607,0.74417114,-0.82777405,-0.4403839,-0.8356981,-0.12402439,-0.43504953
1570714752,-7.551834,7.66893,3.7171936,0.59609985,-0.71058655,-0.42866516,-1.4002113,0.046714783,-0.3937683
1570714752,-7.757736,8.121445,3.6106415,0.61953735,-0.53482056,-0.5181427,-1.6208138,0.51883507,-0.46767473
1570714752,-7.392624,7.3433228,3.785431,0.8645477,-0.30578613,-0.6864624,-1.1069317,-0.14431143,-0.18920875
1570714753,-7.764923,7.083557,3.6489563,0.82299805,-0.07676697,-0.7706146,-1.3482475,-0.4667654,-0.21869946
1570714753,-6.8024445,6.9279327,3.944641,0.59503174,-0.22483826,-1.078476,-0.1816678,-0.49829197,0.28624678
1570714753,-6.8144226,6.9853973,3.6226196,0.56840515,-0.20991516,-1.1796722,0.02585888,-0.24867868,0.045766115
1570714753,-7.081375,6.9039917,3.371231,0.74417114,0.040420532,-1.00177,-0.017604351,-0.17546988,-0.09880304
1570714753,-6.5091553,6.8441315,3.7483063,0.57266235,-0.10658264,-0.8632965,0.8422427,-0.16656446,0.4640677
1570714753,-6.855118,7.135025,3.252716,0.15934753,-0.24507141,-0.5916443,0.6184144,0.32981968,-0.0155694485
1570714753,-7.432129,8.008911,2.7870483,0.09968567,-0.10871887,-0.17512512,0.031898975,1.0809679,-0.48035407
1570714753,-7.1101074,8.0460205,3.335312,0.26480103,0.008453369,-0.0014953613,0.28860998,1.3125257,-0.007949591
1570714753,-7.2058716,7.6952667,3.0480042,0.34257507,-0.13108826,-0.070739746,0.2711172,0.87940836,-0.09939504
1570714753,-7.234604,7.861664,2.984558,0.14337158,-0.15878296,-0.1655426,0.21375895,0.8982649,-0.17628431
1570714753,-7.4500732,8.226791,2.785843,0.13165283,-0.1385498,-0.13677979,0.0332098,1.414176,-0.41419291
1570714753,-7.4357147,7.5133057,2.9330902,0.48104858,-0.03414917,-0.092041016,0.02427864,0.73655176,-0.2711692
1570714753,-7.2226257,6.6454163,2.945053,0.5236664,0.044677734,-0.13252258,0.26629305,-0.25686216,-0.0635798
1570714753,-7.116089,6.292267,3.0180817,0.21687317,-0.027755737,-0.1889801,0.48681068,-0.65585566,0.075773716
1570714753,-7.053833,6.774704,3.039627,-0.09526062,0.02230835,-0.10482788,0.52476263,-0.046401024,0.091924906
1570714753,-6.38945,6.52211,3.11026,-0.09631348,0.042541504,-0.061141968,1.1330671,-0.19805574,0.14016342
1570714753,-5.8064575,6.4574738,3.319748,-0.07608032,-0.014968872,-0.016403198,1.7020168,-0.38120508,0.29889154
1570714753,-5.7992706,7.07518,3.371231,-0.22415161,-0.22589111,0.06881714,1.6902413,0.16635895,0.27410364
1570714753,-5.532318,7.8365326,2.960617,-0.053710938,-0.24827576,0.15722656,1.9525418,1.0139875,-0.21015048
1570714753,-5.2366333,7.0141144,2.9630127,0.56307983,-0.41444397,0.4096985,2.1206322,0.14729023,-0.28324175
1570714753,-6.1787567,7.700058,3.1916656,0.69836426,-0.5657196,0.77508545,1.1243277,0.5716114,0.074715614
1570714753,-6.887436,7.6066895,3.9709778,0.89224243,-0.80966187,0.5833435,0.27753782,0.15989017,0.9826534
1570714753,-8.480789,7.7742767,3.5795288,0.2083435,-0.97158813,-0.8153534,-2.001563,0.8218317,0.51512694
1570714753,-6.1021423,6.593933,3.9099274,0.3532257,-0.7734375,-0.41801453,0.5189314,-0.5402818,0.43815255
1570714753,-7.9648285,9.265869,3.2778473,0.19023132,-0.65200806,0.2658844,-0.89013386,1.7727132,-0.1610725
1570714753,-7.0825653,9.156937,3.228775,0.41500854,-0.48582458,0.3830719,-0.4348817,2.4247828,-0.5521302
1570714753,-7.678726,8.793015,2.8397217,0.54389954,-0.79901123,0.5492554,-0.9161148,1.2319441,-0.57498956
1570714753,-5.6005554,8.486557,3.1126556,0.3894348,-0.3888855,0.6706848,0.3845706,1.368784,-0.51320076
1570714753,-6.254181,7.33255,3.580719,0.26905823,-0.10765076,0.48640442,0.383296,-0.47201967,0.2332735
1570714753,-6.1739655,8.594299,4.0882874,0.23284912,-0.09060669,0.6280823,0.048740864,0.56762695,0.7620437
1570714753,-6.5259247,8.685272,3.7530975,0.16679382,0.3312378,1.0413971,-0.60044336,0.455472,0.42854
1570714753,-4.542328,8.820541,4.17688,0.21792603,0.22151184,1.2501984,1.013421,0.43013954,0.99593496
1570714753,-4.74823,7.1757355,3.7124023,0.31700134,-0.14920044,0.9455261,0.70777416,-1.3437681,0.6786163
1570714753,-2.8304749,9.690842,2.6350098,-0.24012756,0.051071167,0.6909332,1.5929041,-0.79976845,-1.7798536
1570714754,-3.0267944,8.886383,4.236725,0.09968567,-0.3888855,0.10609436,2.1424546,-0.05582905,0.6946049
1570714754,-3.985672,7.787445,4.779022,0.66641235,-0.8405609,-0.3381195,0.8879285,-0.7044945,1.522285
1570714754,-11.574097,9.444229,0.92674255,0.9891815,-0.14173889,-0.5469055,-7.5587826,0.57975864,-1.9756536
1570714754,-4.052704,6.1593933,3.8560486,0.61953735,1.4550934,0.6856079,1.0538907,-3.034892,1.2119555
1570714754,-4.5566864,10.10144,1.382843,0.6067505,1.5978394,0.8358002,0.17266035,0.65936375,-1.2531316
1570714754,-4.6512604,9.178482,1.9586487,0.5556183,1.4753265,0.8091736,0.095835686,0.16102219,-0.10601807
1570714754,-4.4501495,10.865189,2.2579193,0.325531,1.1951599,0.6706848,0.18930244,1.5503101,0.5847943
1570714754,-3.9796906,8.393188,4.1325836,0.4032898,0.7253876,0.38414,0.4535141,-1.2732716,2.7729173
1570714754,-3.405075,8.612244,1.2044678,0.7090149,0.103271484,0.097579956,1.1806312,-0.9988823,0.066395044
1570714754,-3.8875122,7.5791473,0.8956299,0.3990326,0.02444458,-0.05369568,0.5902977,-1.8859797,-0.09264982
1570714754,-3.6911774,11.615784,0.6789398,0.07624817,-0.42936707,-0.17619324,0.7871618,2.086831,-0.31930053
1570714754,-6.4780273,2.4447937,0.1510315,-0.045181274,-0.9044647,-0.09950256,-0.96054983,-8.767541,-1.1093615
1570714754,-5.531128,10.531204,1.9969482,-0.02281189,-1.2432251,0.05923462,-0.8877673,1.0992327,1.6198641
1570714754,-6.5330963,10.29538,2.8480988,-0.105911255,-1.0685272,0.41290283,-2.1877413,0.7208977,1.3736047
1570714754,-5.3192444,8.773865,3.3508759,0.35534668,0.49847412,1.1703033,-1.1630373,-0.741004,1.9938247
1570714754,-3.6049957,9.749496,2.6649323,0.5790558,0.93310547,1.8339539,0.68681836,0.19937038,1.4362897
1570714754,-1.6920319,10.4964905,2.4434814,1.0658875,0.78396606,1.5260925,1.5241523,0.3292055,1.6751006
1570714754,-1.5375977,9.161728,0.3605194,0.5854492,0.98851013,0.80703735,0.69023824,-0.90798473,0.6019416
1570714754,-1.5375977,9.161728,0.3605194,0.5854492,0.98851013,0.80703735,0.69023824,-0.90798473,0.6019416
1570714754,-4.622528,11.850403,-0.82940674,-0.0025787354,0.053207397,0.735672,-2.3116353,1.4404888,-0.9921167
1570714754,-4.622528,11.850403,-0.82940674,-0.0025787354,0.053207397,0.735672,-2.3116353,1.4404888,-0.9921167
1570714754,-2.0667114,11.485291,0.33537292,-0.16448975,0.18528748,0.6131592,-0.50617063,1.3867683,0.81040704
1570714754,-1.9194794,11.431427,0.3569336,-0.16555786,0.2108612,0.5886688,-0.121827364,1.0356855,0.21322896
1570714754,-1.72435,11.485291,0.17855835,-0.26037598,0.29714966,0.3681488,-0.07071149,1.1071014,-0.0037081838
1570714754,-1.8536377,11.4218445,1.0560303,-0.1953888,0.2811737,0.2584381,-0.30252182,1.1346006,0.6856094
1570714754,-0.31655884,11.591843,0.86450195,-0.07714844,0.41752625,0.22328186,1.1990738,0.97590446,0.5636631
1570714754,-2.0547485,12.051529,1.1015167,-0.040924072,0.42604065,0.13806152,-0.45724106,1.5142517,0.81155115
1570714754,-1.3292999,10.31572,0.63105774,-0.054779053,0.23855591,0.10397339,0.08570099,-0.21189499,0.5131579
1570714754,-1.9051056,11.309326,0.6957092,0.14762878,0.040420532,-0.113342285,-0.47848213,0.6891823,0.47927675
1570714754,-1.6477356,11.356003,0.5987396,0.13697815,0.039352417,-0.09950256,-0.47848213,0.6891823,0.47927675
1570714754,-1.5806885,12.280167,0.08758545,0.1572113,-0.061843872,-0.0440979,0.23698723,1.608676,0.4031083
1570714754,-0.8348999,8.867233,2.1046906,0.42459106,-0.18222046,0.021942139,0.51831484,-1.6135359,1.9454378
1570714754,-0.99650574,8.056793,-1.052063,0.42352295,-0.08528137,0.42567444,0.42666066,-2.489956,-0.8410555
1570714755,-1.1976166,10.959763,-0.050094604,-0.5778198,-0.11618042,0.48213196,-0.43886167,0.23994923,-0.08402565
1570714755,-1.6010437,10.69281,0.2743225,-0.60232544,-0.16304016,0.42034912,-0.43886167,0.23994923,-0.08402565
1570714755,-0.8959503,10.39473,0.45030212,-0.09631348,0.4569397,0.10823059,0.23414367,0.07606506,0.28332728
1570714755,-0.8959503,10.39473,0.45030212,-0.09631348,0.4569397,0.10823059,0.23414367,0.07606506,0.28332728
1570714755,-0.7594757,10.269043,0.8704834,-0.082473755,0.335495,0.1828003,0.11601251,-0.3958416,0.5285817
1570714755,-0.43984985,11.102219,1.2188416,-0.02708435,0.14161682,0.15403748,0.33081818,0.4624567,0.8750446
1570714755,-0.8157501,5.818222,0.97702026,0.053878784,0.051071167,0.27334595,-1.9504257,-3.1671705,0.97748446
1570714755,-0.8157501,5.818222,0.97702026,0.060272217,0.013793945,0.29145813,-1.9504257,-3.1671705,0.97748446
1570714755,-2.5048523,8.2603,0.2707367,-0.02494812,0.43563843,0.6387329,-1.7386463,-2.6057415,-0.13879722
1570714755,-1.4250641,7.8999786,-2.1940918,-0.43081665,0.85002136,1.8371582,-1.9854755,-2.2265778,-2.1307864
1570714755,0.66625977,0.7772217,1.406784,-1.0614471,1.5360565,1.7242432,0.5422947,-9.395934,0.5875748
1570714755,-0.14656067,4.964691,0.5185394,-1.4076538,4.923584,2.9333038,-1.6524823,-5.5130806,-0.92497635
1570714755,0.12637329,4.382889,0.6861267,-1.4992676,4.9129333,2.9333038,-1.6524823,-5.5130806,-0.92497635
1570714755,5.224823,11.842026,13.872192,-1.3533325,3.442871,0.36495972,4.0186863,5.2027187,9.376454
1570714755,0.5238037,1.983902,19.767914,-0.24012756,1.6308594,-0.15489197,0.53231406,-4.3894596,14.625471
1570714755,1.0744781,10.862808,0.84295654,0.52153015,-0.25572205,0.11036682,-1.3106635,1.1317863,-1.9269309
1570714755,1.6766205,10.818512,0.64064026,0.5098114,-0.12257385,0.16682434,-0.7722707,0.6080799,-1.9752252
1570714755,2.6055603,9.798584,1.169754,0.13697815,-0.45492554,0.2296753,0.15797377,-0.35526657,-1.5569375
1570714755,2.6378937,7.9394836,6.063507,1.0168762,-0.95347595,-0.2592926,0.4238727,-3.0408115,3.7469938
1570714755,0.4807129,15.032303,1.3349609,2.1961365,-1.6799774,0.069885254,-2.2028358,3.6962614,0.62038946
1570714755,3.4052277,10.96814,-0.56843567,1.3140869,-0.14706421,0.05923462,1.0780516,0.80677605,-1.2642913
1570714755,2.9060364,10.841248,-0.89164734,1.4824066,-0.34947205,0.013427734,0.6621442,0.7058449,-1.3396022
1570714755,-0.37402344,13.5598755,-4.472183,2.4667053,1.0087433,-0.5692749,-2.8441148,3.450078,-4.240427
1570714755,0.29516602,12.238266,-1.7966614,2.3793488,-0.20779419,-0.6300049,-2.1266348,2.009553,-1.0183713
1570714755,2.5349426,10.546768,1.6486053,2.2962646,-1.1494751,-0.50323486,0.016076326,0.48503494,2.4926977
1570714755,-1.4382324,10.160095,-3.7311707,1.7327423,0.51446533,-0.16235352,-3.6841407,0.06690788,-1.020407
1570714755,-1.4382324,10.160095,-3.7311707,1.7327423,0.51446533,-0.16235352,-3.6841407,0.06690788,-1.020407
1570714755,-0.2818451,10.512054,-2.009735,1.6123657,1.3336487,-0.42440796,-2.7926745,0.7230234,0.79205847
1570714755,1.4898682,8.725983,-2.1940918,1.2150269,1.690506,-0.4169464,-0.8383262,-0.8908119,1.3663282
1570714755,1.5138092,7.7922363,-3.155365,0.89331055,1.338974,-0.57141113,-0.8155196,-1.7092867,0.735343
1570714755,1.5138092,7.7922363,-3.155365,0.89331055,1.338974,-0.57141113,-0.8155196,-1.7092867,0.735343
1570714755,2.4152222,7.6102753,-2.866867,0.35534668,1.0130005,-0.52667236,-0.11023784,-1.890584,1.1758411
1570714756,2.161438,7.914337,-3.3504944,-0.13146973,0.45587158,-0.6129608,0.02268815,-1.7012596,0.45039988
1570714756,2.161438,7.914337,-3.3504944,-0.13146973,0.45587158,-0.6129608,0.02268815,-1.7012596,0.45039988
1570714756,2.327835,8.0855255,-3.9322815,-0.20391846,0.25985718,-0.5596924,0.19903755,-1.6059341,0.07151961
1570714756,0.9858856,9.416702,-4.063965,-0.35943604,1.0662689,-0.35195923,-0.92696536,-0.3197279,-0.56285906
1570714756,0.9858856,9.416702,-4.0268555,-0.35943604,1.0662689,-0.35195923,-0.92696536,-0.3197279,-0.56285906
1570714756,2.461914,11.276993,-4.978546,-0.20710754,0.4345703,-0.44889832,0.5251678,1.4064026,-1.6046727
1570714756,3.0760345,11.674438,-5.514847,-0.10803223,0.35253906,-0.37753296,0.946699,1.6551313,-1.9233408
1570714756,2.9060364,7.980179,-5.471756,-0.33174133,1.4508209,-0.26461792,1.0127791,-1.7212057,-2.278482
1570714756,2.2584076,6.909973,-3.6868744,-0.88887024,1.0257874,-0.34877014,0.2855873,-2.915924,-0.62005424
1570714756,2.224884,6.6944885,-3.1122742,-1.2563934,0.5410919,-0.3690033,0.24410307,-3.222972,-0.1619165
1570714756,4.08638,12.263412,-1.0544586,-1.7698517,-0.1619873,-0.5096283,2.132372,1.7505302,1.1421716
1570714756,2.5026245,21.312302,-2.230011,-1.1136475,-1.2624054,-0.40629578,1.5209851,11.134844,0.36373818
1570714756,-0.30937195,3.4611206,3.9183044,-0.37968445,-0.009643555,-0.4861908,-1.5721542,-6.8041067,5.6476707
1570714756,-0.07952881,2.9631348,4.011673,-0.43400574,-0.09060669,-0.4446411,-1.5721542,-6.8041067,5.6476707
1570714756,1.002655,3.9818726,1.7958374,-1.1466675,-0.539093,-0.12826538,-0.21853256,-6.6023817,3.5484183
1570714756,-1.847641,13.215103,1.7264099,-1.4715729,-0.7446747,-0.015335083,-3.0734055,2.7179718,2.4716775
1570714756,-2.1505127,13.565857,1.5707855,-1.4715729,-0.7446747,-0.015335083,-3.0734055,2.7179718,2.4716775
1570714756,-1.0838928,12.07666,0.9423065,-1.0689087,0.40260315,-0.5181427,-2.4778185,1.8175793,1.2671696
1570714756,1.5030365,9.313751,0.36889648,-1.0177765,0.09794617,-0.42440796,0.5344418,-1.0082159,0.20826162
1570714756,1.7400665,9.317337,1.9945679,-1.2436066,-1.4722595,-0.34983826,1.0241632,-1.3313675,1.1625077
1570714756,0.255661,11.081863,1.9131622,-1.1157837,-1.6618805,-0.38711548,-0.41812605,0.49984932,1.2000098
1570714756,-0.6397705,10.800552,1.062027,-0.6278839,-0.63708496,-0.2081604,-1.6082956,0.29323673,0.12311864
1570714756,-0.8923645,10.422272,1.8090057,-0.7290802,-0.9279022,-0.32214355,-1.4508204,-0.06676006,0.5415052
1570714756,-0.91270447,10.545563,1.7575378,-0.80578613,-1.0323029,-0.361557,-1.3990927,0.07649994,0.27576745
1570714756,-0.2926178,10.825684,1.5217133,-0.6641083,-0.20352173,-0.20602417,-0.8052349,0.41894054,-0.2111336
1570714756,0.7572479,9.872803,1.5791626,-0.7194977,-0.236557,-0.08883667,0.43926978,-0.41812038,-0.6091447
1570714756,-0.23275757,10.1445465,1.2176361,-0.771698,0.08622742,0.1327362,-0.5205908,-0.19167233,-0.90562797
1570714756,-0.23275757,10.1445465,1.2176361,-0.771698,0.07237244,0.13485718,-0.5205908,-0.19167233,-0.90562797
1570714756,-0.31774902,10.923859,1.1386414,-1.1093903,-0.2951355,0.11994934,-0.76393497,0.6837244,-1.4943523
1570714756,0.2676239,10.729919,1.2990417,-1.0465393,-0.3377533,0.14657593,-0.5981417,0.5696583,-1.8042865
1570714756,0.48191833,10.774216,0.38685608,-0.8132477,-0.4432068,0.27015686,-0.25429273,0.7071419,-2.8926241
1570714756,1.4072723,12.304108,-1.3848572,0.1018219,-1.6416321,-0.09736633,0.053438604,2.6184406,-3.973269
1570714756,1.4072723,12.304108,-1.3848572,0.1018219,-1.6416321,-0.09736633,0.053438604,2.1500826,-4.916978
1570714756,0.6088104,10.564728,-2.1079102,-0.24012756,-1.9047546,-0.09736633,-0.2629732,0.5575247,-5.558672
1570714757,-2.2594452,13.982452,-0.35176086,1.2384491,0.27264404,0.23925781,-3.695565,3.8506012,-3.3041682
1570714757,-2.2594452,13.982452,-0.35176086,1.2384491,0.27264404,0.23925781,-3.695565,3.8506012,-3.3041682
1570714757,3.050888,11.788162,0.32580566,2.3793488,0.0063323975,0.072006226,1.5500963,1.7971954,-2.2042205
1570714757,4.5424805,11.852798,1.0476532,3.3412933,0.72857666,0.59399414,3.2137341,1.1766167,-0.26680017
1570714757,3.1203156,13.142075,1.7024689,2.9407501,-0.89276123,0.45018005,1.5450974,2.6231146,1.4614695
1570714757,0.013839722,12.500427,3.0420227,2.2930756,-2.2658844,-0.027053833,-1.915487,2.2457838,2.9531028
1570714757,0.9344177,12.31369,0.7507782,2.475235,-0.21737671,-0.5415802,-0.61804616,1.7426195,2.572278
1570714757,1.1953888,11.909073,0.0013885498,2.4848175,0.25985718,-0.45103455,-0.28299356,1.5222301,1.9245046
1570714757,0.24607849,11.666061,0.44909668,2.7223663,2.0803986,-0.30189514,-1.0973172,1.457264,3.1080508
1570714757,1.512619,9.338898,-0.21768188,2.464569,1.6521606,-0.30722046,0.057740092,-0.52858543,3.639045
1570714757,2.1913757,9.073135,-0.20211792,2.2493896,2.1773376,-0.40522766,0.67342436,-0.71929836,3.7573233
1570714757,1.3881226,7.6940765,0.30784607,1.3343353,2.5299377,-0.5160217,-0.47727835,-1.4679623,4.8493934
1570714757,1.4360046,7.530075,0.47305298,1.2672119,2.5405884,-0.52027893,-0.42447484,-1.7483568,5.1198983
1570714757,1.4910736,4.027359,0.88365173,0.2967682,1.3964996,-0.48298645,-0.5327878,-5.296731,5.5656533
1570714757,1.9112549,3.1654358,-0.7623596,-0.4276123,0.5123291,-0.6427765,-0.14735794,-5.965645,4.209969
1570714757,1.5988007,2.6291351,-1.656601,-1.5472107,-0.053329468,-0.806839,-0.21949553,-6.7934494,2.768396
1570714757,0.98349,10.553955,-8.266983,-2.5134125,-1.8791962,-0.90057373,-0.31132746,-0.3074522,-4.045618
1570714757,2.3565674,25.789444,-10.527115,-0.13040161,0.0031280518,0.24351501,0.6196753,16.358593,-7.4647017
1570714757,2.3565674,25.789444,-10.527115,-0.13040161,0.0031280518,0.24351501,0.6196753,16.358593,-7.4647017
1570714757,5.2894745,9.731537,-6.8759613,0.852829,2.0665436,-0.13677979,4.626812,2.0238104,-4.570613
1570714757,4.4682617,13.749008,2.3884125,-1.1200409,0.9906311,-0.21560669,3.3317723,0.10165501,4.9146934
1570714757,4.4682617,13.749008,2.3884125,-1.1200409,0.9906311,-0.21560669,3.3317723,0.10165501,4.9146934
1570714757,0.110809326,9.468185,-0.70610046,0.6035614,0.005264282,0.18386841,-1.0144666,1.6813889,0.49126315
1570714757,0.110809326,9.468185,-0.70610046,0.6035614,0.005264282,0.18386841,-1.4042203,-1.5459547,2.2632306
1570714757,-3.2949371,5.3573303,6.4441833,-2.1927643,-1.3423004,-0.6715393,-4.7633476,-5.817913,8.454378
1570714757,-0.63020325,17.171524,0.675354,-2.0659943,-2.6515045,0.2531128,-1.2809544,6.817253,2.3284335
1570714757,-0.63020325,17.171524,0.675354,-2.0659943,-2.6515045,0.2531128,-1.2809544,6.817253,2.3284335
1570714757,1.9567413,8.480576,0.99497986,-1.187149,-0.23228455,-0.7152252,1.0382286,-1.8699389,0.9770992
1570714757,1.9567413,8.480576,0.99497986,-1.187149,-0.23228455,-0.7152252,1.0382286,-1.8699389,0.9770992
1570714757,-0.72117615,11.120178,1.6881104,-1.2052612,-1.8216705,-0.024932861,-1.0708001,0.17737675,1.1901073
1570714757,-0.72117615,11.120178,1.6881104,-1.2052612,-1.8216705,-0.024932861,-1.0708001,0.17737675,1.1901073
1570714757,-2.9166565,11.971313,2.5476227,-0.92723083,0.035095215,-0.12187195,-3.0307825,1.521944,1.4742395
1570714757,-0.69125366,10.571899,0.37608337,-0.6364136,-0.19714355,-0.26034546,-1.138266,-0.02777195,-0.7582717
1570714757,-0.06277466,10.582672,0.927948,-0.88035583,-0.94921875,-0.38285828,-0.42973644,0.00936985,-0.29420805
1570714758,-0.109451294,10.348053,1.7012787,-0.95599365,0.1831665,0.14657593,-0.21761265,-0.22123146,-0.12626076
1570714758,-0.109451294,10.348053,1.7012787,-0.95599365,0.1831665,0.14657593,-0.21761265,-0.22123146,-0.12626076
1570714758,-0.68048096,11.086655,0.29586792,-1.2446747,-0.044799805,0.1359253,-1.0643449,0.77967453,-2.2339888
1570714758,-0.67448425,11.104614,0.32341003,-1.2457428,-0.03414917,0.1359253,-1.0643449,0.77967453,-2.2339888
1570714758,-0.7008209,11.111801,0.040893555,-1.1434784,-0.05545044,0.17001343,-1.1975145,0.916461,-2.7022943
1570714758,-3.151291,13.713104,2.1250458,-0.38713074,-0.25253296,0.3958435,-3.184516,3.2260065,-1.7598155
1570714758,-3.151291,13.713104,2.1250458,-0.33920288,-0.27809143,0.39265442,-3.9136648,3.7557535,-0.8885205
1570714758,0.8230896,12.124542,-1.7092743,0.0038146973,-1.2837067,-0.16767883,0.02120173,1.9069862,-4.9710617
1570714758,0.8230896,12.124542,-1.7092743,0.0038146973,-1.2837067,-0.16767883,0.02120173,1.9069862,-4.9710617
1570714758,-1.784195,13.727463,-1.2028961,1.5346069,0.50167847,0.49172974,-2.970176,3.460987,-3.6232252
1570714758,-1.784195,13.727463,-1.2028961,1.5346069,0.50167847,0.49172974,-2.970176,3.460987,-3.6232252
1570714758,5.034485,10.369598,1.695282,3.0802917,-0.19393921,0.4096985,3.6876118,-0.015145302,0.31694746
1570714758,5.9071655,9.745911,1.2655334,3.255005,0.15652466,0.5385895,4.301015,-0.5745897,0.18559575
1570714758,1.8705444,13.69754,2.2100372,2.4965363,-1.2868958,0.35005188,1.1377158,2.961297,2.3576486
1570714758,0.22094727,13.721481,2.0089264,2.172699,-1.894104,0.04963684,-1.2808727,3.1689453,2.489626
1570714758,0.64112854,10.740692,-0.2320404,2.2579193,0.6337738,-0.3935089,-0.57407224,0.30702972,1.9051034
1570714758,0.64112854,10.740692,-0.2320404,2.2579193,0.6337738,-0.3935089,-0.57407224,0.30702972,1.9051034
1570714758,1.1271515,9.267059,0.4802246,2.1854706,1.7608185,-0.3093567,-0.088412285,-0.7953596,3.87365
1570714758,1.1271515,9.267059,0.4802246,2.1854706,1.7608185,-0.3093567,-0.088412285,-0.7953596,3.87365
1570714758,2.0752563,8.654144,-0.6007538,1.9021149,2.1208801,-0.34770203,0.56636035,-1.125351,3.2752473
1570714758,1.8537903,7.0967255,1.0249023,0.66534424,1.913147,-0.40948486,0.25053966,-2.453308,5.3579745
1570714758,1.8537903,7.0967255,1.0249023,0.66534424,1.913147,-0.40948486,0.25053966,-2.453308,5.3579745
1570714758,1.2396698,4.367325,-0.9562988,-0.88887024,-0.21737671,-0.8345337,-0.1471169,-5.229994,3.1875238
1570714758,1.2396698,4.367325,-0.9562988,-0.88887024,-0.21737671,-0.8345337,-0.1471169,-5.229994,3.1875238
1570714758,0.20178223,9.629791,-4.8349,-1.9946289,-0.62324524,-0.8963165,-0.6306048,-0.6672039,-1.4695029
1570714758,0.20178223,9.629791,-4.8349,-1.9946289,-0.62324524,-0.8963165,-0.6306048,-0.6672039,-1.4695029
1570714758,1.2696075,19.823105,-9.69632,-0.07394409,-0.019241333,-0.0025634766,0.24715346,10.020449,-6.867421
1570714758,1.7209167,19.419678,-9.7825165,0.062408447,0.0074005127,0.019805908,0.990146,9.34252,-7.1508517
1570714758,0.9739227,5.6733704,-5.1820526,0.54177856,1.9397888,-0.37965393,0.831698,-3.6511507,-2.6661665
1570714758,0.4615631,3.7376556,-2.6418152,-0.07821655,1.385849,-0.27845764,-0.28614634,-6.416093,0.07487345
1570714758,2.3865051,8.133408,0.06602478,-0.96131897,1.2324524,-0.0046844482,1.06604,-3.4405985,2.173469
1570714758,4.18454,18.693039,-4.0903015,-0.3168335,-0.9886322,0.52049255,3.1431518,8.358336,-1.7909656
1570714758,4.18454,18.693039,-4.0903015,-0.3168335,-0.9886322,0.52049255,3.1431518,8.358336,-1.7909656
1570714759,-1.3604279,2.7656097,5.8468323,-1.1029968,0.31845093,-0.58099365,-2.4097466,-7.3468084,7.678409
1570714759,-3.7103424,4.7563934,5.7486725,-2.1139374,-1.687439,-0.5160217,-4.48851,-6.435993,7.075818
1570714759,-0.89834595,15.961258,-2.0336761,-1.4651794,-1.1249847,0.32128906,-1.7189485,5.618452,-1.4768164
1570714759,-0.9246826,15.441711,-2.2958527,-1.3895569,-0.8639984,0.21688843,-1.7189485,5.618452,-1.4768164
1570714759,0.5609131,9.976944,1.8269653,-0.9740906,0.13415527,-0.7045746,-0.2149024,-0.49748802,1.6293737
1570714759,2.5912018,8.791809,1.7048645,-1.1083221,-1.0749207,-0.59484863,1.8474152,-1.7871561,1.4003619
1570714759,2.2931213,10.154114,1.8987885,-1.2840881,-2.547104,-0.6917877,2.0766597,-0.44895458,1.3159443
1570714759,-3.2326965,11.016037,1.6067047,-0.66197205,-0.60513306,-0.0057525635,-3.4534285,0.49070835,0.40572274
1570714759,-3.310501,10.9118805,1.5707855,-0.6459961,-0.71165466,-0.003616333,-3.4534285,0.49070835,0.40572274
1570714759,0.31072998,10.361221,0.6095123,-0.7013855,-0.9161835,-0.23371887,-0.066566974,-0.12512302,-0.9874836
1570714759,0.43522644,10.312134,0.5640259,-0.7035217,-0.8394928,-0.2166748,-0.066566974,-0.12512302,-0.9874836
1570714759,-0.5428009,9.578308,1.3708649,-0.8697052,-0.5827637,0.09225464,-0.84924984,-0.8827057,-0.7968092
1570714759,-0.5428009,9.578308,1.3708649,-0.89100647,-0.60832214,0.09225464,-0.84924984,-0.8827057,-0.7968092
1570714759,-0.054397583,9.832092,1.1051178,-0.994339,-0.4357605,0.14125061,-0.48297176,-0.5131302,-1.1671872
1570714759,-0.94503784,10.140945,0.8022461,-1.0209656,-0.15771484,0.19451904,-1.5038245,-0.069747925,-2.0754197
1570714759,-0.47576904,11.348831,0.95188904,-0.75679016,-0.7319031,0.044311523,-0.8594796,1.1215162,-2.326264
1570714759,-0.47576904,11.348831,0.95188904,-0.75679016,-0.7319031,0.044311523,-0.8594796,1.1215162,-2.326264
1570714759,-0.10227966,13.257004,1.1110992,0.061340332,-0.95240784,0.053894043,-1.3608477,3.3490257,-1.664959
1570714759,-0.21240234,12.721893,-1.1262817,-0.0068359375,-1.3305817,0.06881714,-0.7325803,2.0499868,-4.8359103
1570714759,-0.21240234,12.721893,-1.1262817,-0.0068359375,-1.3305817,0.06881714,-0.7325803,2.0499868,-4.8359103
1570714759,-3.4577484,14.728241,-0.20690918,1.0488434,0.13842773,0.50024414,-4.2940555,4.710786,-3.1339593
1570714759,-2.7957458,13.993225,-0.5959625,1.6294098,0.027633667,0.32554626,-4.072172,3.7748585,-3.2531202
1570714759,6.019699,10.662888,1.7838745,3.0472717,0.93203735,0.29464722,4.390781,0.17068863,0.22004712
1570714759,5.4762115,11.960541,1.7946472,3.194275,1.0641327,0.4096985,4.3508296,1.2716875,0.7251375
1570714759,-0.4159088,11.8324585,3.8452759,1.7668304,-1.050415,-0.4861908,-1.2484179,1.3076725,3.7265706
1570714759,-0.4159088,11.8324585,3.8452759,1.7668304,-1.050415,-0.4861908,-1.2484179,1.3076725,3.7265706
1570714759,-0.28782654,11.221924,1.0213165,2.0011902,-0.08102417,-0.5905762,-1.5847199,0.60269356,2.2683487
1570714759,0.39811707,11.645706,-0.016571045,2.0416718,1.3027496,-0.57992554,-0.5280068,1.0917654,1.6475111
1570714759,0.90089417,10.768234,1.121872,2.2994537,2.3243408,-0.31147766,-0.25897205,0.39523506,3.356772
1570714759,2.2129211,9.34967,0.52571106,2.129013,2.0324554,-0.23265076,0.8647914,-0.8149395,3.9126594
1570714759,2.6151428,9.22995,0.17497253,1.8573761,2.149643,-0.22520447,1.5395229,-0.8875475,3.6383164
1570714759,2.0908203,9.042007,0.73161316,1.5175629,1.8226013,-0.30615234,0.76609635,-0.7737284,4.5973363
1570714760,1.9878693,4.719284,-0.34576416,0.050689697,0.32058716,-0.3413086,0.6316756,-4.802187,3.911265
1570714760,1.9112549,4.652237,-0.43196106,-0.01109314,0.24494934,-0.3466339,0.47340155,-4.94536,3.861611
1570714760,0.47592163,4.5839996,-1.8361664,-1.0912781,-0.12043762,-0.40629578,-0.8333622,-5.126919,2.2435527
1570714760,0.34065247,4.949127,-2.605896,-1.4055328,-0.23016357,-0.47021484,-0.8974196,-4.844137,1.3676236
1570714760,-0.21839905,12.027573,-8.5494995,-1.904068,-0.30792236,-0.44784546,-1.1140689,1.6803389,-5.530626
1570714760,-0.41471863,15.148422,-7.9760895,-1.5866241,0.2811737,-0.3839264,-1.1774474,3.9839334,-5.430457
1570714760,3.8038635,7.8461,-7.7223053,0.6451111,1.9855957,-0.078186035,3.396306,-0.768404,-5.500396
1570714760,3.5009918,6.8752594,-7.1812134,0.5758667,2.100647,-0.12612915,3.396306,-0.768404,-5.500396
1570714760,1.3869171,1.0848846,-0.21887207,-0.32748413,2.1389923,-0.3562317,0.17726398,-9.293537,1.9437606
1570714760,4.0480804,19.24849,-0.7336273,-1.5077972,-1.6757202,0.74632263,3.2773073,9.1717825,3.1403334
1570714760,4.0480804,19.24849,-0.7336273,-1.5077972,-1.6757202,0.74632263,3.2773073,9.1717825,3.1403334
1570714760,-2.2570496,2.1395264,5.095047,-0.60658264,-0.15559387,-0.4861908,-3.325047,-7.6859207,6.9301405
1570714760,-2.2570496,2.1395264,5.095047,-0.60658264,-0.15559387,-0.4861908,-3.325047,-7.6859207,6.9301405
1570714760,-0.8528595,14.1488495,2.6577606,-1.8721161,-1.7886353,0.032592773,-1.7908473,3.167161,3.736679
1570714760,-0.8528595,14.1488495,2.6577606,-1.8721161,-1.7886353,0.032592773,-1.7908473,3.167161,3.736679
1570714760,0.072509766,11.130951,0.6789398,-0.98262024,0.811676,-0.63212585,-0.7460263,0.6359844,1.0627587
1570714760,0.072509766,11.130951,0.6789398,-0.98262024,0.811676,-0.63212585,-0.7460263,0.6359844,1.0627587
1570714760,1.5581055,9.487335,2.6984558,-1.2276306,-1.5457611,-0.2358551,1.1871705,-1.2197456,1.6232388
1570714760,1.548523,9.593872,2.8061981,-1.1956787,-1.4200592,-0.19963074,1.1871705,-1.2197456,1.6232388
1570714760,-0.5679474,10.780197,3.2479248,-1.1977997,-0.4996643,-0.09629822,-0.3871912,0.042271614,2.157296
1570714760,-3.044754,10.980118,1.7443695,-1.0774231,-0.8810425,-0.08351135,-3.5177252,0.5051079,0.45563567
1570714760,-1.0503845,10.998077,0.40361023,-1.1828918,-1.7172699,-0.44570923,-1.6946315,0.53636265,-1.1984897
1570714760,0.0904541,10.194824,0.9638519,-0.98262024,-0.25785828,-0.014282227,-0.08837199,-0.24002743,-1.1957841
1570714760,-0.40274048,10.156509,0.67655945,-0.9069824,0.1362915,0.22540283,-0.5473585,-0.21857071,-1.5396192
1570714760,-0.9869385,11.197983,0.517334,-1.0326843,-0.32496643,0.2296753,-1.4041108,0.8803692,-2.3532321
1570714760,-1.2478943,11.294952,0.52571106,-0.98475647,-0.23442078,0.22221375,-1.567384,1.137186,-2.291332
1570714760,0.03538513,11.259048,0.5783844,-0.56503296,-0.52204895,0.1913147,-0.43093354,1.1272297,-2.7524207
1570714760,-0.18606567,11.359604,0.60113525,-0.53733826,-0.5167084,0.21688843,-0.43093354,1.1272297,-2.7524207
1570714760,1.591629,11.391922,-2.356903,0.114608765,-1.3678589,-0.23692322,0.77449924,1.3334131,-5.444581
1570714760,1.591629,11.391922,-2.356903,0.114608765,-1.3678589,-0.23692322,0.77449924,1.3334131,-5.444581
1570714760,-2.8280792,14.1332855,-0.02015686,1.2917175,-0.0362854,0.5375366,-3.855754,3.9115534,-2.8566556
1570714760,-2.8280792,14.1332855,-0.02015686,1.2917175,-0.0362854,0.5375366,-3.855754,3.9115534,-2.8566556
1570714760,0.41726685,13.067856,-0.1302948,2.3122406,-0.08528137,0.26802063,-0.96231616,2.771636,-2.4577632
1570714760,5.4163666,9.827301,1.303833,3.1910858,0.1874237,0.33087158,3.6302266,-0.19669247,-0.21844184
1570714760,3.8361816,12.377136,1.406784,3.2145233,0.093673706,0.44378662,2.585568,1.3053341,0.7101153
1570714761,-0.13459778,14.30806,1.1362457,2.3740234,-2.03685,0.109298706,-1.3744854,4.0679665,1.9335697
1570714761,-0.43267822,11.411072,0.57958984,1.9947968,-0.19180298,-0.55755615,-1.7895992,0.465312,2.643625
1570714761,0.11679077,11.114197,-0.13269043,1.9170227,0.30247498,-0.584198,-1.1231732,0.62074566,1.8791451
1570714761,0.53697205,9.630981,0.51016235,1.8914642,1.8961029,-0.52027893,-0.9040657,-0.30537128,3.2603858
1570714761,0.53697205,9.630981,0.51016235,1.8914642,1.8961029,-0.52027893,-0.70014775,-0.53446865,3.5296962
1570714761,2.1339111,8.836105,0.5879669,1.7668304,2.2337952,-0.45529175,0.89122987,-1.2410355,4.052697
1570714761,1.8861084,8.818146,0.848938,1.5324707,2.100647,-0.4393158,0.77223253,-1.1686163,4.6895185
1570714761,1.825058,8.715195,1.1949005,1.1819916,2.1208801,-0.4073639,0.31744027,-0.9579458,5.2944636
1570714761,1.9938507,6.182129,0.7112732,0.33618164,1.0822449,-0.48512268,0.49824834,-3.3578491,4.968571
1570714761,1.4431763,4.339798,-0.2679596,-0.48301697,0.15226746,-0.5905762,0.15403712,-5.3113565,3.9856477
1570714761,0.90808105,4.2164917,-1.1394501,-0.945343,0.05958557,-0.55223083,-0.3730811,-5.477558,2.907352
1570714761,-0.58709717,7.3624725,-4.6517487,-2.0425568,-0.7223053,-0.7940521,-1.3992184,-3.1093607,-0.886179
1570714761,-0.23994446,14.651627,-8.122131,-2.0074005,-0.35054016,-0.5788727,-0.9618046,4.086006,-5.373334
1570714761,1.4240265,22.620728,-8.92778,-0.2710266,0.112854004,-0.047302246,0.6375647,12.262788,-6.318509
1570714761,5.5899353,12.909836,-9.197128,0.7250061,1.3038177,0.0070343018,4.9300337,4.1549854,-7.4525166
1570714761,2.8641357,5.325012,-5.4861298,0.46827698,2.1219482,-0.361557,2.2991567,-4.6159286,-2.907771
1570714761,1.71492,3.2360687,-0.4487152,-0.39779663,1.7245941,-0.40948486,0.73621047,-7.267008,2.1042955
1570714761,5.935898,20.663467,2.5500183,-1.9115295,-0.9406891,0.9529877,4.7109675,9.431458,4.360049
1570714761,-1.8883514,12.717117,-2.7902527,0.7473755,0.07557678,0.433136,-2.764392,4.8945684,-2.3616405
1570714761,-2.1361542,2.0976257,5.960556,-1.9413605,-0.18328857,-0.8569031,-3.1425161,-8.578612,7.629238
1570714761,-2.1361542,2.0976257,5.960556,-1.9413605,-0.18328857,-0.8569031,-3.1425161,-8.578612,7.629238
1570714761,-1.732727,15.444107,-0.4343567,-1.4470825,-1.162262,0.30743408,-2.7527955,5.037081,0.21266395
1570714761,-1.6896362,14.948502,-1.0592499,-1.4470825,-1.162262,0.30743408,-2.7527955,5.037081,0.21266395
1570714761,0.7081604,11.716339,-1.7380066,-0.76530457,1.1259155,-0.55436707,-0.31730014,1.1653004,-1.8666959
1570714761,3.9798431,8.037643,2.6146545,-1.2468109,-0.43362427,-0.7365265,3.1446412,-2.5735817,2.1611383
1570714761,1.8382263,11.153702,1.1912994,-0.9112549,-1.687439,-0.2912445,1.6523379,0.50200176,0.6865131
1570714761,1.1271515,11.223129,1.4391022,-0.80578613,-1.3518829,-0.12080383,1.03371,0.58974266,0.18974751
1570714761,-2.934616,10.561127,2.0711823,-0.76423645,-0.7180481,-0.12294006,-3.367926,-0.0519104,0.6097163
1570714761,-0.803772,10.428253,1.580368,-0.9538574,-0.99502563,-0.33491516,-1.6042105,0.010022163,0.03653145
1570714761,-0.6194153,10.3624115,1.477417,-0.9655762,-0.9513397,-0.32852173,-1.0652173,-0.12594414,-0.19488215
1570714761,0.30473328,9.815338,1.2966461,-1.1509247,-0.24507141,0.22434998,-0.013821751,-0.5396414,-1.0856903
1570714761,0.19940186,9.696823,1.1949005,-1.1690369,-0.27490234,0.22540283,-0.013821751,-0.5396414,-1.0856903
1570714761,-0.8348999,10.987305,1.406784,-1.2159119,-0.22909546,0.23925781,-1.2547376,0.70739174,-1.3107982
1570714762,-1.0994568,11.112991,-0.08241272,-1.0241699,-0.15026855,0.13806152,-1.6462588,0.78715897,-2.8873787
1570714762,0.4902954,11.3823395,0.51493835,-0.75679016,-0.6775665,0.04219055,-0.23585624,1.2887068,-2.875433
1570714762,-2.1900177,12.917023,1.8892212,-0.19645691,-0.27915955,0.27653503,-2.8804555,2.7852173,-1.6548133
1570714762,0.41607666,11.614578,-0.9550934,0.16786194,-1.2378998,-0.08883667,-0.5141203,1.6199398,-4.1437564
1570714762,0.41607666,11.614578,-0.9550934,0.16786194,-1.2378998,-0.08883667,-0.5141203,1.6199398,-4.1437564
1570714762,-2.1804352,14.339188,0.26115417,0.5556183,-0.24081421,0.4096985,-2.887889,3.9867735,-2.9423594
1570714762,-0.4626007,13.526352,-0.4918213,1.6709595,0.10646057,0.11355591,-2.034475,3.4215794,-3.2825208
1570714762,-0.12501526,13.371918,-0.4547119,1.7455292,0.1085968,0.10823059,-1.4389842,3.1126137,-3.084417
1570714762,5.5085297,8.882797,1.6306458,2.9141235,0.5410919,0.44378662,4.1540127,-1.4390268,-0.25816572
1570714762,2.8354034,10.938217,1.8197784,3.0856323,0.12243652,0.688797,1.46848,0.20404816,0.9232746
1570714762,0.27601624,14.460083,1.6318359,2.445404,-1.9058228,-0.0675354,-1.1169024,4.0799627,2.0928204
1570714762,0.036590576,11.669647,1.0440674,2.0075836,0.20446777,-0.7184143,-1.1834579,1.0023117,2.848549
1570714762,0.21855164,11.545151,0.9758301,2.032074,0.37278748,-0.6960449,-1.0357598,1.0326338,2.7044115
1570714762,0.048553467,11.34523,-0.17817688,2.271759,1.1450958,-0.52560425,-0.9759784,0.835906,2.0387278
1570714762,0.7763977,10.409103,-0.16859436,2.0533905,1.9120941,-0.57780457,-0.28719008,0.31446457,3.030221
1570714762,1.5652924,9.879974,-0.15542603,1.9298096,2.1592255,-0.53411865,0.43489552,-0.24681568,3.167963
1570714762,1.7496338,8.139389,1.1529999,1.2384491,2.0953064,-0.55436707,0.45493436,-1.5987215,5.324177
1570714762,1.7496338,8.139389,1.1529999,1.2384491,2.0953064,-0.55436707,0.45493436,-1.5987215,5.324177
1570714762,2.2308807,5.1358643,0.47305298,0.04536438,0.8425598,-0.45103455,0.89382637,-4.483309,4.8251786
1570714762,2.1973572,4.9826355,0.38446045,-0.014297485,0.7573395,-0.45422363,0.89382637,-4.483309,4.8251786
1570714762,0.2053833,6.865677,-3.8616638,-1.9008789,-0.44534302,-0.7610321,-0.64717585,-3.2360477,-0.2951057
1570714762,0.2053833,6.865677,-3.8616638,-1.9008789,-0.44534302,-0.7610321,-0.64717585,-3.2360477,-0.2951057
1570714762,-0.69125366,10.920258,-6.6592865,-2.046814,-0.39207458,-0.7471771,-1.308594,0.53575325,-3.51863
1570714762,3.2304535,19.851837,-11.0239105,0.52259827,-0.105529785,0.05496216,2.5506449,9.645696,-8.2548065
1570714762,3.2304535,19.851837,-11.0239105,0.52259827,-0.105529785,0.05496216,2.5506449,9.645696,-8.2548065
1570714762,1.2217255,2.9547577,-4.716385,0.3521576,2.2774658,-0.3924408,0.69839644,-6.9901266,-1.8870053
1570714762,0.5812683,1.6642761,-2.933899,-0.11016846,1.990921,-0.43717957,-0.0011898279,-8.512273,-0.55495954
1570714762,5.3648834,20.054138,1.5983276,-1.601532,-0.1108551,-0.062210083,4.857418,5.544176,5.089226
1570714762,5.5516357,29.976913,-2.2395782,-1.6548004,-1.1175232,0.6376648,5.023864,19.438974,0.4167676
1570714762,-2.6353455,11.394318,-1.6577911,1.4664154,-0.115112305,-0.101623535,-3.7379098,3.586648,-0.33985138
1570714762,0.47712708,-1.6038055,5.7055664,-1.5077972,0.23641968,-0.8100281,-0.07977778,-12.374987,7.8733416
1570714762,-0.13220215,4.809067,5.1082153,-2.3685303,-0.7446747,-0.24330139,-0.47910988,-6.2105837,6.913553
1570714763,-3.9030762,13.170807,0.30784607,-1.0614471,0.2609253,-0.267807,-4.824096,3.4506884,0.56897116
1570714763,-3.3308563,13.170807,0.30784607,-0.898468,0.55281067,-0.32852173,-4.142136,2.6449375,0.5423477
1570714763,3.2017212,7.913147,2.04245,-1.2595825,-1.7865143,-0.6342621,3.5502424,-2.8356342,1.6500496
1570714763,2.8030853,8.037643,2.0831451,-1.2691803,-1.9995575,-0.57141113,2.757654,-2.6946087,1.7190408
1570714763,-3.3380432,12.890686,2.5356445,-0.97836304,-0.5699768,-0.031326294,-3.4441445,2.320382,1.4557942
1570714763,-3.5642853,12.68718,2.4698029,-0.9197693,-0.50393677,-0.019607544,-3.4441445,2.320382,1.4557942
1570714763,-1.858429,10.43663,0.8213959,-0.5224304,-0.37184143,-0.049423218,-2.14818,-0.1285286,-0.46285903
1570714763,-1.0024872,10.073914,1.2152557,-0.6875458,-0.63282776,-0.19963074,-1.1563008,-0.46860027,-0.18204749
1570714763,0.23051453,10.253479,1.0715942,-0.9485321,-0.47624207,-0.07392883,0.058820203,-0.30163097,-0.83380127
1570714763,0.7979431,10.168488,0.95547485,-1.0167084,-0.6722412,0.16682434,0.61383605,-0.21365738,-1.2513638
1570714763,0.77160645,10.097855,0.90519714,-1.0167084,-0.6722412,0.16682434,0.61383605,-0.21365738,-1.2513638
1570714763,-1.0479889,10.601837,1.0261078,-1.1509247,-0.1108551,0.30317688,-1.3032634,0.19059086,-1.7022703
1570714763,0.5716858,11.546341,0.072021484,-0.9229584,-0.37290955,0.0070343018,-0.55995274,1.3374577,-2.7321613
1570714763,0.5716858,11.546341,0.072021484,-0.898468,-0.44641113,-0.008956909,0.02411756,1.4056673,-3.1477058
1570714763,-1.2083893,12.277771,2.1789093,-0.43188477,-0.621109,0.23606873,-1.6595613,2.0473957,-1.4422605
1570714763,-1.6034393,14.049484,2.4650269,-0.11123657,-0.57637024,0.20410156,-2.374438,3.8038015,-0.98569775
1570714763,1.3414307,10.804138,-1.7128601,-0.115493774,-1.6661377,-0.20069885,0.61456525,0.73770046,-5.122562
1570714763,-2.0870667,13.63649,0.5388794,0.56414795,-0.15026855,0.4416504,-2.8818297,3.5313463,-2.769064
1570714763,-2.8053284,13.128906,-0.6474457,0.8773346,0.2342987,0.47894287,-3.7645364,3.0010796,-3.7908332
1570714763,-2.076294,13.600571,-0.12789917,1.4824066,-0.09593201,0.2658844,-3.378578,3.2486496,-3.2238998
1570714763,2.916809,11.268616,1.1398315,2.5806885,0.16505432,0.09437561,1.0542842,1.3431826,-1.3827884
1570714763,4.2180634,10.331284,1.7156372,3.1356964,0.9128723,0.2935791,3.5449636,-0.7942753,0.3030585
1570714763,2.833023,13.728653,1.7335968,2.826767,-0.36012268,0.17108154,1.6622782,2.7346764,1.3022128
1570714763,0.26164246,13.590988,1.8257751,2.2579193,-2.0954437,-0.28271484,-0.88665247,3.2067213,2.227381
1570714763,-0.5104828,11.520004,-0.8461609,2.0384674,0.6667938,-0.72055054,-1.1792202,0.90055656,1.0996428
1570714763,-0.5811157,11.464935,-0.78630066,2.046997,0.7967529,-0.7184143,-1.2554889,0.8967762,1.1153628
1570714763,-0.2064209,10.282211,0.75675964,2.2110443,1.6692047,-0.6140137,-0.9456475,-0.05055237,3.5962105
1570714763,1.4300079,9.905121,0.47903442,2.0810852,1.9046326,-0.6342621,0.781892,-0.30220222,3.7090404
1570714763,1.9351959,8.960602,0.048080444,1.8797455,2.3232727,-0.5405121,1.5042461,-0.9791441,3.9894617
1570714763,1.409668,8.267487,0.0181427,1.5590973,2.3978424,-0.4116211,0.77568907,-1.5882158,4.140236
1570714763,1.6502838,4.739624,0.536499,-0.18792725,0.7892914,-0.4116211,0.7412409,-4.908963,4.94605
1570714763,1.6167603,4.601959,0.42636108,-0.25505066,0.7072754,-0.41375732,0.7412409,-4.908963,4.94605
1570714763,1.4755096,4.5708313,-1.0329132,-1.1530609,-0.0043182373,-0.3881836,0.6783614,-5.3498898,3.4159756
1570714763,1.2109528,6.089966,-2.8285522,-1.6888885,-0.14494324,-0.44784546,0.64996696,-4.0920963,1.0727575
1570714763,0.22213745,7.9191284,-3.8460999,-1.8859711,0.13522339,-0.5660858,-0.26160908,-2.2736673,-0.48595047
1570714764,0.16227722,15.932526,-9.227066,-1.0997925,-0.39953613,-0.26567078,-0.57621753,4.388193,-5.573597
1570714764,1.9998322,9.417908,-6.3671875,0.26905823,1.5413818,0.07307434,1.4036751,-0.48482895,-3.6179478
1570714764,1.6610565,8.712814,-5.9913025,0.26905823,1.5413818,0.07307434,1.4036751,-0.48482895,-3.6179478
1570714764,4.4598694,7.751541,2.8564758,-1.0699768,0.82232666,-0.19856262,3.2117,-3.1481562,5.3537655
1570714764,4.4598694,7.751541,2.8564758,-1.0699768,0.82232666,-0.19856262,3.2117,-3.1481562,5.3537655
1570714764,6.9941406,20.671844,0.8740692,-2.0521393,-1.8706665,0.86776733,5.934071,9.949562,3.5552218
1570714764,0.6207733,19.624374,-5.775818,0.38838196,0.5623932,0.2658844,1.8713121,11.559083,-4.426757
1570714764,-2.0738983,0.76405334,5.517624,-1.585556,-0.92471313,-0.66941833,-3.0738475,-9.834954,7.4084263
1570714764,-2.0738983,0.76405334,5.517624,-1.585556,-0.92471313,-0.66941833,-3.0738475,-9.834954,7.4084263
1570714764,-1.0300293,9.305374,4.9825287,-1.9988861,-2.119934,-0.05581665,-1.7955079,-3.2381163,6.7525187
1570714764,-2.3157196,16.08815,0.20848083,-1.5312347,-1.226181,0.1401825,-3.1421568,6.8281975,1.2056911
1570714764,-1.6261902,11.235092,0.6035309,-0.900589,0.6625366,-0.6427765,-3.193142,1.2829075,0.63880765
1570714764,2.9359741,9.173691,2.248352,-1.2116547,0.27371216,-0.32958984,2.1450458,-1.4290171,2.1059382
1570714764,2.0525055,9.817734,2.418335,-1.296875,-1.7939606,-0.3924408,1.7840905,-0.8814688,1.6388397
1570714764,0.3143158,10.86879,2.4877625,-0.9570465,-1.13031,-0.059020996,-0.17795429,0.17103672,1.5477825
1570714764,-2.838852,11.391922,2.6374054,-0.90379333,-0.3899536,-0.07606506,-3.0271037,0.82691,1.5227714
1570714764,-1.7937775,10.725128,0.6346588,-0.77915955,-1.03656,-0.1974945,-2.4150567,0.19395065,-1.0250201
1570714764,-0.18247986,10.637741,1.1817322,-0.78341675,-0.45706177,-0.20388794,-0.5299827,0.092861176,-0.62752914
1570714764,0.38015747,10.4414215,1.0835724,-0.8473358,-0.1662445,-0.101623535,0.034921244,-0.003856659,-0.70433974
1570714764,0.6028137,9.840469,0.872879,-0.9261627,-0.47836304,0.14445496,0.36612526,-0.6147976,-1.5090048
1570714764,-0.75349426,10.750275,0.86569214,-1.0422821,-0.042678833,0.27120972,-0.92223036,0.23120403,-1.7619998
1570714764,-0.99890137,10.67485,0.93751526,-1.0507965,0.03189087,0.2808075,-1.2003331,0.38393593,-1.7959714
1570714764,-0.18367004,10.503677,0.84654236,-0.9187012,-0.3334961,0.062423706,-1.089395,0.22994137,-2.1517107
1570714764,-0.059173584,11.627747,0.51374817,-0.68222046,-0.6168518,0.16362,-0.3162952,1.2634678,-2.920942
1570714764,2.097992,11.393112,-1.577591,0.13058472,-1.542572,-0.2124176,1.2230864,1.4294014,-4.6429586
1570714764,2.097992,11.393112,-1.577591,0.13058472,-1.542572,-0.2124176,1.2230864,1.4294014,-4.6429586
1570714764,-0.743927,10.863998,-0.4954071,0.18811035,-1.0610657,0.49066162,-1.2200571,0.5834093,-4.154662
1570714764,-3.2183228,12.768585,-1.5332947,0.68452454,-0.10658264,0.8571167,-3.8406575,2.190115,-4.319867
1570714764,0.9104767,13.848373,0.8525238,2.6403503,-0.14387512,0.0048980713,-1.213674,3.6393414,-1.299366
1570714764,0.9104767,13.848373,0.8525238,2.6403503,-0.14387512,0.0048980713,-1.213674,3.6393414,-1.299366
1570714764,7.7926025,11.637329,1.1984863,3.3231812,1.2154083,0.03791809,6.223961,1.0785828,-0.14160907
1570714764,1.5425415,14.405029,2.3596802,2.398529,-1.8099518,0.17427063,0.58669364,3.8509855,2.5431767
1570714765,-0.9653778,12.243057,1.2631378,1.8861389,-1.0408325,-0.6704712,-2.4472208,1.6440802,2.316696
1570714765,-0.9653778,12.243057,1.2631378,1.8861389,-1.0408325,-0.6704712,-2.4472208,1.6440802,2.316696
1570714765,-0.24951172,11.0303955,1.8664703,2.255783,2.2412567,-0.5895233,-1.1986899,0.52377415,3.999303
1570714765,-0.24951172,11.0303955,1.8664703,2.255783,2.2412567,-0.5895233,-1.1986899,0.52377415,3.999303
1570714765,0.6423187,9.666901,1.4917755,2.1396637,1.9685516,-0.40841675,-0.37173957,-0.6621094,4.3677015
1570714765,1.1582794,9.6345825,0.8800659,1.26828,2.0814667,-0.60868835,0.026016712,-0.16235161,4.5329914
1570714765,1.1582794,9.6345825,0.8800659,1.26828,2.0814667,-0.60868835,0.026016712,-0.16235161,4.5329914
1570714765,1.9627228,5.193329,0.67056274,0.16786194,1.0428314,-0.7418518,0.83775103,-4.603155,4.680368
1570714765,1.9351959,5.05925,0.68852234,0.1060791,0.9586792,-0.746109,0.83775103,-4.603155,4.680368
1570714765,0.72612,4.1566467,-0.24162292,-0.75465393,0.04574585,-0.619339,-0.18054575,-5.770279,3.5682206
1570714765,1.2085571,8.303406,-4.0579834,-1.7336273,-0.23335266,-0.6214752,0.59560883,-1.9892006,-0.84988713
1570714765,1.2085571,8.303406,-4.0579834,-1.7336273,-0.23335266,-0.6214752,0.59560883,-1.9892006,-0.84988713
1570714765,-1.4083099,17.874222,-8.1353,-0.7067108,1.5999603,-0.47340393,-1.8081194,7.373769,-5.7655983
1570714765,-0.24832153,18.47995,-7.3224792,-0.18580627,0.7605438,-0.21881104,-0.83658206,8.043809,-4.934977
1570714765,4.644226,9.838089,-7.717514,1.1617584,1.7405853,0.06135559,4.34319,-0.054989815,-4.916646
1570714765,1.125946,4.846176,-5.4969025,0.677063,2.2380524,-0.33172607,0.7569052,-5.018795,-2.6556227
1570714765,4.7567596,13.915405,1.8401337,-1.7741089,0.27157593,-0.23371887,4.1066656,2.4295702,4.535862
1570714765,5.063217,19.231735,1.4726257,-1.9211121,-0.47836304,0.015548706,4.2019696,7.55898,4.0467315
1570714765,6.9869537,34.867065,-2.6753235,-1.4747772,-1.4871674,0.84007263,6.2705173,23.786955,0.4668355
1570714765,-2.996872,8.748718,-0.083602905,0.74098206,-0.037353516,-0.4116211,-3.8287115,-0.69397926,1.3676534
1570714765,2.0393372,-0.6078186,5.0723114,-1.0625153,0.41220093,-0.75782776,1.4048997,-11.335042,7.041931
1570714765,1.12117,4.4128265,6.956543,-2.1533508,-1.3433533,0.16468811,1.2151275,-7.6673117,7.9006457
1570714765,-5.8136444,13.602966,-0.47146606,-1.263855,-0.43788147,-0.69285583,-6.8823185,3.712346,-0.1982699
1570714765,-5.8136444,13.602966,-0.47146606,-1.263855,-0.43788147,-0.69285583,-6.8823185,3.712346,-0.1982699
1570714765,4.206085,8.55838,2.2184143,-1.1328278,-2.1060944,-0.5895233,4.6904426,-2.3841028,2.1332521
1570714765,4.206085,8.55838,2.2184143,-1.1328278,-2.1060944,-0.5895233,3.7758918,-2.0109997,1.3848372
1570714765,2.901245,10.269043,2.1489868,-1.203125,-2.4544373,0.10290527,2.7149718,-0.47801685,1.097764
1570714765,-1.6728668,12.319672,1.8832245,-0.7503967,-0.7702484,0.26802063,-1.2659807,1.6353264,0.43079877
1570714765,-4.294525,11.152496,1.4654388,-0.38926697,-0.21737671,0.05177307,-4.7965436,0.62889576,0.18274677
1570714765,-0.48535156,9.377197,1.1314545,-0.47662354,-0.6062012,-0.13252258,-1.3470333,-1.0410748,-0.85692334
1570714765,0.53219604,10.25827,1.224823,-0.6055145,-0.5433502,-0.082458496,0.009276032,-0.4784727,-0.29975224
1570714765,0.5166321,9.876389,0.8501282,-0.68115234,-0.3228302,0.04324341,0.274715,-0.46986294,-1.0783494
1570714765,-0.45780945,9.279037,1.2822876,-0.8175049,-0.52523804,0.029403687,-0.85954416,-1.2125616,-0.80361223
1570714765,-0.72476196,9.879974,1.4558716,-1.0912781,-0.044799805,0.14231873,-1.2231351,-0.51376915,-1.1731997
1570714766,-0.7127991,10.429443,1.3924255,-1.1466675,-0.1694336,0.10183716,-1.2122532,0.07969475,-1.3278861
1570714766,0.35263062,11.42305,0.81062317,-0.8473358,-0.4666443,0.085861206,-0.21699858,1.3034391,-2.66379
1570714766,0.35263062,11.42305,0.81062317,-0.8473358,-0.4666443,0.085861206,-0.24531186,1.3298616,-2.5739627
1570714766,-1.1114349,12.624939,2.1992645,-0.61616516,-0.68821716,0.17640686,-1.6104064,2.3889284,-1.6583698
1570714766,-1.1772766,12.952942,1.7000732,-0.24438477,-0.7446747,0.15829468,-2.0594494,2.9447422,-1.8511443
1570714766,-2.4928894,13.836395,0.29826355,0.15507507,-0.49647522,0.44059753,-3.7479641,3.5951405,-3.360926
1570714766,-2.8089142,13.836395,0.29826355,0.15507507,-0.49647522,0.44059753,-3.7479641,3.5951405,-3.360926
1570714766,-3.7977295,15.289673,0.89682007,0.76867676,0.08729553,0.4373932,-5.1973033,5.2698917,-2.811954
1570714766,0.6830292,14.1332855,-0.210495,1.7167664,-0.1385498,-0.082458496,-1.1719476,4.1738806,-3.0937972
1570714766,3.2986908,10.996872,1.8389435,3.194275,0.5123291,0.3553772,2.836577,-0.15488529,0.39866245
1570714766,3.2986908,10.996872,1.8389435,3.194275,0.5123291,0.3553772,2.836577,-0.15488529,0.39866245
1570714766,-0.49731445,14.142853,2.1394043,2.3122406,-2.1263275,-0.08457947,-1.8616841,3.546834,2.0503018
1570714766,-0.8265228,11.597824,2.5476227,2.1055756,-0.32496643,-0.59484863,-2.0877957,1.0513563,3.2015831
1570714766,0.44718933,11.62056,-0.105148315,2.0981293,0.24069214,-0.6150818,-0.5149162,0.90298367,1.2726833
1570714766,-0.45661926,12.203552,-0.21289062,2.1386108,1.5253906,-0.50323486,-1.2188482,1.46947,1.545888
1570714766,-0.803772,11.450577,0.3317871,2.302658,2.5235443,-0.30403137,-1.848618,1.1049795,2.5849564
1570714766,1.4312134,10.550354,0.17616272,2.1790771,2.3030396,-0.42973328,0.21038389,0.17477036,2.9891775
1570714766,2.6606293,8.646973,1.1901093,1.790268,2.5278168,-0.47659302,1.3233933,-1.2650642,5.102275
1570714766,3.074829,7.952652,1.1877136,1.5420532,2.2870636,-0.43399048,1.5949724,-1.7143278,5.2075458
1570714766,3.244812,6.6669617,0.6957092,1.0499115,1.6383209,-0.39883423,1.8864689,-2.9002619,5.05488
1570714766,0.80513,5.1011505,-0.46907043,-0.53733826,0.20872498,-0.40309143,-0.580747,-4.589987,3.8346405
1570714766,0.80513,5.1011505,-0.46907043,-0.53733826,0.20872498,-0.40309143,-0.580747,-4.589987,3.8346405
1570714766,1.244461,7.475006,-4.061569,-2.1213837,-0.5710449,-0.59484863,0.20190525,-2.6633682,-0.6270058
1570714766,1.244461,7.475006,-4.061569,-2.1213837,-0.5710449,-0.59484863,0.20190525,-2.6633682,-0.6270058
1570714766,0.1299591,14.920975,-7.2805786,-1.8028717,-0.45492554,-0.4169464,-0.67699677,4.2429533,-4.273034
1570714766,2.7851257,10.920258,-6.984894,0.946579,1.7725372,-0.21987915,2.0044336,1.3190632,-4.1280384
1570714766,2.7851257,10.920258,-6.984894,0.946579,1.7725372,-0.21987915,2.0044336,1.3190632,-4.1280384
1570714766,1.670639,-0.5467682,-1.0053711,0.11140442,1.5264587,-0.54904175,0.61972743,-10.601636,1.3656745
1570714766,5.9622345,19.598053,0.83695984,-1.7432251,-0.7457428,0.5630951,4.9062443,8.276698,3.9837418
1570714766,6.188492,24.968246,-1.7140503,-1.7400208,-1.2016754,0.9732208,5.08273,12.144899,2.0631397
1570714766,-0.48535156,-3.3467865,5.0818787,-0.41056824,-0.8341675,-0.7897949,-1.9286608,-12.423553,8.591064
1570714766,-0.48535156,-3.3467865,5.0818787,-0.41056824,-0.8341675,-0.7897949,-1.9286608,-12.423553,8.591064
1570714766,-0.8720093,17.816757,3.5268555,-2.1139374,-4.4070587,0.97003174,-1.3653975,6.6002645,5.1426945
1570714766,-0.8720093,17.816757,3.5268555,-2.1139374,-4.4070587,0.97003174,-1.3653975,6.6002645,5.1426945
1570714767,-1.6728668,9.720764,1.2918701,-0.595932,1.578659,-0.44996643,-2.5508468,-0.7808714,1.9720513
1570714767,-1.6728668,9.720764,1.2918701,-0.595932,1.578659,-0.44996643,-2.5508468,-0.7808714,1.9720513
1570714767,1.9100494,10.553955,0.90519714,-1.5131226,-2.2083588,-0.19004822,1.7005999,-0.32615376,0.7648003
1570714767,1.9100494,10.553955,0.90519714,-1.5131226,-2.2083588,-0.19004822,1.7005999,-0.32615376,0.7648003
1570714767,-1.8811646,11.885132,1.0105438,-1.2585297,-0.5710449,-0.11122131,-2.1766014,1.2666245,0.20732659
1570714767,-2.4186707,10.45459,0.8417511,-0.7802124,0.19807434,-0.0632782,-2.815908,-0.113713264,-0.15739393
1570714767,-0.47457886,10.699997,1.0093536,-1.0177765,-0.43894958,-0.25715637,-0.8229333,0.12722874,-0.4557457
1570714767,-0.4302826,10.648514,0.9614563,-1.0294952,-0.39634705,-0.24862671,-0.8229333,0.12722874,-0.4557457
1570714767,0.8458252,10.506058,1.2355957,-1.0667725,-0.3611908,0.13699341,0.60004365,0.055052757,-0.9853585
1570714767,0.76802063,10.458176,1.3122101,-1.0816956,-0.35798645,0.14871216,0.60004365,0.055052757,-0.9853585
1570714767,-0.035232544,10.6150055,1.1721497,-1.1647797,-0.27383423,0.21795654,-0.17336509,0.22052193,-1.2338529
1570714767,-1.6764679,12.061096,0.43832397,-1.140274,-0.11936951,0.23500061,-1.9878497,1.7893143,-2.3469977
1570714767,0.9320221,11.384735,-0.047698975,-0.56503296,-0.6264343,0.1561737,0.4265045,1.2367382,-3.401706
1570714767,0.5704956,11.292557,0.3724823,-0.45318604,-0.52949524,0.24990845,0.19185495,1.1642218,-3.2663798
1570714767,-1.2335358,13.231857,2.5153046,0.008071899,-0.57743835,0.3138275,-1.9534774,3.001936,-0.9173744
1570714767,1.3749542,11.36319,-0.9167938,0.08477783,-1.7098083,-0.14424133,0.46422303,1.650136,-3.6530466
1570714767,-0.2243805,11.705566,-0.17098999,0.12632751,-1.2986145,0.23500061,-0.74434507,0.926589,-3.9273112
1570714767,-2.8424377,14.548676,0.31861877,0.8219452,-0.40060425,0.6238251,-3.9050345,4.2734766,-2.678507
1570714767,5.458252,11.011246,0.8309784,2.7660522,0.24176025,0.1561737,3.723149,0.7158184,-1.2278968
1570714767,5.458252,11.011246,0.8309784,2.7660522,0.24176025,0.1561737,3.723149,0.7158184,-1.2278968
1570714767,2.0489197,13.55748,2.402771,2.6712341,-0.5838318,0.4150238,0.57678866,2.8763943,2.012292
1570714767,-0.95581055,11.292557,2.3991852,2.0235596,-1.6512146,-0.3935089,-2.568789,0.78750134,3.1343913
1570714767,-0.95581055,11.292557,2.3991852,2.0235596,-1.6512146,-0.3935089,-2.568789,0.78750134,3.1343913
1570714767,0.09524536,11.561905,1.0129395,1.8754883,-0.2589264,-0.87820435,-1.3866762,1.0616636,2.740576
1570714767,1.0481415,11.508041,-1.1981049,1.9820099,0.813797,-0.8249359,-0.03590989,0.8376589,0.5871457
1570714767,1.1008148,9.732742,0.38804626,1.8083801,1.8130188,-0.65237427,0.13984215,-0.6478472,3.5523264
1570714767,1.1008148,9.732742,0.38804626,1.8083801,1.8130188,-0.65237427,0.13984215,-0.6478472,3.5523264
1570714767,1.6694336,9.976944,-0.16619873,1.5995789,2.0292664,-0.7652893,0.91743714,-0.27165413,3.1693008
1570714767,1.5221863,9.422684,0.33299255,1.2469788,2.0995789,-0.78019714,0.78371775,-0.61877346,3.9814003
1570714767,2.0333557,7.507324,1.1206818,0.8485718,1.9845276,-0.70562744,1.2881453,-2.386774,5.0104837
1570714767,1.7987213,5.85054,0.76753235,0.25201416,1.0481567,-0.5607605,1.081795,-3.9903297,4.8043914
1570714767,1.2408752,5.284317,-0.34217834,-0.24333191,0.5368347,-0.5660858,0.75042224,-4.4540663,4.018235
1570714767,0.6171875,5.421982,-2.198883,-1.1860809,-0.0362854,-0.6022949,0.09013873,-4.5714827,1.5455287
1570714768,0.2448883,8.00293,-3.4534454,-1.8955536,-0.041610718,-0.6076355,-0.039461046,-2.2283392,-0.18048501
1570714768,-1.3077545,13.151657,-7.388321,-1.3480072,0.6337738,-0.59910583,-1.2546836,2.09208,-4.34704
1570714768,5.48938,11.411072,-8.423813,0.946579,1.4827881,0.15083313,5.5791826,2.2980556,-6.5043993
1570714768,5.1230774,10.603027,-7.8468018,0.946579,1.4827881,0.15083313,5.044622,0.6405344,-5.312529
1570714768,1.2013702,4.8294067,-4.4015503,0.49702454,1.977066,-0.24543762,1.0406958,-5.1824512,-1.652044
1570714768,0.6758423,3.5054169,-1.7966614,-0.3679657,1.0492249,-0.22413635,0.2961272,-6.8592253,1.1929638
1570714768,2.563675,15.3315735,1.9658356,-1.4822235,0.57092285,0.23606873,1.8162212,2.3816223,3.652575
1570714768,2.6331024,24.551651,-3.1146698,-0.92723083,-0.75746155,0.37986755,2.2459106,14.467342,-1.2026339
1570714768,1.1307373,2.1371307,4.3145447,-0.8601074,0.733902,-0.75782776,0.7294779,-8.275547,5.844153
1570714768,-0.38838196,7.01532,5.5595245,-2.045761,-1.4008789,0.2893219,-0.48102975,-5.151945,6.2127924
1570714768,-0.5799103,8.038834,5.880356,-2.0862274,-1.5478973,0.3330078,-0.48102975,-5.151945,6.2127924
1570714768,-3.3188782,12.323257,-0.052474976,-1.0625153,-0.12576294,-0.53944397,-3.8718033,1.6472445,-0.17373236
1570714768,-3.3188782,12.323257,-0.052474976,-1.0625153,-0.12576294,-0.53944397,-3.8718033,1.6472445,-0.17373236
1570714768,5.947876,8.746323,2.1549683,-1.1285553,-1.7747955,-0.6150818,5.6847224,-1.9845619,1.4726967
1570714768,1.2731934,10.248688,1.798233,-0.9016571,-0.8725128,0.015548706,1.4588675,-0.5298567,0.66886854
1570714768,1.2731934,10.248688,1.798233,-0.9016571,-0.8725128,0.015548706,1.4588675,-0.5298567,0.66886854
1570714768,-2.148117,11.508041,2.6685333,-0.87609863,-0.21205139,0.07839966,-1.7319787,0.7667875,1.0803286
1570714768,-2.8879242,10.957367,1.4917755,-0.68222046,-0.9662628,-0.0057525635,-3.3712516,0.5421276,0.1515665
1570714768,-0.54042053,9.984131,1.209259,-0.7972717,-0.76171875,-0.19216919,-0.7911962,-0.54372215,-0.62425756
1570714768,0.4699402,9.9075165,1.303833,-0.90486145,-0.7734375,-0.049423218,0.32071966,-0.5624294,-0.89177823
1570714768,0.7177429,9.743515,1.121872,-0.8931427,-0.7446747,0.07733154,0.5083842,-0.71669006,-1.257338
1570714768,0.5896454,9.648941,0.85491943,-0.9485321,-0.4911499,0.22007751,0.35751703,-0.73724174,-1.7235441
1570714768,-1.0455933,10.501282,0.9004059,-1.0539856,-0.014968872,0.339386,-1.3616555,0.19875431,-2.045691
1570714768,-2.3312836,10.354034,0.91477966,-1.0774231,-0.24827576,0.2669525,-2.7450497,0.22222137,-2.2422354
1570714768,1.1067963,11.894699,0.6394501,-0.469162,-0.7681122,0.0059661865,0.74023473,1.8607311,-3.1174507
1570714768,1.1067963,11.894699,0.6394501,-0.469162,-0.7681122,0.0059661865,0.74023473,1.8607311,-3.1174507
1570714768,-0.5894928,12.568665,1.1182861,-0.053710938,-0.7159271,0.24032593,-1.1900065,2.3921347,-2.4067838
1570714768,-1.0348206,13.625717,-0.124313354,0.20622253,-0.8128662,0.116744995,-1.8771874,3.4925518,-3.6378183
1570714768,-2.9932709,15.384247,0.66937256,0.6600189,-0.5177765,0.04963684,-4.1098175,5.3108425,-2.839918
1570714768,-0.5009155,14.683945,-1.6709595,1.4057007,-0.4208374,-0.21028137,-1.8002393,4.511054,-4.388485
1570714768,4.280319,9.126999,0.4874115,3.1399536,0.40153503,0.39265442,3.6621695,-1.418642,-1.4898194
1570714768,2.1817932,11.140533,1.6605682,3.083496,0.2896881,0.48320007,1.2256874,0.30575848,0.277601
1570714768,0.2233429,14.716263,1.5707855,2.5529938,-1.5351105,-0.008956909,-0.3803488,3.622449,1.6431576
1570714768,-0.5320282,14.332001,1.4474792,2.0832062,-1.6522827,-0.23478699,-2.639668,3.6366625,2.6774783
1570714769,1.0696869,11.414658,0.47424316,2.095993,0.42710876,-0.41055298,0.25965792,0.693923,2.138588
1570714769,1.0696869,11.414658,0.47424316,2.095993,0.42710876,-0.41055298,0.25965792,0.693923,2.138588
1570714769,0.089263916,12.087433,-0.4666748,2.07576,1.4295197,-0.34983826,-0.35108513,1.5516949,1.2416549
1570714769,0.33106995,10.006866,0.31982422,1.936203,1.7693481,-0.5192108,-0.519611,-0.3181286,3.162667
1570714769,0.74287415,9.040817,1.062027,1.7338104,1.7661438,-0.6150818,-0.038062513,-1.1047459,4.1775827
1570714769,1.0265961,8.758301,1.3876343,1.4664154,2.0846558,-0.65130615,0.19355154,-1.3033867,5.1028037
1570714769,1.4659271,7.388809,0.7914734,0.8336487,1.6436462,-0.81855774,0.6828941,-2.4868698,4.8094606
1570714769,1.3737488,5.2986755,1.2032776,-0.10484314,1.1855774,-0.7695465,0.5066974,-4.4335737,5.3082376
1570714769,1.3282623,4.3852844,0.30186462,-0.6321411,0.7296448,-0.6491699,0.68453866,-5.355608,4.457342
1570714769,1.8382263,4.7097015,-1.1789551,-1.4811707,-0.1459961,-0.30189514,1.1473796,-5.563135,2.6800764
1570714769,1.3138885,8.350082,-3.3756409,-2.0734558,-0.33668518,-0.14317322,1.046654,-2.42735,0.02412653
1570714769,-0.5320282,15.365097,-9.848358,-0.96131897,0.16719055,-0.13571167,-0.7285254,4.082361,-6.356108
1570714769,1.2133331,19.201813,-7.819275,0.011276245,0.28755188,-0.13038635,0.58669806,8.987567,-5.4289937
1570714769,3.1634216,9.40593,-7.6708374,0.85176086,0.9213867,-0.17939758,3.0492818,0.03874588,-5.2323494
1570714769,0.4795227,4.0620728,-1.5045624,-0.2742157,1.9834595,-0.32214355,-0.14233911,-6.4133825,1.1394315
1570714769,2.2619934,8.997711,0.8010559,-0.6960602,1.3847809,-0.21134949,1.2073215,-3.3709908,2.9087212
1570714769,3.5740204,22.52855,-2.9123535,-1.1796875,-0.2674408,0.6152954,3.4214559,11.658666,0.18749642
1570714769,0.8937073,2.2879639,4.504883,0.45655823,-0.5422821,-0.028121948,-0.046204567,-6.0698347,6.3835073
1570714769,0.18861389,3.5066223,5.56073,-2.3727875,-0.78515625,-0.21028137,-0.4585082,-7.3346376,7.4340167
1570714769,0.18861389,3.5066223,5.56073,-2.3727875,-0.78515625,-0.21028137,-0.4585082,-7.3346376,7.4340167
1570714769,-2.2989502,19.055756,4.8077545,-2.5634766,-3.2885284,0.8347473,-2.7065866,7.0495653,6.092934
1570714769,0.048553467,9.789001,0.21447754,-0.7194977,1.2686615,-0.39883423,-1.166562,-0.3373909,0.22642517
1570714769,0.28079224,9.432266,0.43592834,-0.7706299,1.2569427,-0.42333984,-0.61276674,-1.0903254,0.54924136
1570714769,2.5744476,7.9107513,0.8704834,-1.3267059,-0.021362305,-0.47979736,1.7893696,-2.8073769,0.9158772
1570714769,-0.43746948,11.184814,1.2415771,-1.0806274,-1.3050079,-0.1847229,-0.56645834,0.5665636,0.40120047
1570714769,-1.8344727,10.284607,0.4874115,-0.7482605,0.023376465,-0.016403198,-2.010182,-0.28034973,-0.7112956
1570714769,-1.8129272,10.290588,0.48501587,-0.76530457,-0.038406372,-0.013214111,-2.321373,-0.34077644,-0.7097144
1570714769,-0.7846222,10.637741,0.3892517,-0.77915955,-0.4400177,-0.23052979,-1.4538333,0.1968317,-1.1883073
1570714769,-0.7846222,10.637741,0.3892517,-0.77915955,-0.4400177,-0.23052979,-1.4538333,0.1968317,-1.1883073
1570714769,0.50823975,9.972153,1.0249023,-0.87609863,-0.09593201,-0.101623535,0.116187155,-0.5249243,-0.8752166
1570714769,0.13833618,10.082291,1.3948059,-1.0997925,-0.32817078,0.08265686,-0.25734264,-0.39581013,-0.90751576
1570714769,-0.24473572,11.375153,-0.24043274,-1.1519928,-0.10978699,0.12634277,-0.93417776,1.1415615,-2.9700449
1570714769,-0.24473572,11.375153,-0.24043274,-1.1519928,-0.10978699,0.12634277,-0.93417776,1.1415615,-2.9700449
1570714770,0.48191833,11.114197,0.42396545,-0.80259705,-0.6946106,0.107162476,-0.13135332,0.95102787,-2.9211328
1570714770,-0.085510254,11.451767,0.6526184,-0.54159546,-0.68289185,0.19345093,-0.5448697,1.153677,-2.7319148
1570714770,-2.7155457,13.319244,2.229187,-0.16236877,-0.26104736,0.27653503,-3.2039618,2.9318295,-1.3318355
1570714770,-0.4590149,13.990829,-0.60554504,0.2594757,-0.6637268,0.07946777,-1.305386,3.7799768,-4.0061846
1570714770,-0.7187805,13.964493,-0.45350647,0.34150696,-0.55506897,0.12313843,-1.305386,3.7799768,-4.0061846
1570714770,-1.64534,13.22348,-1.3393707,1.1777344,0.17037964,0.47680664,-2.7073345,2.989993,-4.2664003
1570714770,3.9978027,9.912308,1.6294403,3.3775024,0.5773163,0.44592285,2.595844,-0.5448389,0.078520775
1570714770,4.1605988,9.8129425,1.4582672,3.3775024,0.5773163,0.44592285,2.595844,-0.5448389,0.078520775
1570714770,3.035324,11.28537,2.4937592,3.131424,0.70513916,0.3138275,1.7497838,0.5020056,1.6554396
1570714770,0.18383789,14.446915,2.5164948,2.600937,-1.9239349,-0.12187195,-0.94344056,3.9594793,2.9888237
1570714770,-0.8420868,12.41066,2.61586,1.9873352,-0.47624207,-0.72587585,-1.9823319,2.1243782,3.7460644
1570714770,0.010253906,11.492477,0.20968628,2.0448608,-0.12362671,-0.72480774,-1.0868897,0.894289,2.2012367
1570714770,0.6973877,10.345657,1.3098145,2.155655,1.9397888,-0.69711304,-0.13564509,0.019070625,4.300647
1570714770,0.7117615,10.215164,1.1996918,2.1524506,1.9142151,-0.7003021,-0.13564509,0.019070625,4.300647
1570714770,1.473114,8.880402,0.27792358,1.7359314,2.3840027,-0.5277405,0.6456626,-1.1585798,4.141429
1570714770,1.2109528,8.4326935,0.40600586,1.4536438,2.279602,-0.55436707,0.34358197,-1.4008942,4.413081
1570714770,2.0489197,6.736389,1.2942505,0.7228699,2.0175476,-0.55755615,0.99528956,-2.9983845,5.5469427
1570714770,2.7336578,4.929962,0.9866028,-0.09738159,1.1131439,-0.5458374,1.6331574,-4.59546,5.49661
1570714770,2.3876953,4.0932007,-0.1015625,-0.58421326,0.4143219,-0.5746002,1.3791028,-5.6110773,4.152249
1570714770,1.3581848,4.305084,-1.906784,-1.5631866,-0.6892853,-0.42866516,0.59394825,-5.395156,1.4839354
1570714770,0.9751129,6.1354523,-3.6318054,-1.966919,-0.5518646,-0.5554352,0.3487606,-4.053793,-0.10736966
1570714770,-1.8835602,16.64241,-8.401062,-1.7932892,-0.0874176,-0.7077637,-2.2109852,5.86742,-5.665188
1570714770,-1.5675201,23.04689,-8.043137,-0.88887024,0.070251465,-0.30615234,-1.98843,12.540952,-5.6581326
1570714770,6.1394043,11.114197,-9.245026,0.9881134,1.2090149,0.013427734,5.8774695,1.120882,-6.7681127
1570714770,2.0130005,5.414795,-6.2283173,0.583313,2.1325989,-0.36367798,1.9393904,-4.6375027,-3.6255777
1570714770,0.5860596,3.8202515,-1.3657074,-0.3168335,1.418869,-0.32000732,-0.067382246,-6.782297,1.3011651
1570714770,-0.22677612,17.743744,-2.9937592,0.1295166,-0.71058655,0.4927826,-0.72872907,7.404974,-0.56066394
1570714770,-0.22677612,17.743744,-2.9937592,0.1295166,-0.71058655,0.4927826,-0.72872907,7.404974,-0.56066394
1570714770,0.26522827,2.6459045,4.1517334,-1.7687836,0.19381714,-0.8249359,0.043383896,-8.4471655,5.8908367
1570714770,-0.2171936,3.6095734,4.525238,-1.9882355,-0.15771484,-0.7407837,-0.39609063,-7.6129713,6.242835
1570714770,-0.43984985,15.070618,3.5914917,-2.1597443,-2.9891968,0.5407257,-1.1691588,2.7065945,5.6388683
1570714770,-1.135376,9.951813,0.59754944,-0.9304199,0.7402954,-0.490448,-1.634659,-0.6042414,0.8285966
1570714770,-1.135376,9.951813,0.59754944,-0.9304199,0.7402954,-0.490448,-1.634659,-0.6042414,0.8285966
1570714771,3.1777802,9.824921,1.3349609,-1.4971466,-2.7026367,-0.46061707,3.1041765,-1.264348,0.8277083
1570714771,-0.54519653,11.049545,1.7838745,-0.8270874,-0.63708496,-0.047302246,-0.6244487,0.400527,0.6305707
1570714771,-0.669693,11.033981,1.659378,-0.80685425,-0.50819397,-0.0398407,-0.7676766,0.38614464,0.6973165
1570714771,-1.7028046,10.573105,1.0775757,-0.6928711,-0.8448181,-0.0206604,-1.9430528,-0.07722187,-0.34238827
1570714771,-1.629776,10.570709,1.0739899,-0.6992645,-0.80114746,-0.037704468,-1.9430528,-0.07722187,-0.34238827
1570714771,-1.0827026,10.428253,1.0129395,-0.84413147,-0.44641113,-0.15063477,-1.3508829,-0.13909054,-0.65691364
1570714771,0.8458252,10.219955,0.6322632,-1.0934143,-0.36758423,0.16575623,0.70600164,-0.21807575,-1.6575661
1570714771,0.8458252,10.219955,0.6322632,-1.0934143,-0.36758423,0.16575623,0.70600164,-0.21807575,-1.6575661
1570714771,-2.5958405,11.332062,0.8621063,-1.18396,0.07344055,0.40223694,-2.7402916,1.0686407,-2.2246428
1570714771,-2.5958405,11.332062,0.8621063,-1.18396,0.07344055,0.40223694,-2.7402916,1.0686407,-2.2246428
1570714771,-2.2857819,11.3272705,1.0440674,-0.9985962,-0.06716919,0.21368408,-2.819271,1.0915565,-2.1819265
1570714771,0.096450806,11.2482605,0.8513336,-0.5586395,-0.6360321,0.014480591,-0.35372865,1.2035961,-3.0399501
1570714771,0.60162354,11.986877,-1.1047363,0.16999817,-1.179306,-0.10269165,-0.088250816,1.791256,-4.3697023
1570714771,0.592041,12.104187,-1.1801453,0.15188599,-1.240036,-0.11973572,-0.11984807,1.944212,-4.6496124
1570714771,-2.4306335,14.731827,-0.114730835,0.41607666,-0.494339,0.04751587,-2.8701472,4.4574337,-3.875232
1570714771,-2.0858765,14.329605,-0.093185425,1.0701447,0.206604,0.25204468,-3.0530362,4.167204,-3.048781
1570714771,1.3917084,13.5993805,-0.4343567,2.1673737,-0.22377014,0.21902466,-0.053686082,3.4809217,-3.4441302
1570714771,5.481003,9.420288,1.0165253,3.3093262,-0.019241333,0.5535126,4.40275,-0.9111233,-0.77006304
1570714771,2.3158722,14.043503,2.7511292,2.7607117,-0.73083496,0.16894531,1.1388141,3.2338676,2.3042006
1570714771,-0.7858124,13.048706,1.6246643,2.1300812,-1.734314,-0.35090637,-2.0014057,2.5932646,2.4802184
1570714771,0.4232483,11.045959,0.30665588,2.1364746,0.65400696,-0.41055298,-0.5825811,0.47243214,1.9277605
1570714771,0.4232483,11.045959,0.30665588,2.1364746,0.65400696,-0.41055298,-0.5825811,0.47243214,1.9277605
1570714771,0.32748413,11.177643,-0.30267334,2.1790771,0.9394989,-0.2912445,-0.542953,0.5859356,1.7814498
1570714771,0.22453308,10.609009,0.50297546,2.07576,1.3847809,-0.33172607,-0.7396631,0.31197357,3.3148842
1570714771,1.5054321,9.911102,0.10673523,1.9308777,1.9749451,-0.48298645,0.5593677,-0.26440048,3.3931592
1570714771,1.5592957,8.812164,0.91596985,1.8190308,2.2359314,-0.41801453,0.44156456,-1.0864811,4.637985
1570714771,1.8729401,7.874832,1.3253784,1.4152832,2.2902527,-0.3455658,0.5765809,-1.8432722,5.4460154
1570714771,2.6690216,6.2084656,0.49699402,0.548172,1.2963715,-0.40629578,1.3439814,-3.4434443,4.858189
1570714771,1.8980865,4.6450653,0.08998108,-0.13146973,0.5858307,-0.45529175,0.7030927,-4.898017,4.456757
1570714771,0.7584381,4.38768,-1.6386414,-1.107254,0.08409119,-0.4308014,-0.44682312,-5.3919106,2.6196623
1570714771,-0.7403259,9.110245,-5.6034393,-2.0361633,-0.54867554,-0.8632965,-1.5739286,-1.6793814,-1.7979538
1570714771,-0.7271576,16.001953,-7.913849,-1.566391,-0.33242798,-0.7738037,-1.3050799,5.2892094,-4.948938
1570714771,-0.014892578,20.87535,-9.562256,-0.8931427,-0.18754578,-0.40629578,-0.85417825,9.2228155,-6.2689056
1570714771,5.8269653,16.869858,-10.624084,0.4320526,0.3035431,0.3553772,4.720839,8.178438,-8.336465
1570714772,0.35263062,1.6211853,-1.2220459,-0.17301941,1.292099,-0.31254578,-0.5947646,-8.630058,1.0660188
1570714772,7.308975,19.753662,1.2918701,-1.8774414,-0.98223877,0.6376648,5.9618397,7.481043,4.564123
1570714772,7.308975,19.753662,1.2918701,-1.8774414,-0.98223877,0.6376648,5.9618397,7.481043,4.564123
1570714772,2.6223297,19.181458,-3.060791,-0.4467926,-0.70207214,0.80703735,2.282017,9.12312,0.014015436
1570714772,-1.4909058,7.035675,1.8066101,0.5311279,-0.634964,0.085861206,-2.69876,-4.173478,4.5092087
1570714772,-3.4745026,12.147293,4.9226685,-2.4889069,-2.3660126,0.20303345,-4.186336,0.902091,6.2896
1570714772,-3.4745026,12.147293,4.9226685,-2.4889069,-2.3660126,0.20303345,-4.186336,0.902091,6.2896
1570714772,-1.2826233,12.086243,-1.4327393,-0.67689514,1.1387024,-0.23052979,-2.3816712,1.5017061,-1.3214054
1570714772,-0.9103241,11.961746,-1.0329132,-0.6225586,1.305954,-0.3104248,-2.3816712,1.5017061,-1.3214054
1570714772,4.417984,9.745911,1.2020874,-1.4310913,-2.6973114,-0.8249359,4.264265,-1.0126181,0.92357415
1570714772,4.417984,9.745911,1.2020874,-1.4310913,-2.6973114,-0.8249359,4.264265,-1.0126181,0.92357415
1570714772,-2.2678375,10.927444,2.2351837,-0.8494568,-0.36863708,0.14657593,-2.5245225,0.31941414,1.0184847
1570714772,-2.5216217,10.975327,2.1489868,-0.83987427,-0.2919464,0.15510559,-2.5245225,0.31941414,1.0184847
1570714772,-0.5320282,10.334885,0.8609009,-0.95918274,-1.2378998,-0.34877014,-1.0967159,-0.21319485,-0.89088047
1570714772,-0.23396301,10.302551,0.9243469,-0.96025085,-1.2038116,-0.3413086,-1.0967159,-0.21319485,-0.89088047
1570714772,1.4814911,9.906311,0.5879669,-0.94000244,0.07450867,0.2147522,1.0748811,-0.5245342,-1.6163969
1570714772,1.3557892,9.84407,0.57121277,-0.93362427,0.04360962,0.23925781,1.0748811,-0.5245342,-1.6163969
1570714772,-1.990097,11.528381,1.1984863,-0.96131897,0.114990234,0.27441406,-2.5745678,1.4038258,-1.4534407
1570714772,-2.0236206,11.4218445,1.0105438,-0.9485321,0.12670898,0.26481628,-2.6837983,1.2080851,-1.8175995
1570714772,-0.803772,10.877167,0.2803192,-0.8707733,-0.20352173,0.10397339,-1.9008551,0.6680403,-2.9421127
1570714772,-0.07833862,11.498459,0.56881714,-0.45637512,-0.57318115,0.21368408,-0.7645741,1.328412,-2.9075553
1570714772,-2.024826,12.745834,1.6845093,-0.2188263,-0.35054016,0.35749817,-2.5041695,2.271865,-1.778584
1570714772,-0.13459778,12.870346,-2.2970428,0.10714722,-1.1889038,-0.04837036,-1.113993,2.2644243,-5.6571903
1570714772,-1.416687,14.282913,-0.838974,0.883728,0.10220337,0.480011,-2.5588117,4.100959,-4.0249586
1570714772,-1.6046295,13.934555,-0.66539,1.3066406,0.39408875,0.608902,-2.8383107,3.7411575,-3.649829
1570714772,0.11199951,12.773376,-0.8162384,2.5018616,0.30247498,0.546051,-1.406584,2.4852858,-3.2203674
1570714772,4.568817,10.160095,0.7184448,3.3796387,0.5730438,0.21902466,2.9861548,-0.32767677,-0.77168703
1570714772,3.0460968,15.520721,2.8959808,2.9268951,-1.0812988,-0.1974945,1.4885441,4.397092,3.2394326
1570714772,0.26643372,15.723038,1.9382935,2.33461,-2.2019653,-0.35195923,-1.0737783,5.1477537,2.449283
1570714772,-0.82292175,11.067505,0.9387207,2.016098,0.41220093,-0.73439026,-1.8986772,0.48166943,2.52696
1570714772,0.45916748,10.886749,-1.6781464,2.0501862,0.82977295,-0.6939087,-0.45458823,0.22514534,0.28904116
1570714772,0.70217896,9.336502,1.1721497,1.9340668,1.6809235,-0.4116211,-0.12653875,-0.9393873,4.2410326
1570714772,0.8087158,9.216782,1.0763855,1.9127655,1.7277985,-0.40309143,-0.12653875,-0.9393873,4.2410326
1570714773,0.9799042,8.518875,1.1865234,1.5154266,2.6204834,-0.3935089,-0.0688076,-1.4919186,5.0097904
1570714773,0.9643402,8.467407,1.2834778,1.4877319,2.6300812,-0.40415955,-0.0688076,-1.4919186,5.0097904
1570714773,2.326645,5.1921387,1.006958,-0.103775024,1.1429596,-0.63319397,1.0463101,-4.383876,5.170728
1570714773,2.326645,5.1921387,1.006958,-0.103775024,1.1429596,-0.63319397,1.0463101,-4.383876,5.170728
1570714773,1.4120636,4.0979767,-0.24520874,-0.94000244,0.18635559,-0.6672821,0.33661067,-5.7352295,3.6843843
1570714773,1.0218048,5.7248383,-2.7962341,-1.7805023,-0.47943115,-0.617218,0.190588,-4.4356165,0.71036863
1570714773,0.3837433,8.3776245,-4.2950134,-2.0372314,-0.33242798,-0.65449524,-0.33814746,-1.9775114,-1.0872331
1570714773,-0.04360962,20.876556,-10.723434,-0.6790161,0.35040283,-0.34770203,-0.7636645,9.296318,-7.474184
1570714773,2.0608826,20.1559,-10.827591,0.37239075,0.9394989,0.041122437,1.2689211,10.14831,-8.291649
1570714773,0.8829346,4.5121765,-4.637375,0.66641235,1.7895813,-0.46488953,0.7993637,-4.840873,-2.094497
1570714773,-0.44224548,2.3059235,-3.0727692,0.3329773,1.5072937,-0.43824768,-1.0935338,-7.8259687,-0.16695523
1570714773,5.350525,19.365814,2.9486542,-1.5536041,-0.64668274,0.513031,4.303878,6.2641945,6.0370665
1570714773,6.53804,22.524963,0.6466217,-1.4843597,-0.87890625,0.85284424,5.4654813,11.817561,3.6260247
1570714773,1.0613098,18.201035,-2.669342,0.5375061,-0.44534302,0.57162476,0.12732553,8.575342,-0.2634337
1570714773,-1.8021545,5.2902985,4.917877,-2.1618652,-1.7215271,-0.33918762,-2.2251453,-6.067087,6.0452623
1570714773,-1.8021545,5.2902985,4.917877,-2.1618652,-1.7215271,-0.33918762,-2.2251453,-6.067087,6.0452623
1570714773,-2.2642365,15.398621,5.0483704,-2.1767883,-3.3354034,0.5737457,-3.097007,2.8987074,7.19208
1570714773,-2.5048523,13.142075,-1.0700226,-1.2851562,0.101135254,-0.028121948,-3.4440718,4.261076,-1.0691009
1570714773,0.012649536,9.292206,0.63105774,-0.8143158,0.7253876,-0.48831177,-1.2260928,-0.9641609,0.8681797
1570714773,1.4503632,10.355225,1.1051178,-1.3341522,-1.8120728,-0.26994324,1.5939467,-0.21407318,0.614101
1570714773,1.4503632,10.355225,1.1051178,-1.3341522,-1.8120728,-0.26994324,1.5939467,-0.21407318,0.614101
1570714773,-3.231491,10.351639,1.374466,-0.8835449,-0.55293274,0.085861206,-3.6124585,-0.25409698,0.25316393
1570714773,-3.231491,10.300171,1.1266632,-0.8260193,-0.57211304,0.019805908,-3.081719,-0.29793644,-0.22933877
1570714773,0.66625977,10.558731,0.86808777,-1.0305634,-0.5838318,-0.3050995,0.079636395,0.11308193,-0.85468507
1570714773,0.79914856,10.503677,0.8273926,-1.0326843,-0.55400085,-0.2869873,0.079636395,0.11308193,-0.85468507
1570714773,1.3210754,10.073914,0.57958984,-0.994339,-0.051193237,-0.0398407,0.9671577,-0.40403557,-1.4646258
1570714773,0.56570435,10.052368,1.1625824,-1.0124512,-0.040542603,0.29678345,0.35095438,-0.40067005,-1.2224624
1570714773,-1.9649658,10.975327,0.73880005,-1.1147156,0.0851593,0.17533875,-2.7030401,0.7678337,-2.1294985
1570714773,-1.8739777,10.965744,0.7328186,-1.1008606,0.060653687,0.1561737,-2.7030401,0.7678337,-2.1294985
1570714773,0.13356018,11.42305,0.58677673,-0.8697052,-0.31217957,0.030471802,-0.8120179,1.2213774,-2.5550191
1570714773,-0.2531128,11.922241,0.55085754,-0.41163635,-0.45385742,0.25097656,-0.79208183,1.7522945,-3.0665953
1570714773,-2.0343933,13.175598,1.4043884,0.11566162,-0.57211304,0.22007751,-3.1465168,3.3116884,-1.9018404
1570714773,-0.4626007,12.438187,-0.119522095,0.028320312,-1.1548157,-0.113342285,-1.5353823,2.2840633,-3.184138
1570714774,-1.3747864,13.537125,-0.5792084,1.0136871,0.2577362,0.14764404,-2.3940103,3.342432,-3.6586146
1570714774,-1.3747864,13.537125,-0.5792084,1.0136871,0.2577362,0.14764404,-2.3940103,3.342432,-3.6586146
1570714774,5.2751007,9.161728,0.4694519,3.3285065,0.15652466,0.72927856,4.378264,-1.433197,-0.93819904
1570714774,5.2751007,9.161728,0.4694519,3.3285065,0.15652466,0.72927856,4.378264,-1.433197,-0.93819904
1570714774,1.5449371,14.208694,2.749939,2.8842926,-0.8480072,0.27441406,0.17212462,3.44341,2.5703373
1570714774,-0.69602966,14.213486,1.4498749,2.398529,-1.8738556,-0.12719727,-1.8025162,3.671548,2.0057986
1570714774,-0.5284424,12.301712,2.9546356,2.158844,-0.34094238,-0.34877014,-2.5219355,1.8954363,4.1201725
1570714774,0.18981934,11.571487,-0.109939575,1.9777527,0.624176,-0.47766113,-1.0790269,1.0499449,1.8993443
1570714774,0.034194946,10.923859,0.15820312,2.095993,1.6383209,-0.54797363,-1.0795362,0.5352793,2.5367885
1570714774,1.6682434,9.391571,0.30545044,1.8147583,1.5978394,-0.7375946,0.63631994,-0.8572264,3.4715114
1570714774,2.2548218,9.042007,0.013366699,1.6698914,1.6510925,-0.69285583,1.1120892,-1.0528259,3.3399665
1570714774,1.7999115,8.687668,0.85850525,1.4195557,1.8375244,-0.5746002,0.875876,-1.3835335,4.736477
1570714774,2.6390839,7.0296783,1.2535553,1.0839996,1.5094147,-0.3977661,1.6029772,-2.8297272,5.2655725
1570714774,2.1782074,4.98024,-0.062057495,0.12632751,0.64016724,-0.41481018,1.310389,-4.6767597,4.174637
1570714774,1.5449371,4.6666107,-0.25239563,-0.18473816,0.36106873,-0.42866516,0.60432506,-5.111125,3.9171076
1570714774,0.59443665,4.4882355,-1.4794312,-0.95066833,-0.2962036,-0.3849945,-0.284622,-5.338128,2.7644854
1570714774,-0.018478394,6.2790985,-4.0436096,-1.8273773,-0.29940796,-0.58525085,-0.5332622,-4.034273,-0.26993322
1570714774,-1.8811646,10.1050415,-6.984894,-1.904068,0.24601746,-0.7631531,-2.1194313,-0.868515,-3.4058375
1570714774,-1.6860352,19.793167,-8.731461,-1.1157837,0.6082001,-0.6353302,-2.24059,8.435689,-6.0813026
1570714774,5.552826,8.265091,-7.1022034,0.534317,1.8939819,-0.0952301,5.344353,-1.695837,-4.5687103
1570714774,5.552826,8.265091,-7.1022034,0.534317,1.8939819,-0.0952301,5.344353,-1.695837,-4.5687103
1570714774,6.018509,20.681427,0.8908386,-0.900589,0.19914246,0.19238281,5.0738406,7.53559,3.8101547
1570714774,-3.2063599,11.444595,-2.1689606,0.9934387,-0.54441833,0.36495972,-4.206775,2.2830744,0.44590187
1570714774,-3.2063599,11.444595,-2.1689606,0.9934387,-0.54441833,0.36495972,-4.206775,2.2830744,0.44590187
1570714774,0.75364685,-2.736267,3.4418488,-0.5724945,-0.574234,-0.41055298,-0.05314094,-13.090666,6.581016
1570714774,-2.7789917,21.734863,4.107437,-2.7083435,-4.031021,0.5694885,-3.0446613,10.693766,5.32253
1570714774,-2.7789917,21.734863,4.107437,-2.7083435,-4.031021,0.5694885,-3.0446613,10.693766,5.32253
1570714774,-2.069107,12.755417,-1.700882,-1.0870209,-0.71698,-0.13145447,-2.7617607,2.599598,-1.1870191
1570714774,3.0065918,8.326141,1.4331207,-1.1658478,-0.50286865,-0.6853943,3.0245261,-2.4686728,1.5769459
1570714774,3.0065918,8.326141,1.4331207,-1.1658478,-0.50286865,-0.6853943,3.0245261,-2.4686728,1.5769459
1570714774,-2.388733,11.531982,1.4450989,-0.9890137,-0.9662628,-0.1335907,-2.443254,0.908658,0.52193445
1570714774,-2.388733,11.531982,1.5061493,-0.9890137,-0.9662628,-0.1335907,-2.443254,0.908658,0.52193445
1570714774,-1.3089447,9.949417,1.6976776,-0.75891113,-0.4197693,-0.11227417,-1.3126018,-0.62505245,0.2931651
1570714774,-1.3089447,9.949417,1.6976776,-0.75891113,-0.4197693,-0.11227417,-1.3126018,-0.62505245,0.2931651
1570714775,0.87576294,10.721542,0.7735138,-1.0039215,-0.4400177,-0.023864746,0.92144513,0.20169067,-1.1599101
1570714775,0.83265686,10.630569,0.730423,-1.0028534,-0.40592957,0.0048980713,0.92144513,0.20169067,-1.1599101
1570714775,0.17066956,9.743515,1.0189209,-1.0177765,-0.39634705,0.21902466,0.17637807,-0.6970663,-1.2594917
1570714775,-0.7762451,9.656128,1.3337555,-1.1594543,-0.43788147,0.25737,-0.724431,-0.81503963,-1.2234392
1570714775,-1.6609039,11.373962,1.2667236,-1.1924744,-0.16731262,0.27120972,-1.7414173,1.0149832,-1.5479596
1570714775,0.023422241,10.921463,0.4945984,-0.92829895,-0.48901367,0.06561279,-0.39039165,0.6947489,-2.7029545
1570714775,-2.0751038,13.528748,2.3213654,-0.14639282,-0.7691803,0.16255188,-2.6068566,3.4019518,-1.2129953
1570714775,-2.0751038,13.528748,2.3213654,-0.14639282,-0.7691803,0.16255188,-2.6068566,3.4019518,-1.2129953
1570714775,1.2803802,11.175247,-2.004959,0.17745972,-1.6916962,-0.13891602,0.6052006,1.1678143,-5.178833
1570714775,1.1008148,10.150528,-2.5867462,-0.10484314,-1.5830383,0.02407837,0.5277656,1.18255615E-4,-6.433419
1570714775,-2.673645,14.601349,-1.1442413,0.7473755,-0.20033264,0.84965515,-3.5022657,3.7106094,-4.2369423
1570714775,-4.2370605,16.174332,0.9997711,1.6304779,-0.30152893,0.55244446,-5.527896,5.9010735,-1.9174719
1570714775,5.142227,10.96814,2.0137177,2.9162445,0.9352417,-0.22625732,2.6759312,1.03475,-0.48005438
1570714775,5.2224274,12.062302,3.1988373,3.0142517,0.7956848,0.16149902,4.313395,1.2509985,2.079876
1570714775,3.0101929,14.220673,2.7212067,2.5306244,-1.132431,0.18919373,2.4292576,3.5531406,2.6435566
1570714775,0.24728394,11.789352,2.3225708,1.9095764,-1.8301849,-0.29656982,-0.927294,1.1790342,2.698491
1570714775,0.50704956,10.994476,-0.14225769,1.9969177,-0.236557,-0.7194824,-0.7929388,0.22987461,1.4097238
1570714775,0.38974,12.178421,2.0005493,2.2813568,2.1432495,-0.60443115,-0.2525457,1.5553694,3.0710952
1570714775,0.255661,11.156097,2.0256805,2.2472687,1.9877167,-0.4073639,-0.31410354,0.848856,4.991538
1570714775,1.3486176,9.905121,0.45388794,1.9607086,1.9099579,-0.35090637,0.54822415,-0.47916698,3.3991086
1570714775,1.6155701,8.600281,0.98779297,1.3471069,1.9461823,-0.4350586,0.48913074,-1.2776756,4.710544
1570714775,2.7432404,6.146225,0.19770813,0.6600189,1.38797,-0.47021484,1.6762952,-3.6805477,4.272734
1570714775,2.6307068,6.012146,0.15820312,0.6014252,1.3293915,-0.47766113,1.6762952,-3.6805477,4.272734
1570714775,2.0836334,4.8916626,0.12109375,0.044296265,0.62631226,-0.48937988,1.0923486,-4.8854303,4.1666875
1570714775,0.38613892,4.241638,-0.9155884,-0.8750305,-0.17582703,-0.50216675,-0.4584489,-5.6627483,3.001423
1570714775,0.028213501,5.0772095,-2.550827,-1.535492,-0.45492554,-0.54371643,-0.68937784,-5.011754,1.1009161
1570714775,-0.2638855,8.856461,-5.80336,-1.8657227,-0.24081421,-0.6651459,-0.73948467,-1.5507708,-2.6380858
1570714775,4.0025787,16.824356,-10.572601,0.7143402,0.827652,0.37667847,3.4271069,6.862131,-8.04308
1570714775,4.0025787,16.824356,-10.572601,0.7143402,0.827652,0.37667847,3.4271069,6.862131,-8.04308
1570714775,3.7368317,6.8429413,-6.167267,0.64404297,1.7054291,-0.25715637,3.309471,-3.0945606,-3.306265
1570714775,5.560013,22.080826,-0.016571045,-1.3948822,-0.0043182373,0.36602783,4.7347136,7.110834,3.0200763
1570714775,5.560013,22.080826,-0.016571045,-1.3948822,-0.0043182373,0.36602783,4.7347136,7.110834,3.0200763
1570714776,-2.39711,3.4419708,6.272995,1.0477753,-0.52204895,0.19664001,-3.2486477,-7.887085,9.189475
1570714776,-2.39711,3.4419708,6.272995,1.0477753,-0.52204895,0.19664001,-3.2486477,-7.887085,9.189475
1570714776,-2.452179,12.832031,6.8943024,-2.4867706,-3.9053192,0.08905029,-3.2378902,0.24244404,8.756316
1570714776,-2.452179,12.832031,6.8943024,-2.4867706,-3.9053192,0.08905029,-3.2378902,0.24244404,8.756316
1570714776,-1.4657745,13.100189,-1.6506042,-1.0976715,-0.57743835,-0.27313232,-1.9484669,2.9951696,-0.86797285
1570714776,1.5233917,7.9358826,1.5648041,-1.0124512,0.5592041,-0.33598328,0.43024898,-2.4741592,2.314717
1570714776,1.5233917,7.9358826,1.5648041,-1.0124512,0.5592041,-0.33598328,0.43024898,-2.4741592,2.314717
1570714776,3.682953,9.003708,1.9610443,-1.4843597,-0.7436218,-0.3700714,3.9128902,-2.0295763,2.0420961
1570714776,0.89730835,10.628174,2.390808,-1.7070007,-2.1902466,0.105041504,0.785323,-0.12643337,1.8042299
1570714776,-2.2618408,11.927017,1.279892,-1.3746338,-1.352951,0.17959595,-2.345079,1.2634315,0.2965362
1570714776,-1.0994568,10.011658,0.8417511,-0.8270874,-0.11190796,-0.12506104,-1.4739801,-0.6143465,-0.6785203
1570714776,-0.78941345,9.868011,1.3050385,-0.9666443,-0.66477966,-0.25076294,-1.4630151,-0.71878433,-0.41810727
1570714776,1.588028,9.936249,0.71965027,-0.98262024,-0.6168518,-0.012145996,1.4277602,-0.47990608,-1.4725504
1570714776,1.588028,9.936249,0.71965027,-0.98262024,-0.6168518,-0.012145996,1.4277602,-0.47990608,-1.4725504
1570714776,0.3837433,9.092285,1.4055939,-0.8952637,-0.22589111,0.23606873,0.17821124,-1.3022432,-1.0586774
1570714776,-0.7546997,10.000885,1.0404663,-1.0806274,-0.22483826,0.29252625,-1.077676,-0.44407654,-1.654247
1570714776,-1.614212,10.425858,0.55085754,-1.1328278,-0.46452332,0.18173218,-2.1494734,0.2341795,-2.6470191
1570714776,-0.38479614,11.669647,0.2743225,-0.45425415,-0.747879,0.17854309,-0.61720496,1.4821367,-3.5126283
1570714776,-0.669693,11.842026,0.4694519,-0.42121887,-0.7223053,0.19984436,-0.61720496,1.4821367,-3.5126283
1570714776,-0.7151947,13.383896,0.8740692,0.13058472,-0.82670593,0.10290527,-1.9536273,3.523735,-2.30464
1570714776,-2.5132294,15.587753,-0.41760254,0.49809265,-0.5369568,0.27760315,-2.863517,4.7906704,-4.046508
1570714776,-2.5132294,15.587753,-0.41760254,0.49809265,-0.5369568,0.27760315,-2.863517,4.7906704,-4.046508
1570714776,2.508606,12.41304,-0.14585876,2.731964,0.17996216,0.03791809,0.5227474,2.542636,-2.8714614
1570714776,3.2292633,11.949768,0.16778564,2.8011932,0.20979309,0.04751587,1.7529784,1.7076473,-2.2135143
1570714776,5.6330414,9.781815,1.3565063,3.2379608,0.5837097,0.2381897,4.4555974,-0.816473,-0.30493653
1570714776,3.0496979,13.664017,3.587906,2.875763,-0.4900818,0.2935791,1.5680043,2.852189,2.8847067
1570714776,-1.0695343,12.009628,2.035263,1.9415283,-0.60194397,-0.6385193,-2.348978,1.440836,3.0069714
1570714776,-1.0695343,12.009628,2.035263,1.9415283,-0.60194397,-0.6385193,-2.348978,1.440836,3.0069714
1570714776,0.6890106,11.294952,0.9854126,1.967102,1.4710693,-0.40203857,0.006725192,1.2259293,2.3912187
1570714776,0.6890106,11.294952,0.9854126,1.967102,1.4710693,-0.40203857,0.006725192,1.2259293,2.3912187
1570714776,1.3557892,9.477753,0.73880005,1.793457,2.2806702,-0.4393158,0.44722086,-0.74443245,4.117756
1570714776,1.3557892,9.477753,0.73880005,1.793457,2.2806702,-0.4393158,0.44722086,-0.74443245,4.117756
1570714776,0.92723083,9.007294,1.0009613,1.4855957,2.2391205,-0.5000305,-0.064896464,-1.0386858,4.539871
1570714776,1.9459686,7.011734,1.3636932,0.79956055,1.7533569,-0.50535583,0.87571,-2.8464575,5.321515
1570714777,1.7891388,4.46669,0.045684814,-0.38819885,0.46012878,-0.52453613,0.7993592,-5.392103,4.0061855
1570714777,1.6885834,4.4367676,-0.085998535,-0.4510498,0.39941406,-0.52134705,0.7993592,-5.392103,4.0061855
1570714777,0.73210144,5.2998657,-2.818985,-1.3352203,-0.38249207,-0.42440796,-0.109891,-4.7692823,0.84517336
1570714777,0.57289124,9.416702,-6.3504333,-1.5567932,-0.44108582,-0.43824768,-0.09775734,-1.3650475,-2.6331291
1570714777,-0.8636322,16.672333,-10.712662,-0.8494568,0.5634613,-0.33172607,-1.3306482,5.301566,-7.243186
1570714777,1.2193298,19.224548,-9.148056,0.13909912,0.7307129,-0.04837036,0.034419537,9.22376,-6.7488985
1570714777,4.2228546,10.838852,-7.6588593,1.0776062,1.4668121,-0.26994324,3.9514697,1.874177,-4.89095
1570714777,0.63275146,1.7576447,-3.8041992,0.325531,1.3741302,-0.4126892,0.14241272,-7.7735195,-1.1182299
1570714777,6.1477966,25.441101,-0.40802002,-1.5067291,-0.9161835,0.7037201,5.1013355,14.05356,3.5651019
1570714777,6.1477966,25.441101,-0.40802002,-1.5067291,-0.9161835,0.7037201,5.1013355,14.05356,3.5651019
1570714777,-0.68885803,12.993637,-0.9658661,0.24563599,-0.6892853,-0.13998413,-1.6030152,3.6407871,1.008903
1570714777,0.61479187,0.8119354,2.7810516,-0.83135986,0.7264557,-0.5149536,-0.09498209,-9.341799,5.354985
1570714777,-2.2522736,11.050751,5.5667114,-2.2460175,-2.8315277,0.210495,-2.8138833,-0.09235382,7.199824
1570714777,-1.9517975,17.577347,3.3484802,-2.301422,-2.993454,0.29997253,-2.6288242,5.0114746,5.4688096
1570714777,-3.1572723,18.224976,-0.24162292,-1.8294983,-1.4988861,0.07946777,-3.5807743,8.318475,1.2222816
1570714777,5.4427032,8.430298,1.7216187,-1.3011322,-0.7915497,-0.55755615,4.822964,-2.2807198,1.5815095
1570714777,5.4427032,8.430298,1.7216187,-1.3011322,-0.7915497,-0.55755615,4.822964,-2.2807198,1.5815095
1570714777,1.6251373,9.645355,2.184906,-1.3085938,-2.3660126,-0.021728516,1.763702,-1.3058901,1.5646696
1570714777,-0.5823059,11.308121,1.6031036,-1.1338806,-1.2038116,0.22221375,-0.21249132,0.32217026,0.86341244
1570714777,-4.006027,10.919067,0.84295654,-0.7898102,-0.142807,0.04963684,-4.7325444,0.34964275,0.077145815
1570714777,-0.8444824,10.114609,0.56044006,-0.84413147,-0.86505127,-0.220932,-1.5899243,-0.38777447,-1.139807
1570714777,-0.21360779,10.327698,1.2164459,-0.98475647,-1.176117,-0.29870605,-0.53908575,-0.23428059,-0.53040147
1570714777,0.7225342,9.356842,1.1470184,-0.92829895,-0.4634552,0.1593628,0.5568953,-1.0206347,-1.051419
1570714777,0.7225342,9.356842,1.1470184,-0.92829895,-0.4634552,0.1593628,0.5568953,-1.0206347,-1.051419
1570714777,-0.13699341,9.551971,1.2056732,-1.1455994,-0.35691833,0.28399658,-0.4458778,-0.8834009,-1.4153774
1570714777,-1.4454193,10.765839,0.7256317,-1.2084503,-0.4080658,0.28292847,-1.8418081,0.5195465,-2.1788633
1570714777,-0.78222656,11.219543,0.14982605,-1.0657043,-0.62324524,0.07839966,-1.7406428,0.7894697,-3.102014
1570714777,0.9571533,12.039551,0.3030548,-0.5863342,-0.8480072,-0.054748535,0.31842887,1.9555016,-3.187476
1570714777,-0.42788696,12.166443,0.86569214,-0.17408752,-0.6860962,0.18386841,-0.8552594,1.9372845,-2.8229272
1570714777,-1.5651245,13.12532,-0.636673,0.2594757,-0.7244415,0.24884033,-2.2916749,3.090397,-3.8426502
1570714777,-2.6556854,13.500015,-1.7942657,0.28398132,-0.59555054,0.14550781,-3.3367245,3.0854807,-5.2372074
1570714777,-2.776596,15.684723,-0.06086731,1.3801422,0.24388123,0.31062317,-3.9229436,5.4859476,-3.161039
1570714777,0.46514893,14.157227,0.0025787354,2.398529,0.0851593,0.13912964,-1.2769762,4.212797,-2.5512266
1570714778,5.3780518,10.729919,1.6126862,3.1569977,0.7818451,0.45976257,4.75806,-0.4706745,-0.16691554
1570714778,2.844986,13.787323,2.9354858,2.8587189,-0.115112305,0.49812317,2.30791,2.0832253,1.6231631
1570714778,-1.0491791,14.474457,2.5799408,2.3079834,-2.5758667,-0.11654663,-2.1537356,3.815404,2.7965748
1570714778,0.38494873,11.280594,1.1446228,2.1418,-0.051193237,-0.6118927,-0.7768545,0.6364374,2.4727573
1570714778,0.7177429,10.886749,0.43832397,2.1844177,0.124572754,-0.537323,-0.39919984,0.35162258,2.1172028
1570714778,0.3933258,10.975327,0.14144897,2.191864,1.6926422,-0.30296326,-0.35713983,0.6836004,2.1764693
1570714778,0.23890686,9.44902,0.9028015,2.1844177,1.8140869,-0.14424133,-0.81522256,-0.7624779,3.7405727
1570714778,1.6873932,8.989334,0.36291504,1.7987823,1.8737335,-0.22946167,0.5418817,-1.1751022,3.8925931
1570714778,1.6586609,7.276291,0.9075928,0.89224243,1.7991638,-0.5138855,0.2736485,-2.4724398,5.0121765
1570714778,1.6586609,7.276291,0.9075928,0.89224243,1.7991638,-0.5138855,0.2736485,-2.4724398,5.0121765
1570714778,2.4702911,5.387268,1.0967407,0.23391724,1.0108795,-0.4947052,0.9950079,-4.186905,5.351142
1570714778,2.2260895,4.404434,-0.1769867,-0.35943604,0.18423462,-0.47233582,0.9225005,-5.3243513,4.0247984
1570714778,1.4144592,5.9343414,-2.7926483,-1.2563934,-0.33029175,-0.17086792,0.35704005,-4.207917,1.2176442
1570714778,1.0038452,7.5432434,-3.6437836,-1.4460144,-0.25465393,-0.13145447,-0.052690864,-2.5302238,-0.03813219
1570714778,-0.35006714,11.016037,-6.7191315,-1.265976,0.3269806,-0.3935089,-1.3204652,0.7475319,-3.4146621
1570714778,3.35495,14.9006195,-5.415497,-0.055847168,-0.0053863525,-0.031326294,2.2386103,4.7258396,-2.7507293
1570714778,3.35495,14.9006195,-5.415497,-0.055847168,-0.0053863525,-0.031326294,2.2386103,4.7258396,-2.7507293
1570714778,3.066452,6.8249817,-6.0583344,0.36706543,1.9355164,-0.16447449,2.6531923,-2.8435802,-3.7027197
1570714778,1.7388611,6.1210785,-3.225998,-0.29553223,1.5935669,-0.4393158,0.3868748,-4.640725,-0.87372637
1570714778,5.893997,20.807114,-2.0133362,-0.9389496,0.22151184,-0.04197693,4.659912,9.334174,0.7410836
1570714778,1.8741455,17.671906,-2.4490814,1.028595,0.62631226,0.67707825,0.9163519,8.193703,-0.07549763
1570714778,1.3091125,-0.68084717,2.402771,-0.9655762,0.29075623,-0.55223083,-0.19146252,-11.060679,5.2901297
1570714778,0.5214081,1.3099365,1.4414978,-1.6302948,0.09687805,-0.63105774,-0.731719,-9.320265,4.14316
1570714778,-2.9166565,20.863388,2.1310272,-2.1980896,-3.3705597,0.5300751,-4.0076437,9.884582,3.9325094
1570714778,-3.7187195,19.996674,-1.0807953,-1.4651794,-1.434967,0.2584381,-4.8471723,10.727727,0.7169043
1570714778,-1.1162262,9.908707,0.73760986,-0.2273407,1.0779877,-0.45742798,-2.7188473,-0.39871025,1.3547895
1570714778,1.3869171,8.099899,0.24320984,-0.95066833,0.8148651,-0.57780457,0.3607576,-2.5552263,0.9690956
1570714778,2.5600739,10.6940155,1.0488586,-1.6643829,-1.5031433,-0.19111633,1.7790089,-0.022342682,1.0170735
1570714778,1.0505371,10.998077,1.1817322,-1.5344238,-2.0336456,-0.16021729,0.95673996,0.24406242,1.2960358
1570714778,-1.8356781,10.802948,1.8233795,-1.21698,-0.0362854,-0.012145996,-2.482175,0.11712456,1.22163
1570714778,-1.4897156,10.591064,1.0296936,-0.9197693,-0.051193237,-0.021728516,-1.9850078,0.0767231,-0.24664742
1570714778,-0.3428955,10.430649,1.0799713,-1.060379,-1.0088654,-0.38711548,-1.0583634,-0.2936039,-0.152403
1570714778,1.4898682,10.43663,0.91477966,-1.187149,-0.54441833,-0.23052979,0.85158616,-0.14364433,-0.6424526
1570714778,1.488678,10.0260315,0.80345154,-1.0784912,-0.03414917,0.14445496,0.9195174,-0.45594025,-1.0816057
1570714779,0.013839722,9.692032,1.1278534,-1.1455994,-0.19180298,0.386261,-0.42223835,-0.7983866,-1.1313322
1570714779,-1.8416595,11.08786,1.0608215,-1.2766266,0.16186523,0.3873291,-2.5414405,0.75158215,-1.5446763
1570714779,0.29156494,12.07666,0.78907776,-1.0049896,-0.4080658,0.06135559,-0.9990967,1.7596159,-2.3120244
1570714779,0.6674652,11.546341,-0.18894958,-0.41589355,-0.75001526,0.23925781,-0.14681506,1.4583778,-3.8798182
1570714779,0.6674652,11.546341,-0.18894958,-0.41589355,-0.75001526,0.23925781,-0.14681506,1.4583778,-3.8798182
1570714779,-2.2247314,13.966888,-0.6043396,0.22538757,-0.37503052,0.08265686,-3.464467,3.8736696,-3.666182
1570714779,-2.349228,13.934555,-0.84376526,0.21792603,-0.3377533,0.04324341,-3.5900726,3.8613157,-4.113882
1570714779,1.9555359,13.069061,-1.2723236,1.6400604,0.57411194,0.27867126,0.09569085,2.738536,-4.1274905
1570714779,1.9555359,13.069061,-1.2723236,1.6400604,0.57411194,0.27867126,0.09569085,2.738536,-4.1274905
1570714779,4.3461456,10.995682,1.3720703,3.0142517,0.13096619,0.23606873,3.2716384,-0.09396744,-0.08129799
1570714779,4.031311,11.300934,1.561203,2.9641876,0.089416504,0.19984436,2.623571,0.55451393,0.41387546
1570714779,-0.23873901,13.859146,2.1082916,2.0182343,-1.5148621,-0.37753296,-1.7712198,3.267808,2.0806327
1570714779,-0.37521362,13.739441,2.69487,2.0182343,-1.5148621,-0.37753296,-1.7712198,3.267808,2.0806327
1570714779,0.86857605,10.960968,0.124694824,2.188675,1.1972961,-0.7226715,-0.22705066,0.36094856,1.6712974
1570714779,0.86857605,10.960968,0.124694824,2.188675,1.1972961,-0.7226715,-0.22705066,0.36094856,1.6712974
1570714779,0.81469727,10.960968,1.6509857,2.350586,1.6702728,-0.65023804,-0.22303605,0.33816242,4.018921
1570714779,1.7197113,10.828079,0.50416565,2.0842743,1.977066,-0.619339,0.70023876,0.55197906,3.5371616
1570714779,1.667038,9.508881,0.34735107,2.0342102,1.9546967,-0.52560425,0.6458441,-0.5978298,3.8796208
1570714779,2.3003082,8.7164,1.1003265,1.9553833,2.1752014,-0.34877014,1.2721394,-1.2091064,5.04827
1570714779,2.0022278,5.866104,-0.3002777,0.8016968,1.2164764,-0.48512268,0.7147881,-3.6992598,4.270991
1570714779,1.7759705,5.0843964,-0.25120544,0.34576416,0.87664795,-0.5469055,0.49833226,-4.469492,4.3208947
1570714779,1.2983398,4.8844757,-0.38526917,-0.30085754,0.29182434,-0.5650177,0.19017863,-4.7452755,4.187743
1570714779,0.35740662,5.7451935,-1.720047,-0.96025085,-0.101257324,-0.55436707,-0.5840901,-3.9592123,2.824562
1570714779,-0.6768799,10.115814,-7.566681,-1.681427,0.14587402,-0.97621155,-1.0810716,-0.5101776,-3.6145613
1570714779,-0.7630768,10.580292,-7.867157,-1.681427,0.14587402,-0.97621155,-1.0810716,-0.5101776,-3.6145613
1570714779,4.1438446,16.963226,-7.819275,-0.44786072,-0.060775757,0.116744995,3.7433333,6.6661406,-5.208834
1570714779,4.1438446,16.963226,-7.819275,-0.44786072,-0.060775757,0.116744995,3.7433333,6.6661406,-5.208834
1570714779,1.0960236,6.8285675,-5.7614594,0.5556183,2.8133087,-0.35302734,0.93337774,-3.161333,-3.0928106
1570714779,-0.03164673,3.9112396,-3.910736,0.29995728,2.7174225,-0.4308014,-0.27953774,-5.6934853,-1.5280995
1570714779,4.7986603,12.617752,1.501358,-1.1200409,0.7392273,-0.281662,3.635183,-0.7785206,3.3102314
1570714779,-1.9805298,7.1170654,2.8193665,0.7324524,-0.23335266,0.40756226,-2.6752496,-2.61172,4.7271795
1570714779,-1.9805298,7.1170654,2.8193665,0.7324524,-0.23335266,0.40756226,-2.6752496,-2.61172,4.7271795
1570714780,-2.7873688,7.2738953,6.821274,-2.4686584,-2.0347137,-0.103759766,-3.0551684,-4.7537317,7.8649797
1570714780,-2.7873688,7.2738953,6.821274,-2.4686584,-2.0347137,-0.103759766,-3.0551684,-4.7537317,7.8649797
1570714780,-0.1441803,11.852798,-0.64505005,-0.722702,1.1397705,-0.22306824,-0.8715054,1.2541256,-0.49272248
1570714780,-0.1441803,11.852798,-0.64505005,-0.722702,1.1397705,-0.22306824,-0.8715054,1.2541256,-0.49272248
1570714780,2.2500305,9.217987,1.6761322,-1.3277588,-2.1455078,-0.20709229,2.0365012,-1.6086559,1.1259409
1570714780,2.2500305,9.217987,1.6761322,-1.3277588,-2.1455078,-0.20709229,2.0365012,-1.6086559,1.1259409
1570714780,-2.8771515,11.310516,1.7359924,-0.8782196,0.018051147,0.12313843,-3.1807966,0.73751545,0.73886395
1570714780,-2.8424377,11.212357,1.5827637,-0.85691833,0.015914917,0.118881226,-3.1807966,0.73751545,0.73886395
1570714780,-1.2371216,10.085876,1.2224274,-0.9421387,-1.1984863,-0.18684387,-1.6942221,-0.6648636,-0.17151392
1570714780,0.528595,10.124191,0.1618042,-0.98262024,-0.73934937,-0.11122131,0.12207618,-0.3745346,-1.7622216
1570714780,0.6004181,9.681259,1.2715149,-0.9762268,-0.08102417,-0.03451538,0.2465544,-0.7760229,-1.0370536
1570714780,-0.31655884,9.5160675,1.8975983,-1.0444031,-0.3622589,0.008102417,-0.7331286,-0.8682747,-0.51123667
1570714780,-0.0687561,10.540787,0.8704834,-1.2041931,-0.36863708,0.14978027,-0.59045327,0.14755917,-1.9077952
1570714780,-0.1884613,10.863998,0.24798584,-1.1733093,-0.16410828,0.19451904,-0.7313018,0.6662674,-2.7127829
1570714780,-0.0974884,11.075882,-0.32182312,-1.0625153,-0.23228455,0.18386841,-0.6928136,0.92340755,-3.658692
1570714780,0.25445557,11.454163,-0.069244385,-0.5682373,-0.72125244,0.20730591,-0.43638146,1.4036007,-3.7572742
1570714780,-2.1098175,12.610565,1.576767,-0.27209473,-0.3462677,0.27120972,-2.492362,2.3676462,-2.3448253
1570714780,0.8350525,11.934204,-2.961441,0.22431946,-1.4147339,-0.21348572,-0.2202034,1.9093943,-5.8626995
1570714780,0.7344971,12.3268585,-2.9997406,0.1806488,-1.3124695,-0.19430542,-0.19819081,1.9511871,-6.5730724
1570714780,-1.985321,15.225037,-0.1302948,1.3577728,-0.021362305,0.45336914,-3.0173936,5.2049656,-3.2179434
1570714780,-0.35246277,13.947723,-0.24641418,2.36763,0.21299744,0.32661438,-1.9541,3.9568424,-3.1409469
1570714780,4.81662,10.207993,1.1230774,3.2358246,0.5645294,0.06349182,3.5559192,-0.2875929,-0.66504407
1570714780,2.3446045,13.5993805,3.5938873,2.9343567,0.14482117,0.048568726,1.1562686,2.7401686,2.705268
1570714780,0.74287415,14.318832,2.2411652,2.4485931,-2.2051544,-0.2582245,-0.10521114,3.8036432,2.7142665
1570714780,0.91526794,10.721542,-0.59716797,2.01503,0.7083435,-0.5660858,0.087109566,-0.042280197,0.85161173
1570714780,0.91526794,10.721542,-0.59716797,2.01503,0.7083435,-0.5660858,0.087109566,-0.042280197,0.85161173
1570714780,1.2277069,11.2434845,1.367279,2.0256805,1.5200653,-0.51174927,0.60380644,0.65697956,3.1214848
1570714780,1.0277863,9.864426,1.8281708,2.0906677,1.6841278,-0.35195923,0.32187074,-0.5773468,4.4150887
1570714780,1.1403198,9.322128,0.6669769,1.553772,2.3541718,-0.5415802,0.29554093,-0.73985577,4.227675
1570714780,1.1403198,9.322128,0.6669769,1.553772,2.3541718,-0.5415802,0.29554093,-0.73985577,4.227675
1570714780,1.8669586,7.66774,1.7671051,1.2405853,2.2412567,-0.41908264,0.75405437,-2.1031075,5.6032424
1570714780,2.3218536,5.1634064,0.013366699,-0.09844971,0.34295654,-0.27526855,1.3960891,-4.49817,4.2772818
1570714780,2.3218536,5.1634064,0.013366699,-0.09844971,0.34295654,-0.27526855,1.3960891,-4.49817,4.2772818
1570714780,1.1367188,4.6785736,-1.2459869,-0.771698,-0.20140076,-0.27845764,0.25003564,-5.125292,2.9840226
1570714781,-1.5447845,8.699646,-7.3799286,-1.9296417,0.14694214,-0.7972412,-1.9629282,-2.0934992,-3.6796515
1570714781,-1.5447845,8.699646,-7.3799286,-1.9296417,0.14694214,-0.7972412,-1.9629282,-2.0934992,-3.6796515
1570714781,6.7690887,16.252151,-11.462051,0.94444275,0.52723694,0.35430908,6.121548,6.547097,-8.938691
1570714781,7.014496,14.864716,-11.156784,1.0009003,0.8233948,0.3404541,6.121548,6.547097,-8.938691
1570714781,4.5819855,5.5392914,-7.1417084,0.74842834,2.6172943,-0.08351135,4.225469,-4.3993444,-4.6045694
1570714781,2.406845,1.9707336,0.36291504,-0.19859314,1.0705261,-0.361557,1.4093314,-8.592632,2.9804204
1570714781,7.2826385,21.230896,-0.80545044,-1.4172516,-0.58595276,0.77827454,6.4218616,10.33682,1.7546144
1570714781,-0.71398926,20.906479,-4.826523,0.899704,-0.36863708,0.85391235,-1.3148081,10.820594,-2.058801
1570714781,-1.8943329,1.2153625,4.4605865,-2.140564,0.16505432,-1.2116394,-2.7023792,-10.059296,6.5876913
1570714781,-1.8943329,1.2153625,4.4605865,-2.140564,0.16505432,-1.2116394,-2.7023792,-10.059296,6.5876913
1570714781,-0.5643616,17.348694,-1.3597107,-1.8699799,-1.607544,0.66856384,-1.4628482,8.3745985,0.042381704
1570714781,0.67225647,11.233902,-1.906784,-0.94000244,1.1333771,-0.21348572,-0.06556952,0.62941647,-1.6290882
1570714781,2.185379,9.161728,1.9251251,-0.9890137,1.0044861,-0.5426483,1.4623039,-1.4562874,1.9749421
1570714781,0.7668152,10.410294,1.4031982,-1.4332275,-2.6898499,-0.29763794,0.7344104,-0.5099907,1.0442213
1570714781,0.7668152,10.410294,1.4031982,-1.4332275,-2.6898499,-0.29763794,0.7344104,-0.5099907,1.0442213
1570714781,-0.6433716,11.154892,0.59754944,-0.9655762,-1.1452179,0.053894043,-0.87000275,0.50771046,-0.36795187
1570714781,-3.7546234,10.516846,1.7718964,-0.70884705,-0.20884705,0.097579956,-4.054924,-0.08026314,0.5416051
1570714781,-1.6561127,10.592255,-0.51216125,-0.7493286,-0.62324524,-0.12399292,-2.125407,-0.069381714,-1.7983003
1570714781,0.85780334,10.120605,0.68733215,-0.88674927,-0.30259705,0.0059661865,0.5213866,-0.39956284,-1.1448052
1570714781,-0.22317505,9.152145,1.1242676,-1.0465393,-0.3973999,0.22860718,-0.51892614,-1.2661057,-1.3458235
1570714781,-0.22317505,9.152145,1.1242676,-1.0465393,-0.3973999,0.22860718,-0.51892614,-1.2661057,-1.3458235
1570714781,-1.1736755,10.69162,1.5025482,-1.1860809,0.34614563,0.24777222,-1.6210092,0.4392767,-0.9098892
1570714781,-0.9474335,10.556335,0.2743225,-1.1796875,0.03616333,0.14871216,-1.5481232,0.29082108,-2.7549245
1570714781,-0.16452026,12.029968,0.12947083,-0.6502533,-0.714859,0.1327362,-0.71708405,1.8838081,-3.4289906
1570714781,-0.16452026,12.029968,0.12947083,-0.6502533,-0.714859,0.1327362,-0.71708405,1.8838081,-3.4289906
1570714781,-0.059173584,11.961746,-1.9702301,0.19450378,-1.1175232,-0.08883667,-0.85411906,1.7648239,-5.290064
1570714781,-0.059173584,11.961746,-1.9702301,0.19450378,-1.1175232,-0.08883667,-0.85411906,1.7648239,-5.290064
1570714781,-0.9606018,13.8567505,-1.1214905,1.2086334,0.4345703,0.22221375,-2.0585406,3.6185646,-4.1054826
1570714781,-0.6194153,13.783722,-1.1921234,1.2608337,0.42178345,0.19877625,-2.0585406,3.6185646,-4.1054826
1570714781,4.860901,8.7690735,1.1266632,3.3029327,0.25985718,0.6930542,3.8595536,-1.9104776,-0.53568554
1570714781,4.683731,8.910324,1.3696747,3.2656555,0.3035431,0.68240356,3.5191498,-1.751378,-0.15617037
1570714781,0.031799316,15.3315735,2.4458618,2.5423431,-1.4498901,-0.08883667,-0.8958374,4.68227,2.5562391
1570714781,-0.4733734,14.9796295,2.2028503,2.464569,-1.718338,-0.15596008,-1.5182334,4.563612,2.485275
1570714782,0.4519806,11.493668,0.06842041,1.9063721,0.6188507,-0.57566833,-0.65374184,0.88292694,1.7700518
1570714782,0.4902954,11.409882,-0.27275085,1.9223633,0.7136688,-0.5735321,-0.65374184,0.88292694,1.7700518
1570714782,0.16108704,11.354813,-0.4846344,1.8424683,1.0215302,-0.6885834,-0.6068484,0.73165226,1.3717406
1570714782,1.9890594,9.876389,0.6166992,1.8190308,2.0463104,-0.6161499,1.1168582,-0.49578762,3.607305
1570714782,2.2691803,9.508881,1.3876343,1.7423248,2.3115692,-0.6108246,1.553064,-0.70583916,4.5330453
1570714782,2.9204102,6.9422913,1.600708,1.2320709,1.930191,-0.24969482,1.9003258,-2.7915182,5.659837
1570714782,2.947937,6.8249817,1.5276947,1.1777344,1.8726654,-0.23797607,1.9003258,-2.7915182,5.659837
1570714782,2.7791443,5.6183014,0.67774963,0.5897064,1.2974243,-0.1932373,1.829181,-4.0687046,4.8768005
1570714782,1.9770966,4.7372284,0.03968811,-0.20817566,0.544281,-0.1932373,0.9856813,-4.9734993,4.26385
1570714782,0.48908997,4.8689117,-1.9187622,-1.0167084,-0.27809143,-0.21453857,-0.4873358,-5.048149,2.3185024
1570714782,-0.8384857,8.372833,-6.2570496,-1.6739807,-0.2685089,-0.62786865,-1.4414599,-2.1817646,-2.572395
1570714782,-2.3779602,11.85759,-7.5690765,-1.5962067,-0.101257324,-0.92507935,-2.841239,1.0251799,-4.279988
1570714782,7.0288544,15.9205475,-11.513519,0.9646759,0.6742554,0.3905182,6.1699333,7.2026005,-8.751632
1570714782,7.0288544,15.9205475,-11.513519,0.9646759,0.6742554,0.3905182,6.6133065,4.967457,-8.652638
1570714782,3.971466,8.470993,1.9538574,-0.5032501,1.4934387,-0.37113953,2.9147105,-2.4656086,4.55673
1570714782,3.971466,8.470993,1.9538574,-0.5032501,1.4934387,-0.37113953,2.9147105,-2.4656086,4.55673
1570714782,5.224823,21.159073,-1.293869,-1.0731659,0.0074005127,0.50024414,4.709328,9.770591,1.5781999
1570714782,-0.24353027,2.3681793,5.7917633,-0.059036255,-0.5976715,0.069885254,-1.4437165,-7.5851545,8.437429
1570714782,2.1746063,2.8996887,3.486145,-1.8028717,-0.046936035,-0.63319397,1.3952699,-8.372043,5.6761904
1570714782,1.607193,4.166214,3.4526367,-2.0596008,-0.34094238,-0.57673645,1.1852736,-7.2167006,5.714757
1570714782,-1.0312195,15.480026,3.4873505,-2.4111328,-3.3694916,0.44699097,-1.6019225,4.4623165,4.825759
1570714782,-1.5435791,10.355225,0.4586792,-0.6097717,1.3411102,-0.3413086,-2.962131,-0.016264915,1.084806
1570714782,-1.5435791,10.355225,0.4586792,-0.6097717,1.3411102,-0.3413086,-2.962131,-0.016264915,1.084806
1570714782,2.4595184,9.146164,0.07321167,-1.2979431,0.41752625,-0.39457703,1.1044803,-1.5526752,-0.36040068
1570714782,0.018630981,10.690414,1.6102905,-1.1583862,-1.4797211,-0.41481018,-0.05126974,-0.091103554,0.6050932
1570714782,0.018630981,10.690414,1.6102905,-1.1583862,-1.4797211,-0.41481018,-0.05126974,-0.091103554,0.6050932
1570714782,-1.1018524,10.344452,1.4917755,-0.86650085,-0.115112305,-0.13464355,-1.47585,-0.3060274,0.58020484
1570714782,-1.332901,10.173264,0.47543335,-0.88887024,-0.64668274,-0.12719727,-1.5348926,-0.48758698,-0.49061382
1570714782,-1.269455,10.638947,1.4391022,-0.90911865,-1.2176666,-0.31681824,-1.5933775,0.08152199,-0.108668804
1570714782,0.61239624,9.621414,0.7447815,-1.1104584,-0.13641357,0.08479309,0.3862198,-0.9187832,-1.3977292
1570714782,0.61239624,9.621414,0.7447815,-1.1104584,-0.13641357,0.08479309,0.3862198,-0.9187832,-1.3977292
1570714782,-1.025238,11.548737,1.0979309,-1.2904816,-0.50180054,0.27867126,-1.3887393,1.2569599,-1.7823842
1570714782,-1.2957916,11.5403595,1.0296936,-1.263855,-0.5156555,0.29039,-1.6508386,1.2835388,-1.8886073
1570714783,-0.21000671,11.645706,0.3138275,-0.4659729,-0.6999359,0.10076904,-0.7473472,1.5025177,-3.2620203
1570714783,-0.21000671,11.645706,0.3138275,-0.4659729,-0.6999359,0.10076904,-0.7473472,1.5025177,-3.2620203
1570714783,0.2736206,12.991241,-0.45950317,0.1763916,-1.0152588,-0.07925415,-0.6201564,3.0509014,-3.3402915
1570714783,0.2736206,12.991241,-0.45950317,0.1763916,-1.0152588,-0.07925415,-0.6201564,3.0509014,-3.3402915
1570714783,-1.8572235,13.946533,-0.93473816,1.5740204,0.16186523,0.23606873,-2.8859265,3.696804,-3.7390742
1570714783,-1.8572235,13.946533,-0.93473816,1.5740204,0.16186523,0.23606873,-2.8859265,3.696804,-3.7390742
1570714783,4.261154,10.187637,0.17736816,3.2784424,0.0617218,0.4139557,2.9530215,0.25226116,-2.0022457
1570714783,2.5097961,11.646896,1.947876,3.2954865,0.030838013,0.46403503,1.462438,0.827507,1.3023243
1570714783,2.453537,12.530365,2.4554443,3.1857605,-0.25465393,0.44592285,0.75621116,1.4378815,1.7540665
1570714783,-1.7674408,15.43692,2.940277,2.4698944,-2.3638763,-0.22306824,-2.641192,4.890683,3.6578531
1570714783,-2.1373444,12.3819275,1.0763855,2.1247559,-0.4996643,-0.59910583,-3.621194,2.1240244,2.762621
1570714783,0.21376038,11.631332,0.046875,1.9404602,0.75520325,-0.7557068,-0.8046109,0.9515104,2.156732
1570714783,0.07130432,11.794144,0.086380005,2.0682983,1.8396454,-0.5362549,-0.6182288,1.31217,2.538377
1570714783,1.5664825,8.997711,0.1330719,1.870163,1.754425,-0.60549927,0.8330577,-1.211833,3.452003
1570714783,1.8298492,8.050812,0.730423,1.6070404,1.8748016,-0.51174927,1.0877097,-2.0505123,4.3005714
1570714783,1.8430176,6.632248,1.3110199,0.6131439,1.6116791,-0.3178711,0.73994386,-3.0420122,5.5593023
1570714783,1.8430176,6.632248,1.3110199,0.6131439,1.6116791,-0.3178711,0.73994386,-3.0420122,5.5593023
1570714783,1.8753357,5.359726,1.4522705,-0.115493774,1.1227264,-0.39990234,0.7889652,-4.2046967,5.7049303
1570714783,1.1391144,3.9339752,-0.090789795,-1.0720978,0.16079712,-0.5085602,0.15403509,-5.834341,4.1448526
1570714783,1.5389557,5.1681976,-2.605896,-1.9456177,-0.60087585,-0.55329895,0.73786986,-4.9164352,1.0206261
1570714783,-1.7818146,14.315247,-7.5020447,-1.931778,-0.97691345,-0.6949768,-1.5675602,1.5091448,-3.311817
1570714783,-1.1090393,22.383698,-11.519516,-0.36689758,0.8872986,-0.027053833,-1.7057687,12.306163,-9.9598055
1570714783,2.5110016,17.730576,-8.1736145,0.4118042,0.7924957,-0.054748535,1.7320497,7.798065,-5.8131385
1570714783,-0.5499878,2.3669739,-3.7742615,0.12205505,1.7001038,-0.41481018,-0.67275345,-7.866967,-0.96085715
1570714783,-0.5499878,2.3669739,-3.7742615,0.12205505,1.7001038,-0.41481018,-0.67275345,-7.866967,-0.96085715
1570714783,2.6378937,10.530014,5.7690125,-0.9112549,0.7924957,-0.17300415,1.9688052,-0.60000134,8.108503
1570714783,2.9216003,23.52214,-0.82580566,-1.0667725,-1.0323029,0.5833435,2.5505583,13.079685,1.2572556
1570714783,1.1307373,14.894638,-2.645401,0.64616394,-0.6445465,0.23606873,0.3609169,5.303241,-0.5025158
1570714783,0.27001953,1.1327667,3.932663,-0.8228302,1.4508209,-0.7120209,-0.3198889,-9.173547,6.0456696
1570714783,-2.704773,7.0213013,7.8328247,-2.126709,-1.7971649,0.074142456,-3.1355488,-5.075205,8.970322
1570714783,-1.8105316,19.736908,1.6976776,-1.9765167,-2.6568298,0.977478,-2.2811117,7.129298,4.677714
1570714783,-0.42907715,12.4729,-1.4231567,-0.9197693,0.9139404,-0.39990234,-1.079646,2.0215626,-1.2775561
1570714783,1.9028625,8.99054,1.1733551,-0.76104736,0.22790527,-0.58206177,1.2363358,-1.5972414,1.4131382
1570714783,4.6059265,9.042007,2.1837006,-1.441742,-2.117813,-0.6683502,4.5102024,-1.8203878,2.0332842
1570714783,0.3933258,10.155319,1.8150024,-1.2148438,-2.007019,-0.062210083,0.47076944,-0.61929417,1.4056308
1570714784,-2.1062164,11.263824,1.413971,-0.9772949,-0.31324768,0.16894531,-2.309198,0.66744614,0.32509983
1570714784,-0.32014465,10.194824,0.9016113,-1.0539856,-0.9172516,-0.3381195,-0.9889885,-0.30392647,-0.69560313
1570714784,-0.32014465,10.194824,0.9016113,-1.0539856,-0.9172516,-0.3381195,-0.9889885,-0.30392647,-0.69560313
1570714784,1.4060669,9.538803,1.2140503,-1.1029968,-0.46131897,-0.07499695,1.1311866,-0.9453201,-0.79888296
1570714784,-0.61343384,9.772247,1.070404,-1.2585297,-0.5188446,0.20198059,-0.8272232,-0.8111,-1.5740256
1570714784,-0.8612366,9.997299,1.0919495,-1.263855,-0.5188446,0.20091248,-1.1579382,-0.4497633,-1.6063104
1570714784,0.25924683,11.609787,-0.48942566,-0.9208374,-0.5103302,0.036849976,-0.17582172,1.4402885,-3.7767203
1570714784,0.5022583,11.609787,-0.48942566,-0.9208374,-0.5103302,0.036849976,-0.17582172,1.4402885,-3.7767203
1570714784,-0.85046387,12.512405,0.9291382,-0.38394165,-0.70739746,0.15083313,-1.4110768,2.3816643,-2.7148712
1570714784,-1.480133,14.260178,0.71725464,0.09436035,-0.7841034,0.09225464,-2.3870769,4.3112516,-2.4652042
1570714784,-1.8991241,14.660004,-0.9455261,0.40968323,-0.7510681,0.30104065,-2.733996,4.2956066,-4.3825912
1570714784,-1.8991241,14.660004,-0.9455261,0.40968323,-0.7510681,0.30104065,-2.733996,4.2956066,-4.3825912
1570714784,-2.0284119,14.541489,-1.0113525,1.3247375,0.33763123,0.5343323,-3.1900616,4.404601,-4.000537
1570714784,4.414383,10.500076,3.0587769,3.1751099,0.5879669,0.16894531,3.6487112,-0.41989613,1.1685916
1570714784,4.414383,10.500076,3.0587769,3.1751099,0.5879669,0.16894531,3.6487112,-0.41989613,1.1685916
1570714784,-0.032836914,13.805267,1.7814789,2.0533905,-2.3372498,-0.27101135,-1.2835233,3.2196684,2.3159723
1570714784,0.010253906,13.650848,1.571991,1.9798737,-2.3148804,-0.32746887,-1.2835233,3.2196684,2.3159723
1570714784,-0.85765076,12.120956,2.1011047,1.7572327,-0.67970276,-0.75250244,-1.9566528,1.4487801,3.1137834
1570714784,0.9643402,11.120178,2.20047,2.0874786,1.6968994,-0.52560425,0.62113833,0.63725185,4.315244
1570714784,0.9643402,11.120178,2.20047,2.0874786,1.6968994,-0.52560425,0.62113833,0.63725185,4.315244
1570714784,1.1750336,9.676468,1.0871582,1.9798737,1.6351166,-0.43399048,0.51967424,-0.7144613,3.8294752
1570714784,1.2492523,8.71759,0.6131134,1.6389923,1.6468353,-0.44996643,0.54821354,-1.5282507,3.908462
1570714784,1.3378448,7.501343,0.9614563,0.9561615,1.6074219,-0.5554352,0.51523983,-2.2657614,4.9665027
1570714784,1.4036713,6.518524,1.0787811,0.66641235,1.3730621,-0.523468,0.66653764,-3.3175697,5.057617
1570714784,1.0325775,3.948349,-0.40682983,-0.63960266,0.2705078,-0.41801453,0.49409324,-5.9150915,3.7248902
1570714784,1.0325775,3.948349,-0.40682983,-0.63960266,0.2705078,-0.41801453,0.49409324,-5.9150915,3.7248902
1570714784,0.7045746,4.714493,-2.2707062,-1.378891,-0.3143158,-0.34344482,0.1517443,-5.343855,1.382148
1570714784,-0.5883026,10.419876,-7.68161,-1.5248413,0.32165527,-0.70137024,-0.8754033,-0.038479805,-4.447757
1570714784,-3.3392334,18.43805,-9.200729,-0.7993927,1.0417633,-0.5383911,-3.5996847,8.180615,-6.8929853
1570714784,-0.28782654,18.307571,-5.950592,-0.582077,0.59968567,-0.094177246,-1.4757717,7.962674,-4.019213
1570714784,2.4595184,6.2048798,-5.74469,0.7313843,2.568283,-0.19856262,2.3113618,-3.8036928,-3.0062954
1570714784,5.6378174,13.278549,-2.016922,-0.8451996,0.28862,-0.1335907,4.0134478,-1.024416,1.2351394
1570714784,5.6378174,13.278549,-2.016922,-0.8451996,0.28862,-0.1335907,4.0134478,-1.024416,1.2351394
1570714785,-2.6305542,6.647812,7.652054,0.026184082,-0.5177765,0.31489563,-3.1227224,-1.6749039,8.776583
1570714785,-2.4270477,5.494995,7.845993,0.026184082,-0.5177765,0.31489563,-3.1227224,-1.6749039,8.776583
1570714785,-1.550766,9.091095,5.616989,-2.430313,-2.1519012,0.15296936,-2.07003,-2.768488,6.793356
1570714785,-1.4813385,10.028427,6.0886383,-2.4473572,-2.4608154,0.23925781,-1.9464728,-0.9554424,7.629074
1570714785,-1.1940308,13.729858,0.36531067,-1.1977997,0.15866089,-0.07713318,-1.7251738,3.6110277,1.1667566
1570714785,-1.174881,12.823654,0.22285461,-1.0774231,0.39302063,-0.16873169,-1.7251738,3.6110277,1.1667566
1570714785,0.7859802,8.772659,-0.22964478,-0.95066833,0.6508179,-0.4403839,0.15233934,-1.8127813,0.21480948
1570714785,0.978714,9.708801,1.971817,-1.5173798,-2.6014404,0.010223389,0.87500113,-1.0981817,1.5061386
1570714785,0.9571533,9.924271,1.8114014,-1.4843597,-2.4832,0.05709839,0.87500113,-1.0981817,1.5061386
1570714785,-2.6317444,10.395935,0.5927582,-0.82496643,-0.13748169,-0.008956909,-3.1166282,-0.29891682,-0.6870854
1570714785,-2.6317444,10.395935,0.5927582,-0.82496643,-0.13748169,-0.008956909,-3.1166282,-0.29891682,-0.6870854
1570714785,-0.22317505,10.467758,1.1075134,-0.8920746,-0.7915497,-0.39457703,-0.6697022,-0.00975132,-0.539381
1570714785,0.6614685,10.425858,1.0213165,-0.9496002,-0.9907532,-0.3604889,0.11219333,-0.1643753,-0.5806266
1570714785,1.5377502,9.885971,0.3605194,-0.85372925,-0.33135986,-0.028121948,1.3696917,-0.5891123,-1.7351972
1570714785,0.78956604,9.957794,1.3241882,-0.8260193,-0.023498535,0.19877625,0.69075,-0.5678234,-0.92848253
1570714785,-1.0396118,10.629364,1.0141296,-1.1157837,-0.15666199,0.21368408,-1.2709073,-0.013393402,-1.5739906
1570714785,-1.0671387,11.128555,0.8226013,-1.0667725,-0.14067078,0.09970093,-1.5384729,0.84151363,-2.2576542
1570714785,1.3462219,11.85759,-0.28112793,-0.8473358,-0.52737427,-0.0014953613,0.79476035,1.756465,-3.5643506
1570714785,-1.4969025,12.981674,1.4989624,-0.19432068,-0.6029968,0.32022095,-2.3125966,3.046772,-1.9420447
1570714785,-1.6992035,13.210312,1.5456543,-0.07926941,-0.60087585,0.3170166,-2.3125966,3.046772,-1.9420447
1570714785,-0.34169006,11.427826,-1.0963593,0.09222412,-1.1739807,0.04324341,-1.271595,1.6199226,-4.021386
1570714785,-2.7382965,14.931747,-0.08480835,0.4554901,-0.28981018,0.3330078,-3.1727376,4.247344,-3.490814
1570714785,-2.9310303,14.837173,-0.54689026,0.90289307,0.24176025,0.42034912,-3.9685783,4.6944017,-3.6449034
