time,ax,ay,az,gx,gy,gz,la_x,la_y,la_z,fox,foy,foz
1570714884,12.381607,1.2665253,3.8756104,1.7336884,0.8315735,0.33937073,5.6527615,-0.7629862,-2.512928
1570714884,10.863098,2.9598389,6.3027344,1.1723022,0.90293884,-0.23054504,4.1970234,0.42698693,-1.0869498
1570714885,10.462067,3.89357,6.974304,0.5874634,1.0680542,-0.75572205,4.177522,1.3622751,-0.5295067
1570714885,9.029129,1.7124481,6.91745,0.52568054,0.67604065,-1.2659912,2.3557034,-0.029527664,-0.44173956
1570714885,7.0114136,2.3259735,10.226837,1.7837677,-1.6824493,0.040023804,-1.2550735,-2.5448532,0.536314
1570714885,3.6068573,2.1960754,2.9233246,1.7219696,-1.4267883,1.7721405,-2.6081657,-2.1826165,-4.355268
1570714885,5.344452,3.237564,4.870407,1.9776459,-2.697647,2.4539185,-3.6928658,-1.3848839,-1.914382
1570714885,10.211273,6.1572876,5.202606,2.7041473,-3.221756,2.0917206,2.577129,2.6947823,-1.3481421
1570714885,8.215698,4.0647583,3.4572296,2.792572,-1.2531586,1.2427063,0.012831688,0.62149906,-0.69273424
1570714885,6.747452,5.4797363,3.277069,1.9254456,-1.0038757,-0.1559906,-1.3330669,1.956315,-1.4227521
1570714885,6.831848,6.9988556,14.824295,3.559555,-0.7993469,-2.0873108,-2.466484,2.4775925,8.287919
1570714885,3.6655273,5.692215,6.3153076,5.0178986,-0.0046691895,-2.6060944,-3.5035706,1.6980882,3.5603669
1570714885,2.9101562,3.02388,-11.059418,4.339325,-0.77378845,-1.7858429,-4.438906,-2.1886845,0.396173
1570714885,5.0421906,5.4342346,-1.5670013,-0.53105164,-2.8489227,-1.4140625,-2.050343,-1.0373764,-4.2660513
1570714885,7.7272797,8.804077,2.8796234,-0.6333313,-3.221756,-1.7325745,0.6071048,2.2276154,4.071913
1570714885,9.697113,9.2404175,0.28790283,-1.1968536,-2.6731567,-2.4154053,2.9608006,2.1569314,0.09031236
1570714885,10.035294,9.429565,1.5011597,-2.095932,-2.2086945,-2.139511,3.6907868,1.4000654,0.93203974
1570714885,10.936111,10.762543,1.4682465,-2.382492,-0.65127563,-1.8902283,4.5051785,2.4110832,1.1963619
1570714885,10.580582,8.419205,-0.7517853,-3.0099335,0.9050751,-2.2662659,5.3608747,0.24474525,-1.5426685
1570714885,8.602371,6.7253113,0.23103333,-3.0131226,1.0776367,-2.5517578,4.2527943,-1.2540493,-2.9516764
1570714885,7.692566,3.1812897,2.7072449,-0.8218689,1.9277191,-1.4034119,2.5057173,-6.102931,1.4567394
1570714885,6.4092712,4.636963,-0.03831482,-1.3555756,0.16471863,-0.47450256,3.0935335,-3.7026749,-7.191078
1570714885,6.217148,4.759079,0.5207367,-1.3502502,0.24887085,-0.37542725,2.4623594,-3.9365005,-4.2567053
1570714885,5.0254364,6.1602783,0.23582458,0.1847992,-0.8920288,-0.2667694,1.4167581,-2.218566,-2.91659
1570714885,5.288788,4.791992,1.9411011,-0.0016174316,-1.6483612,0.6536102,-0.33742952,-3.7655067,-1.1576707
1570714885,4.2987823,7.842209,3.329132,0.055908203,-1.5961761,0.37451172,0.2810135,-0.9222479,0.9460242
1570714885,3.6613312,6.625946,1.3239899,0.18266296,-2.009491,0.89863586,-1.627584,-1.3427668,-0.9922161
1570714885,5.5790863,6.019623,2.1493988,0.5842743,-2.249176,1.6879883,0.6563735,-1.8732004,0.22625828
1570714885,11.117477,9.897629,5.0338135,0.45004272,-1.3671417,1.4355164,5.026723,1.6099768,2.4650624
1570714885,8.919006,8.741837,3.1202393,0.97309875,-0.7386322,0.88371277,3.2424107,1.6499162,2.605557
1570714885,8.143875,8.529343,-0.47465515,1.1073151,-1.0209198,0.77612305,1.847825,0.8215141,-1.0484774
1570714885,5.130768,8.32225,-1.1246796,0.19544983,-1.2819214,0.30207825,-0.6214061,1.4768138,-1.4704773
1570714885,2.1056976,7.325058,-1.1767426,0.07720947,-2.1948547,0.46932983,-4.665548,-0.28534794,-1.1248045
1570714885,5.0774994,9.010574,0.7164612,-0.0974884,-1.9455719,0.62272644,-2.33946,1.4563422,1.8930186
1570714885,18.367722,7.5572968,-0.8487396,2.6423645,1.7295837,1.9393921,10.348485,-0.5677171,0.7625437
1570714885,18.367722,7.5572968,-0.8487396,2.6423645,1.7295837,1.9393921,10.348485,-0.5677171,0.7625437
1570714886,8.40126,3.4279022,0.88345337,-0.21681213,-0.2368927,1.746582,0.11935234,-2.0126219,0.91114026
1570714886,8.585602,2.9903564,1.5837708,-0.2700653,-0.25074768,1.858429,0.11935234,-2.0126219,0.91114026
1570714886,3.3943787,4.8207245,-0.45370483,0.45750427,-0.70028687,0.9444275,-4.391946,-0.11807823,0.4486792
1570714886,3.3943787,4.8207245,-0.45370483,0.45750427,-0.70028687,0.9444275,-4.391946,-0.11807823,0.4486792
1570714886,2.2104492,7.210144,-3.122635,-0.4096222,-1.595108,-0.2859497,-5.7300215,3.607843,-1.0784953
1570714886,2.2104492,7.210144,-3.122635,-0.4096222,-1.595108,-0.2859497,-5.7300215,3.607843,-1.0784953
1570714886,9.980225,5.752075,1.0372925,0.41062927,0.7442169,-0.42337036,2.5853987,0.8748989,4.7858286
1570714886,9.528915,5.8765717,0.09336853,0.33287048,0.9423523,-0.4350891,2.0122204,0.89224625,3.5012796
1570714886,13.575119,5.9819183,1.5251007,-0.5715332,3.1921997,-1.025238,5.187045,0.6773038,2.9394653
1570714886,13.626602,6.30513,1.3257904,-0.54704285,3.4212189,-1.1445465,5.187045,0.6773038,2.9394653
1570714886,14.163498,4.2431183,-8.547302,1.2980042,-1.7548981,-3.5051727,8.675896,-2.7508068,-6.59816
1570714886,14.163498,4.2431183,-8.547302,1.2980042,-1.7548981,-3.5051727,8.675896,-2.7508068,-6.59816
1570714886,3.7367554,5.0379944,-5.4486084,1.1275635,-4.3125916,-1.7528076,-0.4834261,-1.821588,-3.6705546
1570714886,0.7481842,4.9476166,-5.3450623,1.0220947,-4.0398865,-1.6665344,-0.4834261,-1.821588,-3.6705546
1570714886,5.064331,8.414429,-11.623245,-0.9198761,-1.1476898,-0.35305786,-8.315447,-0.73417616,-8.975297
1570714886,1.727417,11.573578,4.5603485,-0.3861847,-1.1530151,-0.3914032,-3.76329,3.5018415,6.015048
1570714886,2.1074982,11.91774,4.2993927,-0.3861847,-1.1530151,-0.3914032,-3.76329,3.5018415,6.015048
1570714886,5.0571594,10.084976,0.7541809,-0.8634186,0.19985962,0.7612152,-1.1179366,3.0044684,3.3831284
1570714886,5.827484,6.7420654,-0.4513092,-0.82933044,0.14979553,-0.35731506,-0.03673029,-0.40140533,1.5658236
1570714886,5.0774994,6.400894,0.09158325,0.31263733,0.47257996,-2.2151337,0.09885788,-1.7661114,2.0964384
1570714886,1.6777344,3.83432,0.707489,-1.1734161,0.42144775,-0.96559143,-2.844276,-4.1733475,0.7092128
1570714886,1.6777344,3.5452118,0.83317566,-1.2692871,0.45233154,-0.78022766,-2.9122276,-4.5362825,2.1397994
1570714886,6.142929,5.131378,0.9684601,-1.7966003,0.2137146,0.51620483,0.54578686,-3.8976574,2.0663042
1570714886,5.187042,5.240906,-0.12689209,-1.5153656,0.034744263,-0.0899353,1.7863321,-2.7220469,1.1524174
1570714886,6.122574,5.5832825,1.9512787,-1.299118,0.97431946,-0.2891388,0.481637,-3.000516,1.7670771
1570714886,8.3072815,6.435608,1.6795349,-0.9379883,1.9447632,-1.9392395,4.0872335,-1.705533,1.6496984
1570714886,3.6691132,1.4616547,-0.019744873,-0.6226654,2.9365234,-3.7991943,0.8101659,-6.6047792,-0.43189377
1570714886,0.98521423,-0.9241638,-0.39505005,-0.49484253,2.4284058,-4.099594,-1.1540308,-9.936814,-1.2649833
1570714886,0.67396545,0.28311157,-1.5723877,-1.0658264,1.5335846,-3.9419403,-0.11020827,-9.616955,-2.5503771
1570714886,-6.44339,19.612701,8.134308,-0.7888489,-2.475006,-5.719864,2.449279,10.450377,7.1529922
1570714886,-0.28012085,1.6531982,1.2126617,-0.62905884,-4.8867645,-0.4297638,0.8131243,-7.5034227,-1.0057774
1570714886,-0.28012085,1.6531982,1.2126617,-0.62905884,-4.8867645,-0.4297638,0.8131243,-7.5034227,-1.0057774
1570714886,-9.452911,11.037277,4.2598877,-1.842392,-2.8595734,-0.086746216,-5.159888,1.9797678,0.008872271
1570714887,-3.9085388,10.056839,2.5641937,-2.2589111,2.0576935,1.588913,-3.9445875,1.0877876,2.3027663
1570714887,-2.6264343,11.357498,1.624466,-2.4272308,3.4595795,1.3609467,-3.202327,1.839282,-2.2456124
1570714887,1.4598694,12.942459,1.8267822,3.4317322,2.373001,0.29995728,2.8673334,4.1784124,-0.9169018
1570714887,1.4598694,12.942459,1.8267822,3.4317322,2.373001,0.29995728,2.8673334,4.1784124,-0.9169018
1570714887,1.7812805,10.983994,1.2395935,2.6412964,-4.4670563,0.5875702,2.6390388,1.6614304,-1.0724088
1570714887,1.7812805,10.983994,1.2395935,2.6412964,-4.4670563,0.5875702,2.6390388,1.6614304,-1.0724088
1570714887,-4.5908813,9.657608,10.313019,1.5270386,-1.8944397,-1.8092804,-0.83019215,1.5987921,6.421145
1570714887,-15.528198,4.534012,11.789642,2.3483582,2.0864563,-0.45851135,-15.254773,-5.3190355,13.503409
1570714887,-4.3352966,10.076004,-4.364624,1.7262421,4.2063293,-0.108047485,-3.5694082,1.0125523,-2.873054
1570714887,2.6240387,8.54071,3.6948547,2.013855,-1.3000336,-0.34240723,3.6929235,-0.25691986,5.1021137
1570714887,2.6240387,8.54071,3.6948547,2.013855,-1.3000336,-0.34240723,3.6929235,-0.25691986,5.1021137
1570714887,4.560959,12.062592,4.2545013,1.8732452,1.1149292,0.48849487,6.504956,2.9720345,7.518987
1570714887,-3.4727936,3.7140045,-0.33039856,1.5579224,-1.3905792,0.52046204,-2.4813137,-4.906933,2.5500395
1570714887,-3.3967743,3.525467,-0.344162,1.4759064,-1.4108124,0.5396271,-2.4813137,-4.906933,2.5500395
1570714887,-2.1697388,2.708435,-0.050872803,0.32008362,-1.1221313,0.63656616,-1.3954085,-6.094431,3.0957065
1570714887,-1.4269409,3.087326,0.19332886,-0.3957672,-0.8920288,0.41394043,-0.5389985,-5.621559,3.3004
1570714887,-1.2539673,2.8850098,0.0053863525,-1.3406525,-0.34661865,0.10820007,-0.198627,-5.9792366,2.925977
1570714887,-2.6096802,9.416397,-3.8606567,-2.3366852,1.173523,-0.05052185,-1.5559999,-1.3352852,-1.2561462
1570714887,-2.6096802,9.416397,-3.8606567,-2.3366852,1.173523,-0.05052185,-1.5559999,-1.3352852,-1.2561462
1570714887,1.8387451,11.921326,-4.036621,0.07507324,-1.498169,0.45654297,2.9317095,3.4147015,-4.1283197
1570714887,1.5813751,10.863098,-4.036621,0.07507324,-1.498169,0.45654297,2.9317095,3.4147015,-4.1283197
1570714887,-3.9869385,4.399948,-2.2361908,0.24871826,-0.81427,0.07197571,-2.646895,-4.456833,-0.62099206
1570714887,-4.5411987,7.100601,-1.6741486,-1.0913849,-0.17404175,-0.31578064,-3.4011383,-3.7244968,-0.32415032
1570714887,-10.204086,12.178101,7.649475,-2.0735626,1.2108002,-0.992218,-8.580788,1.6947107,6.9084344
1570714887,-6.5786743,11.064209,3.9869385,-1.0530396,2.3900452,-0.24653625,-7.1482573,3.4598427,5.521962
1570714887,-2.6797028,7.1167603,0.6033325,-0.7867279,1.7167969,-0.32855225,-1.5062815,-1.9941845,0.86514556
1570714887,0.806839,5.962158,0.060455322,0.40637207,-1.4960327,-0.47555542,2.6674635,-3.3382912,0.7413126
1570714887,0.82180786,6.107605,-0.07901001,0.38293457,-1.7495728,-0.4883423,2.6674635,-3.3382912,0.7413126
1570714887,2.1487885,11.355698,6.509842,-0.8144226,-3.631897,0.18702698,4.0042653,2.5140142,5.6965246
1570714887,2.1392212,11.256943,6.38414,-0.8186798,-3.4465332,0.21046448,4.0042653,2.5140142,5.6965246
1570714887,-1.9895782,7.3938904,4.3736115,-1.8967285,4.075302,1.8989105,-1.1054224,-2.1775675,3.2161605
1570714887,-1.9895782,7.3938904,4.3736115,-1.8967285,4.075302,1.8989105,-1.1054224,-2.1775675,3.2161605
1570714887,0.011978149,9.994003,-0.61291504,-2.047989,4.6888885,1.0690765,1.448504,0.90465164,-2.7194176
1570714888,-0.52433777,10.13884,-0.61531067,-1.9851379,4.252136,0.89863586,0.7781618,1.1230135,-2.4209566
1570714888,-0.9421234,8.998001,3.1537628,-0.043167114,-0.8185272,0.28823853,0.018810451,0.4026165,0.57360935
1570714888,-1.0145416,9.006989,3.1693268,0.03779602,-0.7908325,0.2584076,0.018810451,0.4026165,0.57360935
1570714888,-1.1444244,8.441956,4.4484253,0.19012451,0.6462097,0.067718506,-0.49482316,-0.28549576,1.7582536
1570714888,-0.19871521,7.610565,1.0779877,-0.8549042,3.7035217,-0.098464966,0.7244196,-1.3084631,-0.91982603
1570714888,0.054473877,8.172607,-0.028137207,-0.9347992,2.769287,-0.28701782,1.1959337,-0.9141464,-2.3618052
1570714888,-0.4297638,9.069229,0.5716095,-0.6929779,0.7804413,-0.6609192,1.13308,0.12085152,-2.065161
1570714888,-0.66677856,11.090546,0.32382202,-0.13371277,-2.2055054,-0.6374817,0.8240864,2.4138775,-2.314871
1570714888,-0.5853882,11.003159,0.23703003,-0.1678009,-2.3812714,-0.5650482,0.9482182,2.4267492,-2.4850566
1570714888,1.7184448,10.798447,0.16340637,-0.67274475,-2.9320068,-0.12828064,2.9301217,2.1859875,-3.0497227
1570714888,0.5303192,9.160812,2.0069427,-1.0881958,-0.65766907,0.2349701,1.8284898,0.27161598,-1.3668263
1570714888,0.43095398,12.422913,2.4438782,0.92515564,1.3950958,-4.5776367E-4,1.5382674,4.0388556,-0.82242966
1570714888,1.4083862,12.472,0.9217682,2.331314,0.17643738,0.07304382,2.2847693,3.6807632,-1.6582527
1570714888,-1.4233551,9.433151,2.8646698,2.8863068,-3.1930084,0.34681702,-0.35147047,0.5314064,0.3293091
1570714888,-1.3952179,9.427765,3.193863,2.9022827,-3.1344147,0.33084106,-0.58332306,0.3333807,1.0889044
1570714888,-1.4532776,9.584595,5.3157196,2.9938965,-1.534378,-0.47769165,-0.77642006,0.18763351,4.2388105
1570714888,-3.0334473,11.2443695,4.521454,2.3110657,2.0757904,-1.899826,-1.2367287,1.9734678,4.960763
1570714888,-13.371613,8.951324,-0.6494293,1.4631195,1.6070862,0.32765198,-15.706603,-1.8944521,-0.8638165
1570714888,-0.47644043,10.469849,-0.05506897,1.868988,-0.22410583,-0.08035278,0.29055285,1.7911987,0.8337301
1570714888,3.3860016,10.499176,5.102646,1.4982758,-0.33169556,0.69729614,4.4373274,0.52231216,6.123415
1570714888,-1.388031,6.158478,-0.013763428,2.3270416,-0.96873474,0.62272644,-0.20650005,-2.2631407,2.6861913
1570714888,-1.388031,6.158478,-0.013763428,2.3270416,-0.96873474,0.62272644,-0.20650005,-2.2631407,2.6861913
1570714888,-3.2764587,4.7010193,-0.82180786,1.5302277,-1.1231995,0.77931213,-1.8585314,-3.9806929,2.1154258
1570714888,-2.33255,3.241745,-0.5901642,0.62049866,-1.4086761,0.90608215,-1.3785862,-4.991886,2.5576556
1570714888,-1.0115509,2.7886505,0.60095215,-1.1180267,-0.31785583,0.16358948,-0.23860544,-6.0521536,3.2713249
1570714888,-1.0115509,2.7886505,0.60095215,-1.1180267,-0.31785583,0.16358948,-0.23860544,-6.0521536,3.2713249
1570714888,-1.470047,4.039612,-0.15621948,-1.6740875,0.17004395,-0.051589966,-0.49243551,-5.099883,2.4881973
1570714888,-2.7688904,11.206665,-3.3303375,-2.3856812,0.7655182,-0.16343689,-1.7858479,1.2046623,-1.5861485
1570714888,-3.5386353,19.103928,-3.8947601,-1.807251,0.88056946,-0.25398254,-2.349668,6.708189,-2.3117743
1570714888,1.5316925,6.369171,-3.5140839,-0.16673279,-0.3072052,0.26585388,3.1817675,-1.5175877,-4.122427
1570714888,-0.68833923,5.292984,-2.4163513,-0.36167908,0.010253906,-0.042007446,0.8012592,-3.625207,-1.4683198
1570714888,-2.518097,6.779785,-0.5237274,-0.8453064,-0.35406494,-0.6555939,-1.1450887,-3.1174173,-0.34938467
1570714888,-8.282135,12.569565,7.5878296,-0.65249634,1.9671326,-0.5671692,-7.2340045,3.3251953,8.786289
1570714888,-8.059479,12.452835,6.934799,-0.6397095,2.1759338,-0.52563477,-7.2340045,3.3251953,8.786289
1570714889,-1.6932983,9.780914,-11.339539,-1.8338776,2.1695404,-0.39353943,-0.78613377,0.8553438,-9.911456
1570714889,-3.783432,6.663666,-0.111328125,-2.411255,0.37989807,-0.055847168,-2.5456986,-2.0471258,-2.0536537
1570714889,0.33937073,5.3426666,6.5361633,-1.0168152,-0.28483582,0.12631226,1.4809403,-3.7435274,5.595189
1570714889,-0.16220093,8.423401,3.6876678,1.12117,-0.1431427,-1.1392212,1.9810939,-1.1381893,3.4954393
1570714889,-2.4414825,10.850525,-1.0726013,1.0402069,-2.5250854,-0.62683105,-0.5354605,1.734498,-1.1023431
1570714889,-0.533905,10.857101,0.12808228,-0.15075684,-4.71846,0.3968811,0.76440954,2.2996607,-1.2416049
1570714889,0.09336853,6.2243195,3.9737701,-1.4929962,1.7530212,0.99450684,2.210756,-2.3886604,3.2576423
1570714889,1.1492157,7.5686646,1.7788849,-1.6208191,2.515747,1.5484467,2.680563,-1.5346632,-0.092427015
1570714889,1.1492157,7.5686646,1.7788849,-1.6208191,2.515747,1.5484467,2.680563,-1.5346632,-0.092427015
1570714889,-1.6094971,10.044876,0.4225769,-2.4197693,3.3168335,1.0381775,-0.69427496,1.7852497,-2.9286141
1570714889,-1.6094971,10.044876,0.4225769,-2.4197693,3.3168335,1.0381775,-0.69427496,1.7852497,-2.9286141
1570714889,-2.0147247,8.661621,1.2755127,-1.4471893,2.0289307,0.24243164,-1.2645464,0.22015,-2.2745903
1570714889,-0.7775116,9.751587,1.4658508,0.7280884,-0.32637024,-0.89741516,0.5745305,1.06392,-1.421202
1570714889,-0.7775116,9.751587,1.4658508,0.7280884,-0.32637024,-0.89741516,0.5745305,1.06392,-1.421202
1570714889,-1.5759888,10.541672,0.07122803,0.44259644,-0.80255127,-0.8920746,-0.11885786,1.9059181,-2.6419413
1570714889,2.7174225,11.821976,1.0821838,-0.21681213,-0.7333069,-0.34240723,3.6468036,3.0074825,-1.4158311
1570714889,2.8467102,11.933899,0.83317566,-0.23597717,-0.70028687,-0.35305786,4.0044556,3.2222977,-1.8739531
1570714889,1.8028412,8.801086,1.1994934,-0.4703369,0.6611328,0.14761353,3.3259099,0.80015564,-2.423798
1570714889,1.324585,8.807068,0.57640076,-0.17738342,1.3759155,0.22218323,3.0480607,0.08291435,-2.274836
1570714889,-0.4698639,12.497131,-1.3168182,2.06073,-0.94636536,-0.18154907,1.1089973,3.857212,-4.5159717
1570714889,-0.63386536,12.367844,-0.39505005,2.412262,-1.3234558,-0.22096252,0.90770864,3.7369032,-3.3932767
1570714889,0.21069336,10.268738,1.790268,4.5023193,-2.0936432,0.27545166,1.1610323,1.412322,1.3929534
1570714889,0.017364502,10.00177,3.4410706,3.9025726,-1.882721,0.54496765,2.5959706,1.2824354,1.3160745
1570714889,1.913559,13.824127,6.257843,2.7233276,0.16790771,-0.056915283,2.6189375,3.7625265,6.748871
1570714889,-13.410522,9.086594,-4.5681305,1.2958679,1.9948425,-1.7112732,-6.8800244,1.1140842,-0.8225333
1570714889,-6.1842194,10.480621,-2.3343506,0.6311493,-0.9644623,1.1095581,-8.144025,0.05774975,-2.930347
1570714889,3.5057068,10.367493,5.036209,2.0095978,-0.9325104,1.0019531,2.8082008,0.012294769,4.633532
1570714889,2.8688507,10.213058,4.723755,2.475113,-0.6970825,0.8996887,4.628873,1.7016582,7.3418837
1570714889,-0.87867737,6.518219,0.37709045,2.3856354,-0.9655304,0.6408386,0.22975397,-2.2170782,2.6853838
1570714889,-2.2284088,2.6192627,-0.020950317,0.79093933,-2.2214813,0.871994,-1.2617528,-5.810236,3.425452
1570714889,-2.2284088,2.6192627,-0.020950317,0.79093933,-2.2214813,0.871994,-1.2617528,-5.810236,3.425452
1570714889,-2.1853027,2.4558563,0.41479492,-0.44796753,-1.3767242,0.6727905,-1.2924721,-6.1029415,3.344502
1570714889,-1.9638367,3.0801392,0.43515015,-1.2831421,-0.50427246,0.32551575,-1.0731964,-5.654954,3.3995512
1570714890,-1.8824463,4.305969,-0.31604004,-1.856247,0.3117218,0.3148651,-1.1214731,-4.7418776,2.2243302
1570714890,-1.5484467,8.226471,-4.007889,-1.9190979,0.83369446,0.4118042,-0.7729679,-1.7571926,-0.7345145
1570714890,2.07518,19.068619,-13.997696,0.28492737,-1.5684662,0.17530823,0.6922684,10.636637,-15.013439
1570714890,1.6178894,9.154831,-5.498886,0.30517578,-1.8475647,0.10394287,3.184054,3.3480377,-7.0181265
1570714890,-2.937683,7.8218536,-1.1863251,-1.0658264,-0.42970276,-0.8899536,-1.8190341,-2.4485598,-0.3143432
1570714890,-2.937683,7.8218536,-1.1863251,-1.0658264,-0.42970276,-0.8899536,-1.8190341,-2.4485598,-0.3143432
1570714890,-9.613312,12.942459,7.9074554,-2.0586548,0.8677826,-0.8697052,-8.049243,3.5902977,8.060218
1570714890,-8.632294,13.67807,7.8200684,-1.6325378,2.3005676,-0.4350891,-7.978009,4.7651434,9.896397
1570714890,-1.7471619,6.417053,4.997299,-0.5630188,1.9756622,-0.020690918,-0.31543136,-2.3228617,4.5785394
1570714890,-1.7471619,6.417053,5.134369,-0.5630188,1.9756622,-0.020690918,-0.31543136,-2.3228617,4.5785394
1570714890,0.08558655,9.913788,3.3183594,-0.7142792,-1.9839325,-0.51071167,1.8065122,-0.8653679,0.9433372
1570714890,0.08558655,9.913788,3.3183594,-0.7142792,-1.9839325,-0.51071167,1.8065122,-0.8653679,0.9433372
1570714890,-0.7541809,10.00177,3.269287,0.19226074,-3.0747528,0.029373169,1.4860482,1.7197151,3.3662891
1570714890,-0.90800476,9.653427,3.094513,0.17414856,-3.061966,0.13696289,1.4860482,1.7197151,3.3662891
1570714890,-1.9033966,6.282379,3.186081,-2.415512,2.2536926,1.1138153,-0.14936733,-2.3926325,1.9169886
1570714890,-1.3144226,6.2135468,3.3099823,-2.1960602,2.5658112,1.26828,-0.13084412,-2.606738,1.8993797
1570714890,-1.490387,8.902237,0.69252014,-1.0200195,1.5367737,0.934845,0.017541647,-0.40190983,-1.4735955
1570714890,-1.490387,8.902237,0.69252014,-1.0200195,1.5367737,0.934845,0.017541647,-0.40190983,-1.4735955
1570714890,-1.2635345,8.376709,2.395401,-1.1116333,1.5644684,0.59503174,0.13696408,0.28415298,-0.088139296
1570714890,-1.3623047,8.070251,2.2433624,-1.1606293,2.2483673,0.3841095,-0.45790994,-0.5798569,-0.5270276
1570714890,-0.8253937,8.421005,2.6078796,-1.2117615,2.658493,0.15400696,0.011261642,-0.44501972,0.019345284
1570714890,-0.24002075,10.310028,0.5135498,-0.80696106,0.5886841,-0.56611633,1.1059277,1.9887686,-2.834441
1570714890,-0.24002075,10.310028,0.5135498,-0.7632904,0.40652466,-0.57676697,1.1059277,1.9887686,-2.834441
1570714890,0.95588684,10.960663,-0.34835815,0.16668701,-2.1873932,-0.656662,2.4567633,2.3387642,-2.653153
1570714890,1.5921478,11.2443695,-1.8010406,-5.493164E-4,-3.0715637,-0.55226135,2.8542323,2.775632,-4.9188375
1570714890,0.6859436,9.27095,4.641754,0.36802673,1.079773,0.079437256,2.1328468,0.8163996,1.64185
1570714890,0.6536102,9.420578,4.2407227,0.45750427,1.3535461,0.13696289,2.1328468,0.8163996,1.64185
1570714890,0.7583618,12.880798,-0.37109375,1.5387573,1.286438,0.52578735,2.0702817,3.873869,-3.103096
1570714890,0.4914093,12.5881195,-0.6260834,2.7744598,-2.7381287,0.3191223,1.6649584,4.1974277,-3.3546386
1570714890,-0.84036255,10.557236,2.1960754,3.350769,-3.5562592,0.19448853,0.3352509,2.1777592,-0.46692276
1570714890,-1.2306213,10.494385,4.6279907,3.7566376,-1.9754028,0.08050537,-0.8992903,1.0478907,3.1814785
1570714890,0.56144714,13.382996,5.4180756,2.9960327,0.6313019,-1.0092621,1.156992,3.7364511,5.4641933
1570714890,-13.809158,7.2388763,-0.8277893,1.0508575,2.0236053,0.52685547,-15.749342,-3.1305494,0.34449947
1570714891,-0.01675415,9.541489,0.4237671,1.406662,-0.1538086,0.30101013,0.004782319,0.6468067,1.2481356
1570714891,1.5640106,8.449142,0.952301,1.6825562,-1.2989655,0.1614685,2.2134748,-0.7446928,1.8085023
1570714891,-2.6390076,6.7492523,0.76434326,2.3440857,-0.7620697,0.5044861,-1.5859681,-1.7099733,3.5419958
1570714891,-2.6390076,6.7492523,0.76434326,2.3440857,-0.7620697,0.5044861,-1.5859681,-1.7099733,3.5419958
1570714891,-2.367859,2.6024933,-1.7028809,0.70358276,-1.2073517,0.5907593,-1.976948,-6.3968296,2.3719354
1570714891,-1.8513184,2.363678,0.12509155,-0.5449066,-0.80999756,0.4352417,-1.0581768,-6.4233913,2.9513092
1570714891,-1.7890625,2.363678,0.12509155,-0.5449066,-0.80999756,0.4352417,-1.0324223,-6.29187,2.9840543
1570714891,-1.3904266,2.7293854,0.48483276,-1.2096252,-0.62997437,0.16679382,-0.63109934,-5.9329653,3.0860312
1570714891,-1.490982,4.4693756,-0.26635742,-2.0096436,-0.18894958,0.029373169,-0.58973444,-4.7800636,1.9648235
1570714891,-1.359909,9.170395,-3.5236664,-2.4581146,1.0648651,0.12098694,-0.62092906,-1.1508389,-1.531867
1570714891,1.467041,17.204132,-10.760147,-0.567276,-0.68536377,0.23710632,2.1498532,10.648138,-15.971704
1570714891,1.2306213,8.616135,-2.367859,-0.14968872,-0.67897034,0.39050293,1.9704283,0.63561726,-2.0143795
1570714891,-1.2617493,5.802948,-2.86586,0.06549072,-1.517334,-0.1453247,-0.36043435,-3.4423094,-1.7650136
1570714891,-11.411362,11.373657,8.096588,-0.7867279,2.0576935,-0.7354889,-10.717672,1.680974,10.128624
1570714891,-11.411362,11.373657,8.096588,-0.7867279,2.0576935,-0.7354889,-10.717672,1.680974,10.128624
1570714891,-4.542404,6.6229553,2.778473,-1.7454529,0.60466003,-0.21989441,-3.207867,-2.129403,-0.5018497
1570714891,-0.07241821,6.3003387,4.034836,-0.03251648,1.8052216,-0.66838074,1.3150587,-2.6047306,5.3598495
1570714891,-0.08558655,6.2291107,3.4698029,0.02607727,1.7764587,-0.71951294,1.3823764,-2.641492,4.41838
1570714891,0.9516907,11.566986,3.7062225,-0.7718048,-3.4135132,-0.55332947,2.2569,2.0506372,2.7096708
1570714891,1.1863251,11.765701,4.0539856,-0.76008606,-3.555191,-0.54907227,2.2569,2.0506372,2.7096708
1570714891,0.1993103,9.586975,4.791992,-0.42773438,-4.003662,-0.27209473,2.57919,1.2309666,4.5482244
1570714891,-1.4957733,7.206543,3.8612518,-2.6296234,0.5396881,0.7047577,0.83667505,-1.3468933,1.3385438
1570714891,-1.5304871,5.7664337,4.0803223,-2.141739,2.8822021,1.7391205,-0.5676031,-2.67459,2.319737
1570714891,0.98760986,7.9086456,1.8878326,-1.3971252,3.1889954,1.7274017,2.0448027,-1.2980032,-0.029828072
1570714891,-0.1945343,10.234009,1.0420837,-1.3715515,3.116562,1.1521606,0.93040305,1.3387938,-1.1959074
1570714891,-1.0881653,10.168167,-0.8487396,-1.7316132,2.5050964,0.8357849,-0.15958935,1.7534513,-3.9099863
1570714891,-2.0817566,8.95192,1.2539673,-1.8168335,1.8020172,0.4863739,-1.1526572,0.58476734,-2.4088023
1570714891,-0.46507263,8.628708,1.932724,-0.68019104,1.3119965,-0.0388031,0.33473957,0.17878914,-1.1393402
1570714891,-0.46388245,9.429565,1.3946228,-0.04423523,0.6217041,-0.5970001,0.9057888,1.0059328,-1.9158375
1570714891,-0.89842224,9.916183,1.7711182,0.1347351,0.090148926,-0.60446167,0.5026592,1.4888697,-1.5441065
1570714891,-0.5488739,10.21846,1.4855957,0.08572388,0.08161926,-0.54374695,0.93165624,1.8544741,-1.5889683
1570714891,1.7872772,10.783478,0.4159851,-0.3957672,-0.7865753,-0.11230469,3.1651134,2.4975815,-2.974762
1570714891,1.861496,10.735596,0.38786316,-0.37660217,-0.82066345,-0.10272217,3.1651134,2.4975815,-2.974762
1570714892,1.4377136,12.998123,2.6378174,1.8998718,0.2179718,0.25627136,2.8466763,4.4815416,-0.30114532
1570714892,1.4377136,12.998123,2.6378174,1.8998718,0.2179718,0.25627136,2.8466763,4.4815416,-0.30114532
1570714892,1.6795349,12.410339,-1.2138672,3.4583588,-2.4569092,0.5513458,2.9234607,4.07403,-3.4723227
1570714892,-0.81941223,10.323196,4.751297,3.752365,-2.8766174,0.016586304,-0.34981102,1.0497904,3.2277336
1570714892,-0.0053863525,12.029663,6.234497,2.8351746,0.72398376,-1.8018188,1.6603805,3.3260689,6.545619
1570714892,-5.5288086,10.238205,5.4497986,2.4580688,1.9426422,-2.21727,0.57582533,2.5477648,5.941473
1570714892,-6.2285156,11.100723,-1.9548645,0.23060608,1.9064178,0.6291199,-6.650856,2.1039457,-1.9334106
1570714892,1.9865875,10.405197,2.079361,1.6282349,-0.17404175,0.26480103,2.0786247,1.7251759,3.7747574
1570714892,2.5175018,10.329178,4.7782288,1.8370209,-0.18682861,0.64190674,3.3847044,1.1588068,5.7942405
1570714892,2.4594421,9.040512,5.055954,2.284439,-0.23475647,0.37132263,3.749158,0.9490175,6.575243
1570714892,-1.0223236,3.565567,0.2849121,1.8775024,-1.1903076,0.28503418,0.21288764,-4.35983,3.2571447
1570714892,-1.6687622,2.3708649,-0.11552429,1.2884064,-1.0731201,0.30421448,-0.40131164,-6.1250057,2.9963703
1570714892,-1.577179,2.518097,0.38127136,-0.49591064,-0.7620697,0.24562073,-0.51060045,-6.1072683,3.1686673
1570714892,-1.4820099,3.3973694,-0.3148346,-1.7156372,-0.591629,-0.14852905,-0.12813997,-5.443699,2.4281561
1570714892,-1.5586243,3.5518036,-0.3549347,-1.7891388,-0.5639343,-0.13999939,-0.12813997,-5.443699,2.4281561
1570714892,-1.6537933,9.504974,-3.5565796,-2.3068542,0.35006714,0.25627136,-0.31391537,-0.27250767,-1.2131978
1570714892,0.8307953,19.612701,-19.50676,-0.5395813,-0.41905212,0.23815918,2.2383199,10.801377,-17.028225
1570714892,-0.97743225,12.661133,-7.1281433,-0.3680725,-1.0326385,0.49595642,0.638265,6.6207266,-8.211454
1570714892,-2.5462341,8.244431,-3.1130676,-0.31375122,-0.9346466,-0.19645691,-1.3054954,-1.7812414,-1.5473124
1570714892,-7.4411774,15.006256,2.735382,-1.1467743,-0.5106659,-1.7347107,-3.5620399,5.6697283,0.9549159
1570714892,-4.3101654,5.2319336,2.3618774,-0.24023438,1.715744,-0.037734985,-3.437921,-2.127038,4.7151165
1570714892,-3.4273071,3.6026764,1.3736725,-0.33398438,1.7871094,0.053878784,-2.3376775,-4.363349,2.6507936
1570714892,-2.9317017,8.450928,2.8365326,-1.0967102,2.8353271,-0.738678,-1.0370505,-0.8503275,3.2515712
1570714892,-2.992752,8.542511,3.0059204,-1.106308,2.7873993,-0.7589264,-1.0370505,-0.8503275,3.2515712
1570714892,-0.4411316,10.384247,2.7192078,-0.2924347,-1.5226593,-0.6161804,1.0287983,0.9954252,3.405614
1570714892,-0.18974304,10.482407,2.2864685,-0.21574402,-1.8166809,-0.60020447,1.5196886,1.4824581,3.1870492
1570714892,2.0967255,9.688736,-1.8962097,-0.7174835,-4.9336395,-0.14852905,3.126401,0.6371269,1.8928463
1570714892,-1.4706421,7.047333,6.5948334,-3.1995392,0.7665863,0.24668884,3.2150965,-0.56069374,3.769515
1570714892,-1.648407,7.000641,5.9286346,-2.607254,2.4102936,0.9689331,0.0058071613,-1.8965559,4.912923
1570714892,-0.14305115,8.059479,-0.44950867,-1.252243,3.3338776,1.7785339,1.6524165,-0.73197937,-2.1245723
1570714892,-0.077804565,8.546707,-0.8643036,-1.2309418,2.7735443,1.6347198,1.4209423,-0.21472931,-2.611355
1570714892,-0.62368774,9.6905365,-0.9319458,-1.4003143,1.79776,1.1297913,0.8412057,0.9953327,-3.2431376
1570714892,-0.7086792,8.279144,3.0855255,-0.8005676,0.87098694,0.18383789,0.52752423,-0.028391838,0.32757092
1570714892,-0.8062439,8.383896,3.1322174,-0.40429688,1.0084076,-0.19859314,0.5060271,-0.33507347,0.6798601
1570714893,-3.4404755,8.825623,0.2454071,-0.7259979,1.8701935,-0.57463074,-1.151515,0.5216913,-1.6501739
1570714893,-1.26474,10.261551,0.14544678,-1.2511749,0.7985382,-0.35731506,0.052995563,1.704874,-3.4356143
1570714893,-0.28370667,10.213058,2.0374603,-0.8687439,-0.19322205,-0.40951538,1.385413,1.9311867,-1.0744834
1570714893,1.493988,10.636841,-1.1156921,0.095321655,-3.0907288,-0.5416107,3.2335036,2.3236752,-4.007008
1570714893,2.956833,11.307816,-1.4664459,-0.09536743,-4.097412,-0.3914032,4.2415566,2.9312496,-4.783848
1570714893,1.2306213,8.402451,4.6148224,-0.4969635,-0.72798157,-0.05052185,2.5958147,0.3474722,0.27596283
1570714893,0.37528992,11.254547,1.9506683,1.008255,2.338913,0.09436035,1.9863598,2.6198225,-0.82646084
1570714893,1.4059906,13.956406,-1.1653748,2.3270416,0.64941406,0.30740356,2.6603978,5.039426,-3.0600522
1570714893,0.98760986,10.899002,0.78230286,3.4019012,-2.8755493,0.37451172,2.391585,3.1168385,-2.2139938
1570714893,-1.3263855,10.120285,4.061157,3.7001648,-2.1650238,0.39901733,-0.47444272,0.7240095,3.2242208
1570714893,-14.0707245,8.528748,0.76734924,1.6026611,2.2888489,-1.3000793,-4.8690205,2.1878643,3.1355107
1570714893,-16.318283,7.375931,0.06764221,1.4844208,2.1780548,-0.98475647,-11.015167,0.19195747,1.6347206
1570714893,-7.6560516,10.931931,-1.8890228,0.4681549,1.1745758,0.7079468,-8.403992,1.0944605,-0.9887739
1570714893,1.2150574,10.00177,0.98820496,1.2873535,-1.578064,0.2157898,1.9625977,1.6991043,0.89903677
1570714893,-2.3451233,5.628769,1.3617096,2.6732635,-1.322403,0.24562073,-0.7757416,-2.3054457,4.4719286
1570714893,-2.2385712,5.4096985,1.0330963,2.601883,-1.3000336,0.25733948,-0.7757416,-2.3054457,4.4719286
1570714893,-3.4829712,3.2076263,-0.0909729,1.5280914,-1.4289246,0.32765198,-2.2183034,-5.390999,2.6414874
1570714893,-2.3965912,2.9598389,0.3028717,-0.29776,-0.8898926,0.42138672,-1.3739991,-5.5640125,2.901507
1570714893,-2.3965912,2.9598389,0.3028717,-0.29776,-0.8898926,0.42138672,-1.3739991,-5.5640125,2.901507
1570714893,-1.8213959,3.1370087,0.41659546,-0.9294739,-0.40626526,0.13270569,-0.7111144,-5.5105076,2.934328
1570714893,-1.6077118,6.458359,-1.2485809,-1.8296204,0.4970703,-0.0664978,-0.17088664,-2.903634,1.2911102
1570714893,-2.0416565,8.0816345,-2.9825745,-1.9212341,0.7431488,0.0155181885,-0.6341635,-1.0522032,-0.6644416
1570714893,1.0229187,19.612701,-15.269623,-0.29776,-0.21878052,0.33084106,1.2359532,10.784891,-12.946087
1570714893,1.1049194,10.0742035,-7.2412567,-0.13691711,-1.1082764,0.40008545,2.7191806,2.9096727,-7.270833
1570714893,-1.9201508,10.521317,-1.2575531,-1.1915283,0.63237,-0.7770386,-0.71647406,-0.7626152,-0.5345938
1570714893,-1.9201508,10.521317,-1.2575531,-1.1915283,0.63237,-0.7770386,-0.71647406,-0.7626152,-0.5345938
1570714893,-7.9397736,11.380844,5.2265472,-0.710022,2.2313232,-0.24758911,-7.7737374,3.520523,6.561566
1570714893,-7.9397736,11.380844,5.2265472,-0.710022,2.2313232,-0.24758911,-7.7737374,3.520523,6.561566
1570714893,-1.8351593,6.5559235,2.1775208,-0.69937134,1.6411743,-0.5650482,-0.30073655,-2.3171701,2.0545497
1570714893,-1.059433,7.0664825,3.7451324,-0.37553406,1.1788483,-0.7141876,0.6352099,-1.7743082,3.807025
1570714893,0.6685791,6.803726,0.17536926,-0.13371277,-1.2435608,-0.7866211,2.463334,-2.247798,0.6089728
1570714893,1.7333984,9.907211,2.45047,-0.58432007,-4.1975403,-0.51071167,3.9511921,0.54463387,1.703604
1570714893,3.8989563,12.006317,1.498764,-0.65782166,-4.317917,-0.0388031,4.7945166,2.8103247,4.0515013
1570714894,-2.8802185,6.4661407,6.2315063,-2.3281555,1.2970886,0.7356415,0.06485772,-1.6663332,4.341563
1570714894,0.69551086,7.428009,-0.40222168,-0.8921814,3.3700867,1.8722839,1.7265148,-1.6779213,-0.70905244
1570714894,0.75057983,7.506424,-0.79367065,-0.9624939,3.3871307,1.8105011,1.9409481,-1.4230261,-1.7183672
1570714894,-0.13825989,10.27652,0.25917053,-1.8668976,3.1644897,0.7047577,1.3422271,1.2891111,-2.1480355
1570714894,-1.7477722,9.173386,-0.17297363,-1.8253479,2.113083,0.12844849,-0.33123314,0.8717594,-2.611322
1570714894,-1.5430603,8.217499,3.6822815,-0.7941742,0.5812378,-0.34880066,-0.2339772,-0.20842743,0.6611142
1570714894,-1.4610596,8.2204895,3.648758,-0.7025604,0.57910156,-0.38500977,-0.2339772,-0.20842743,0.6611142
1570714894,-1.1043243,9.633667,0.9349365,5.0354004E-4,-0.43502808,-0.9538727,0.68192005,1.2176199,-2.1154048
1570714894,-1.1043243,9.633667,0.9349365,5.0354004E-4,-0.43502808,-0.9538727,0.68192005,1.2176199,-2.1154048
1570714894,0.7003021,9.72525,1.0917511,0.19012451,-1.8081512,-0.3445282,2.3710098,1.3712273,-2.01736
1570714894,0.8439636,9.731232,1.1564026,0.17308044,-1.8049622,-0.32110596,2.3710098,1.3712273,-2.01736
1570714894,2.3265686,10.9600525,1.3425446,0.11343384,-1.4939117,-0.19007874,3.8290653,2.390891,-1.0959456
1570714894,1.4706421,10.471039,2.4175415,-0.37020874,-0.014251709,0.19342041,3.213266,2.4259062,-1.2037809
1570714894,1.4029999,12.539627,-1.5281067,1.4567261,-0.13995361,0.6909027,2.8624206,4.0116425,-3.7331848
1570714894,1.3311768,12.527664,-1.6962891,1.5536652,-0.3583374,0.7154083,2.8624206,4.0116425,-3.7331848
1570714894,-2.8083954,9.438538,3.1298218,3.6671448,-2.630539,0.4203186,-1.9250625,0.5357256,1.1746608
1570714894,-1.3144226,10.6147,3.5206757,3.7715454,-1.8592834,0.19342041,-0.8460618,1.2485418,1.9542615
1570714894,-0.4405365,13.328522,3.7187958,2.5901642,0.6920166,-1.2137909,0.9151199,4.195882,3.6368682
1570714894,-7.6219482,11.236588,2.6018982,1.7304993,1.4813843,-1.583435,-1.226134,3.3445854,2.7048984
1570714894,3.1711273,9.899429,2.498352,2.028778,-1.4299927,-0.19113159,4.440564,1.1449251,3.0122263
1570714894,2.810196,9.772537,2.5713654,2.0969543,-1.4140167,-0.2614441,4.5560927,0.9191122,3.2135158
1570714894,0.65182495,10.144226,2.7407684,1.5291595,0.4683075,0.6568146,1.7246374,0.5502205,4.393507
1570714894,0.5686188,8.295914,3.9402618,2.4825745,-1.1562195,0.42884827,2.7478821,0.18144703,5.707369
1570714894,-3.2830505,4.1407776,-0.66200256,1.9989471,-1.6888428,0.710083,-2.2589107,-4.3626137,1.7621038
1570714894,-3.122635,3.517685,-0.47764587,1.0988007,-1.4672699,0.81340027,-1.9646875,-5.0198545,2.119046
1570714894,-0.7451935,3.3429108,0.6314697,-0.7771301,-0.5053406,0.56733704,-0.13586807,-5.337161,2.9745584
1570714894,-0.7451935,3.3429108,0.6314697,-0.7771301,-0.5053406,0.56733704,-0.13586807,-5.337161,2.9745584
1570714894,-0.8930359,6.320099,-1.5077515,-1.8115082,0.017700195,0.20620728,-0.022163928,-2.863186,0.6185758
1570714894,-0.8930359,6.320099,-1.5077515,-1.8115082,0.017700195,0.20620728,-0.022163928,-2.863186,0.6185758
1570714894,-1.945282,19.612701,-10.251373,-0.8964386,1.1000214,-0.19007874,-1.2206126,9.4882345,-6.734483
1570714894,1.5849609,19.612106,-19.612701,0.07295227,-0.41479492,-0.013244629,0.26817626,10.747921,-16.346512
1570714894,-2.4384918,4.8410797,-1.2395935,0.4042511,-0.82385254,0.24455261,-1.3249805,-3.785596,0.63398194
1570714894,-3.7098083,3.0364532,-3.292633,0.12620544,-1.1391754,0.14974976,-3.0448456,-5.550412,-1.74815
1570714895,-8.962097,10.817596,9.558258,-1.6091003,1.6678009,-1.4524078,-7.4767604,2.2809105,10.156402
1570714895,-8.962097,10.817596,9.558258,-1.6091003,1.6678009,-1.4524078,-7.4767604,2.2809105,10.156402
1570714895,-1.7322083,9.54808,-3.8367157,-1.9414673,2.1397095,-0.54267883,2.388823,2.6689262,-10.910905
1570714895,-1.7322083,9.54808,-3.8367157,-1.9414673,2.1397095,-0.54267883,2.388823,2.6689262,-10.910905
1570714895,-0.08319092,6.5678864,4.953003,-0.8868561,0.55140686,-0.27635193,0.9402765,-1.9717665,4.638039
1570714895,0.65960693,5.648514,0.64523315,5.0354004E-4,-0.80467224,-0.4862213,2.4369752,-3.3331804,1.330997
1570714895,2.1446075,12.2487335,4.024048,-0.822937,-2.3844604,-0.2902069,3.5884337,2.552415,2.3873584
1570714895,-0.13467407,8.916,-0.084991455,-1.3566437,-0.9878998,0.12524414,2.035152,0.8186903,-1.4166896
1570714895,-0.4524994,8.404251,0.26815796,-1.4503784,-0.82917786,0.22111511,2.035152,0.8186903,-1.4166896
1570714895,-3.218399,5.866394,3.9929352,-1.3502502,1.319458,1.4845276,-2.018838,-2.7936726,2.6271505
1570714895,0.10534668,8.8884735,1.9662323,-0.3361206,3.070755,0.55241394,1.5956122,-0.16849422,0.44779766
1570714895,0.10534668,8.8884735,1.9662323,-0.3361206,3.070755,0.55241394,1.5956122,-0.16849422,0.44779766
1570714895,-1.2922668,9.660004,0.9828186,-0.5630188,3.3328094,0.35960388,-0.19709921,0.77248096,-0.59862137
1570714895,-1.9626465,8.638275,-1.1055298,-2.0075226,3.9655762,0.3052826,-0.7627053,0.006006241,-2.5877416
1570714895,0.40881348,9.056671,1.4185638,-1.953186,1.8478241,-0.24865723,1.4279627,0.30619526,-1.4037707
1570714895,0.40881348,9.056671,1.4185638,-1.953186,1.8478241,-0.24865723,1.4279627,0.30619526,-1.4037707
1570714895,0.57281494,10.094559,-0.9391327,-0.6418457,-1.2893677,-1.041214,2.2391353,1.5880632,-3.4536126
1570714895,0.2675476,10.006561,-1.2108612,-0.3488922,-3.4678345,-1.0689087,2.1113822,1.9382544,-4.238781
1570714895,0.9870148,10.044281,-1.3658905,-0.71855164,-4.7227173,-0.6151123,2.2444785,1.65483,-4.8433747
1570714895,0.79966736,10.144226,6.1213684,-0.09429932,-0.9793854,-0.33920288,2.1003952,2.0421734,2.7663212
1570714895,-0.25378418,9.323624,0.6961212,0.7611084,1.5250549,0.13163757,1.0238253,1.2948322,-1.2025101
1570714895,1.5741882,12.607864,-1.2790985,0.8122406,1.4025574,0.14868164,2.6192393,3.5644646,-4.1251507
1570714895,1.1725616,15.838242,-1.4431,2.4367676,-0.5095978,-0.04626465,2.763157,6.8004847,-4.7197475
1570714895,-1.406601,10.428543,4.94223,4.508713,-1.3437042,0.3851776,-0.2653303,1.2778473,4.1989393
1570714895,-1.320404,10.428543,4.94223,4.508713,-1.3437042,0.3851776,-0.2653303,1.2778473,4.1989393
1570714895,0.16938782,13.153152,5.0218353,2.1342316,2.2718048,-0.8622589,1.762992,4.1997814,5.676795
1570714895,-3.5218658,10.1586,-4.071335,0.4553833,-0.32424927,0.37664795,-4.088755,1.1144352,-3.412241
1570714895,-3.5218658,10.1586,-4.071335,0.4553833,-0.32424927,0.37664795,-4.088755,1.1144352,-3.412241
1570714895,2.127243,8.53653,3.1795044,1.984024,-1.181778,-0.096328735,3.9674525,-0.10132313,4.9961987
1570714895,1.8992004,9.251801,2.5115204,1.9286346,-0.1665802,0.26585388,3.3467991,-0.06868267,4.626048
1570714895,-2.6629486,5.5371857,1.3766632,2.521988,-2.1149597,0.46826172,-1.3617804,-2.0973444,4.4817142
1570714895,-2.8006134,3.2716827,0.06524658,1.9520721,-1.8987122,0.56733704,-1.4421163,-4.495611,3.3774583
1570714895,-1.9806061,2.9556427,0.45310974,-0.5651398,-0.64915466,0.65467834,-1.0814422,-5.4386225,3.4403543
1570714895,-1.9806061,2.9556427,0.45310974,-0.5651398,-0.64915466,0.65467834,-1.0814422,-5.4386225,3.4403543
1570714896,-1.3443451,3.5906982,0.23762512,-1.61763,0.16897583,0.0155181885,0.035004497,-5.2545023,2.8971233
1570714896,-1.4293365,3.771469,0.14245605,-1.666626,0.24034119,-0.004714966,-0.16351807,-4.970186,2.6663275
1570714896,-1.9440918,15.845428,-5.656906,-1.9883423,1.0467529,-0.2390747,-0.66835177,4.767686,-3.994086
1570714896,-2.111084,17.435776,-6.2829895,-1.7880707,1.1255798,-0.23800659,-0.66835177,4.767686,-3.994086
1570714896,-0.03112793,5.4324493,-1.2180481,0.15603638,-0.77697754,0.20939636,2.0420396,-2.6734447,0.14451432
1570714896,-0.5530548,5.142746,-1.2898712,0.1613617,-0.7290497,0.15400696,1.0900365,-3.2497225,0.11815858
1570714896,-4.8560333,11.875244,2.6862946,-1.141449,-0.18894958,-1.3725128,-1.7601535,2.2934551,1.5325745
1570714896,-10.603317,11.434708,6.321884,-1.1872559,0.6078644,-1.486496,-8.03656,2.56104,7.117715
1570714896,-5.4174805,9.717468,-4.3418884,-1.2511749,1.7466278,-0.23800659,-6.758479,2.1137848,0.38759184
1570714896,-3.3177643,7.1610565,1.6621704,-1.8818207,0.48216248,-0.31150818,-1.3355576,-1.0742073,-2.4546096
1570714896,0.0975647,5.5294037,3.6325989,0.43406677,1.3119965,-0.55226135,1.638873,-2.8738632,4.665174
1570714896,0.3549347,5.3498383,2.2152405,0.5895996,1.1213226,-0.65133667,2.1218123,-3.3754816,3.1097817
1570714896,0.33937073,7.4172363,-1.1300659,-0.17738342,-1.7250671,-0.6950073,2.2881742,-2.000701,-1.0421779
1570714896,1.8160095,11.9279175,5.301956,-0.56088257,-4.479843,-0.3125763,3.867522,3.358508,4.544436
1570714896,-0.08319092,7.186203,4.762665,-2.5795593,1.6209259,0.9167328,3.2298377,-1.071434,3.6146717
1570714896,-1.648407,6.4817047,3.3901825,-2.065033,3.038803,1.6656189,-0.026589155,-2.1532373,1.8598903
1570714896,-0.60214233,6.533783,2.2978363,-1.5792847,3.166626,1.9372559,0.782866,-2.1537514,1.063791
1570714896,0.08200073,9.291901,0.04069519,-1.9009857,3.4425354,1.6049042,1.2370464,-0.3464985,-2.2945666
1570714896,-2.130844,10.386047,-1.8399506,-2.0756989,3.4403992,0.9636078,-0.46113038,2.0609598,-2.909666
1570714896,-2.719818,9.299683,-1.7441711,-2.0234985,2.1759338,0.63656616,-1.3785491,1.265234,-4.8075104
1570714896,-0.7224579,7.6793976,3.9228973,-0.22106934,0.585495,0.0016784668,0.040560365,-0.5326443,0.5416832
1570714896,-0.08679199,9.426575,1.2473755,0.9645691,0.5098572,-0.9080658,1.6780298,0.9440756,-0.756202
1570714896,-1.1719666,9.293686,-0.077804565,0.6854706,0.47151184,-0.91018677,0.74254906,0.8907471,-2.379274
1570714896,-0.5057678,9.843765,1.4317322,-0.22213745,0.23928833,-0.17835999,0.99131536,1.498003,-1.4988124
1570714896,0.588974,9.788696,1.6765442,-0.2562256,0.17536926,0.0155181885,1.8421367,1.4201584,-0.8910289
1570714896,2.2146301,10.698486,-0.81941223,-0.43624878,-0.63423157,-0.047332764,3.9388452,2.3058243,-3.3676853
1570714896,2.7120361,11.062408,-0.5452728,-0.6365204,-1.5737915,-0.015365601,4.279837,2.6466532,-3.600524
1570714896,2.1685486,11.738174,3.3147736,0.46603394,0.060317993,0.17105103,3.6582303,3.2527828,0.16677213
1570714896,0.9906006,11.915939,-1.4048004,3.0215912,-1.7698059,0.7612152,1.9753203,3.3595238,-4.013674
1570714896,1.0127411,11.915939,-1.4048004,3.0215912,-1.7698059,0.7612152,1.9753203,3.3595238,-4.013674
1570714896,-0.5117645,10.676346,4.770447,3.5318604,-2.105362,-0.07928467,0.11545354,1.3798685,3.528421
1570714896,-0.16699219,11.203674,5.452194,3.366745,-1.6792603,-0.2667694,0.2810381,1.8045225,4.2961636
1570714896,-17.220291,6.348831,0.034118652,1.2479401,1.3183899,0.0016784668,-16.005005,-2.0024128,2.2651246
1570714897,-3.3022003,10.704483,-1.1821442,0.35205078,0.29042053,0.4618683,-3.536264,2.4878063,-0.7365074
1570714897,1.7818909,9.362518,3.2980194,1.5632477,-1.677124,-0.08354187,3.0766468,0.6001339,3.24267
1570714897,1.3862457,8.743622,2.1128845,1.6846924,-1.3735352,-0.19859314,2.9073043,0.29379082,4.2131834
1570714897,-3.6314087,6.051941,0.683548,2.5454254,-1.5407715,0.3564148,-1.2754954,-2.0825596,3.9246695
1570714897,-3.6314087,6.051941,0.683548,2.5454254,-1.5407715,0.3564148,-1.2754954,-2.0825596,3.9246695
1570714897,-3.1639404,3.779251,-0.82240295,1.0455322,-1.3351746,0.6152649,-2.3362074,-4.8390684,1.651892
1570714897,-2.7700958,3.842102,-0.4920044,0.45324707,-1.0901642,0.64723206,-1.9450471,-4.732525,1.9085953
1570714897,-1.3922272,3.7780457,0.6218872,-0.97953796,-0.30825806,0.22644043,-0.6285112,-4.9623604,2.8634553
1570714897,-1.3126221,3.9073334,0.5997467,-1.026413,-0.30293274,0.2083435,-0.6285112,-4.9623604,2.8634553
1570714897,-1.1288605,6.0657043,-1.411377,-1.4770203,-0.13249207,0.11566162,-0.3616596,-2.8586912,0.8140898
1570714897,-0.98521423,8.528152,-3.782837,-1.6091003,0.17323303,0.19129944,-0.12890303,-1.1476011,-1.2054591
1570714897,-0.28071594,18.392853,-10.678146,-0.8964386,0.3852234,0.10713196,0.14742184,8.445595,-8.1393385
1570714897,0.7631531,9.545685,-5.517441,-0.30096436,-0.8547516,0.1880951,1.8255322,2.7837105,-6.6316586
1570714897,-2.142807,7.6949615,-2.4085693,-0.6642151,-0.24754333,-0.3413391,-1.0248322,-2.5764036,-1.6484238
1570714897,-11.193497,14.655502,9.048294,-1.3981781,1.5538177,-1.4193878,-9.810425,5.7511797,9.397153
1570714897,-11.171341,11.765701,5.4366302,-0.97953796,2.147171,-0.7376251,-11.078996,3.9459066,7.0169506
1570714897,-3.0729523,5.446808,0.5776062,-0.8080292,2.2036285,-0.13894653,-2.2133522,-3.1853151,1.2429276
1570714897,-1.7214355,6.004654,2.767105,-0.8431854,1.8723297,-0.49047852,-0.3114444,-3.2089567,2.3056333
1570714897,-0.21009827,8.04332,1.194107,-0.5715332,0.42144775,-0.7450714,1.0669397,-0.83937836,1.8035635
1570714897,0.96665955,10.551849,3.3931885,-0.42666626,-2.1788635,-0.8856964,2.9084363,1.7041197,3.0586963
1570714897,0.96665955,10.551849,3.3931885,-0.42666626,-2.1788635,-0.8856964,2.9084363,1.7041197,3.0586963
1570714897,1.6621704,8.658035,2.0171204,-2.2099152,0.14447021,0.75161743,4.264438,0.32347584,-0.13827085
1570714897,1.0414734,8.435974,2.6102753,-2.288742,0.46725464,0.7739868,3.7185743,0.01434803,0.6603013
1570714897,0.48243713,7.2316895,1.6873169,-0.9528961,3.2326813,1.4855957,1.8003536,-1.6997442,0.2064333
1570714897,0.48243713,7.2316895,1.6873169,-0.9528961,3.2326813,1.4855957,1.8003536,-1.6997442,0.2064333
1570714897,-0.44293213,9.631866,-0.51475525,-1.5451965,2.8875275,0.91993713,0.87572694,1.0575266,-2.8301654
1570714897,-0.7362213,8.546707,1.742981,-1.3758087,1.7125397,0.34469604,0.49303174,0.20307732,-1.053473
1570714897,-0.7362213,8.546707,1.742981,-1.3758087,1.7125397,0.34469604,0.49303174,0.20307732,-1.053473
1570714897,-0.9732361,8.551483,0.6260834,-0.62161255,0.92744446,-0.16236877,0.30955422,-0.047822952,-2.0259566
1570714897,-0.75956726,9.223663,0.9391327,-0.59284973,0.6962738,-0.40844727,0.5627341,0.64425087,-2.0342844
1570714897,-0.75956726,9.223663,0.9391327,-0.59284973,0.6962738,-0.40844727,0.5627341,0.64425087,-2.0342844
1570714897,-0.75956726,9.223663,0.9391327,-0.59284973,0.6962738,-0.40844727,0.5627341,0.64425087,-2.0342844
1570714897,-0.75956726,9.223663,0.9391327,-0.59284973,0.6962738,-0.40844727,0.5627341,0.64425087,-2.0342844
1570714897,-0.75956726,9.223663,0.9391327,-0.59284973,0.6962738,-0.40844727,0.5627341,0.64425087,-2.0342844
1570714898,-0.75956726,9.223663,0.9391327,-0.59284973,0.6962738,-0.40844727,0.5627341,0.64425087,-2.0342844
1570714898,-0.75956726,9.223663,0.9391327,-0.59284973,0.6962738,-0.40844727,0.5627341,0.64425087,-2.0342844
1570714898,-0.75956726,9.223663,0.9391327,-0.59284973,0.6962738,-0.40844727,0.5627341,0.64425087,-2.0342844
1570714898,-0.75956726,9.223663,0.9391327,-0.59284973,0.6962738,-0.40844727,0.5627341,0.64425087,-2.0342844
1570714898,-1.7076569,9.572617,3.6547546,4.242386,-2.199112,-0.45213318,-0.97672766,0.56219006,2.3574367
1570714898,-0.7763214,11.161774,3.5511932,4.0282745,-1.036911,-0.97517395,-0.0025862455,1.6512594,2.8530965
1570714898,-2.8933868,10.390839,0.92715454,0.9326172,1.1522064,0.47784424,-4.1717267,0.90612507,2.7544065
1570714898,-1.9788055,10.405792,0.46687317,0.9464569,0.9721832,0.4363098,-2.0386167,1.3565512,1.7733408
1570714898,1.9440918,8.920197,-0.854126,1.4609833,-1.7474365,-0.15492249,3.2995963,0.3296318,-0.23556012
1570714898,1.6334381,10.500366,2.771881,1.980835,-0.4637909,0.41712952,2.983942,1.6084137,4.1261334
1570714898,-1.3730774,8.151657,2.9819794,2.5656586,-1.1412964,0.18170166,0.7089788,-0.042912483,5.07841
1570714898,-3.1669312,3.8648376,0.32859802,0.82395935,-1.0401001,0.5790558,-1.9862001,-4.664633,2.503986
1570714898,-3.162735,3.8002014,0.2813263,0.82395935,-1.0401001,0.5790558,-1.9862001,-4.664633,2.503986
1570714898,-2.2164307,3.4596252,0.52671814,-0.17312622,-0.67045593,0.6909027,-1.1539397,-5.0054264,3.247858
1570714898,-0.95947266,4.529831,-0.07661438,-1.521759,-0.26672363,0.12631226,0.32494438,-4.5459948,2.3846993
1570714898,-0.95947266,4.529831,-0.07661438,-1.521759,-0.26672363,0.12631226,0.32494438,-4.5459948,2.3846993
1570714898,-1.0151367,13.972565,-5.7269287,-1.6059113,0.35327148,-0.018569946,-0.3424778,3.3770409,-4.482689
1570714898,-1.0037689,15.172058,-6.0950317,-1.4620972,0.48002625,-0.06010437,-0.3424778,3.3770409,-4.482689
1570714898,-0.8319855,6.893509,-2.817978,-0.5640869,-0.24008179,0.25733948,0.40633774,-1.7764931,-1.7732714
1570714898,-0.8319855,6.893509,-2.817978,-0.5640869,-0.24008179,0.25733948,0.40633774,-1.7764931,-1.7732714
1570714898,-3.0137024,10.834961,1.8686676,-1.125473,-0.10372925,-0.60020447,-1.108799,0.62183666,0.30304354
1570714898,-9.048889,10.07959,5.644333,-0.6237335,1.6912384,-0.43721008,-7.997422,1.4256067,7.1704636
1570714898,-3.213623,8.12413,-2.0685883,-0.7025604,1.8595428,-0.2657013,-2.8809152,-0.6246977,-0.11450231
1570714898,-2.9622192,8.042725,0.4123993,-1.0072327,1.2992249,-0.4063263,-1.5124882,-0.90473175,-0.9494741
1570714898,-0.40342712,7.0545197,0.8948364,-0.18165588,0.5056,-1.0028687,1.3786999,-1.8505735,1.3902221
1570714898,-0.40342712,7.0545197,0.8948364,-0.18165588,0.5056,-1.0028687,1.3786999,-1.8505735,1.3902221
1570714898,0.12869263,10.616486,1.2479706,-0.08258057,-2.6017761,-0.7120514,2.103541,1.2416315,1.3157437
1570714898,0.111328125,10.631454,1.4251556,-0.40855408,-4.0611877,-0.2859497,2.5092442,2.2201061,1.0192578
1570714898,3.3788147,8.741837,0.8918457,-2.2429352,-2.3738098,0.489563,5.0027194,0.46212482,-2.1243415
1570714898,-0.14425659,6.1920013,3.4895477,-1.2245483,2.515747,1.4845276,1.2817272,-2.4670916,2.2636962
1570714898,0.34117126,7.818268,0.37828064,-0.789917,2.8129578,1.3769379,1.774635,-1.5798388,-0.84051013
1570714898,0.5632324,10.25975,0.50816345,-1.1329346,2.9216156,0.9838562,1.7951566,1.1829767,-1.5596124
1570714899,-1.0295105,9.138672,-0.71347046,-1.0700836,2.0800629,0.38090515,0.2680148,0.54042625,-2.4359448
1570714899,-1.0295105,9.138672,-0.71347046,-1.0700836,2.0800629,0.38090515,0.2680148,0.54042625,-2.4359448
1570714899,-0.9151764,8.716095,1.1983032,-1.2692871,1.4355774,0.08050537,0.27008688,0.24200153,-1.7803853
1570714899,-1.1264648,9.106949,2.0757751,-0.8751373,1.349289,-0.35305786,0.37557244,0.50971127,-0.4578426
1570714899,-2.015915,9.715073,0.23043823,-0.6983032,1.1159973,-0.4649048,-0.27863002,1.0467033,-1.743042
1570714899,-0.49919128,10.135254,0.26216125,-0.6833954,-0.24647522,-0.39460754,0.6178633,1.8749199,-2.990694
1570714899,1.640625,9.970047,-0.21786499,-0.25727844,-1.8614197,-0.4425354,3.135023,1.5777378,-2.9747875
1570714899,1.474823,11.155182,3.7888184,0.40318298,-0.54582214,-0.14320374,2.8878531,2.7282724,0.2878399
1570714899,1.4395142,11.267715,3.9785614,0.5416565,-0.3114624,-0.12722778,2.8878531,2.7282724,0.2878399
1570714899,1.0726013,12.916718,2.2661133,1.9914856,0.84861755,0.11140442,2.550593,4.2425375,0.100714445
1570714899,0.52911377,13.548187,-2.063202,2.9789886,-0.87498474,0.52897644,1.8855838,5.513685,-5.0833635
1570714899,-1.0025787,9.919769,2.7910461,3.8961792,-2.3993835,0.3968811,0.5396781,1.4910126,0.7783892
1570714899,-0.19752502,12.049423,5.787384,3.034378,0.6163788,-0.6438751,0.7726701,2.8337183,5.8639655
1570714899,-1.1522064,11.817184,4.201828,2.4623413,2.116272,-1.1338959,0.5289452,2.6820755,5.588834
1570714899,0.9624634,10.247177,-1.4688416,0.65138245,-2.1160126,0.22111511,1.8096397,1.7518978,-1.6456634
1570714899,0.9624634,10.247177,-1.4688416,0.65138245,-2.1160126,0.22111511,1.8096397,1.7518978,-1.6456634
1570714899,1.0803833,9.433746,1.0001831,1.6548615,-0.1303711,0.6259155,2.4984584,0.31292439,3.2683315
1570714899,0.4447174,9.174576,2.5013428,1.7368927,-0.5213165,0.6099396,2.0446506,0.4656849,3.7446685
1570714899,-2.394806,5.3145294,1.506546,2.396286,-2.0371857,0.5087433,-1.2046875,-2.6945076,4.2350383
1570714899,-2.6749268,3.5787354,-0.25378418,0.17308044,-1.102951,0.92526245,-1.802677,-4.8932076,2.4160595
1570714899,-2.5079193,3.5913086,-0.18914795,0.093185425,-1.0656738,0.9178009,-1.802677,-4.8932076,2.4160595
1570714899,-1.3886414,3.4249115,0.28970337,-0.6599579,-0.49468994,0.630188,-0.7781872,-5.1596565,2.3698535
1570714899,-1.4257507,5.4132843,-0.3932495,-1.7433319,0.17216492,-0.015365601,-0.51822054,-3.624217,1.7565554
1570714899,-1.4257507,5.4132843,-0.3932495,-1.7433319,0.17216492,-0.015365601,-0.51822054,-3.624217,1.7565554
1570714899,-1.9129639,9.825211,-4.589081,-1.920166,0.22756958,-0.096328735,-1.1601863,0.20056057,-2.210061
1570714899,-1.5706024,19.612701,-8.256409,-0.7174835,-0.2454071,-0.12402344,-0.72606796,9.446479,-5.629833
1570714899,2.5390472,7.476486,-3.257309,-0.26687622,-1.0688629,0.45973206,4.0631146,-0.39977932,-3.521627
1570714899,-1.8956146,5.9274445,-2.6755219,-0.4607544,-0.05899048,-0.06010437,-0.90154517,-3.3128414,-1.6248701
1570714899,-5.557541,14.036011,4.538803,-1.61763,0.9444885,-1.6665344,-2.1156821,4.2700987,2.4824023
1570714899,-11.596313,12.981369,4.660309,-0.6983032,1.3844452,-0.7589264,-11.216575,4.4368486,5.562805
1570714899,-1.5394745,5.893921,3.3141785,-0.51934814,1.3791199,-0.49899292,-0.22524619,-3.1195612,3.2819664
1570714899,-1.5394745,5.893921,3.3141785,-0.51934814,1.3791199,-0.49899292,-0.22524619,-3.1195612,3.2819664
1570714899,-1.0941467,6.3655853,3.580536,-0.101760864,1.239563,-0.6012573,0.3542552,-2.5319986,4.1132116
1570714900,0.3818817,11.75972,2.5809479,-0.6279907,-3.3112488,-0.76104736,2.530573,2.7476063,2.05441
1570714900,0.27893066,11.674133,2.557602,-0.6514282,-3.4518585,-0.7312317,2.4092264,2.960349,2.3747358
1570714900,-0.7296295,7.2795715,5.438431,-2.4197693,0.60679626,0.75161743,2.8332734,-0.76150036,3.7439613
1570714900,-0.7296295,7.2795715,5.438431,-2.4197693,0.60679626,0.75161743,2.8332734,-0.76150036,3.7439613
1570714900,-0.45489502,6.605011,4.05278,-1.61763,2.7799377,1.5516357,0.8419492,-1.9023008,2.6951456
1570714900,0.39204407,7.305908,0.3830719,-1.0093689,3.0952606,1.5441742,1.7709311,-1.7966452,-0.92542386
1570714900,-0.82839966,9.418198,-0.7511749,-2.127884,2.3037567,0.72180176,0.46722507,1.2119875,-3.4484992
1570714900,-0.82839966,9.418198,-0.7511749,-2.127884,2.3037567,0.72180176,0.46722507,1.2119875,-3.4484992
1570714900,-1.3233948,8.5568695,2.2679138,-1.5260162,1.4877777,0.37345886,-0.27718842,-0.06280327,-0.84135246
1570714900,0.2747345,8.904633,1.8285675,-0.3680725,0.8965454,-0.40205383,1.3692548,0.4986229,-1.0590541
1570714900,0.41958618,9.217072,1.4921875,0.083602905,0.24247742,-0.8643799,1.8176564,0.8650875,-1.5579152
1570714900,-0.6218872,9.971252,0.106536865,0.3350067,-0.77697754,-0.92404175,0.9530604,1.4093246,-2.6066926
1570714900,0.7978668,9.239227,3.0460205,-0.06021118,-0.4637909,-0.24440002,2.471519,1.1681566,-0.18609619
1570714900,0.78948975,9.23085,3.0484161,-0.047424316,-0.34661865,-0.19966125,2.471519,1.1681566,-0.18609619
1570714900,2.0805664,11.675919,1.5843658,-0.012268066,0.9530029,0.40115356,3.444514,2.9211254,-1.2108178
1570714900,2.7407684,11.375458,1.2832947,0.7845459,0.5215759,0.6440277,4.144847,3.0837326,-1.1903791
1570714900,2.692276,12.378616,-1.6262665,1.2681732,-0.64701843,0.81340027,4.154115,3.5953312,-3.5956347
1570714900,1.059433,11.566986,-0.8349762,1.4769592,-2.678482,0.6376343,3.1024532,3.671464,-4.551649
1570714900,-2.178131,10.206482,2.7263947,2.745697,-2.7892609,0.32658386,-1.6202543,1.2122669,0.44528866
1570714900,-1.122879,11.0468445,3.6362,3.6831207,-2.009491,-0.52563477,-0.7073369,1.8278475,2.690854
1570714900,-7.585434,11.216827,1.4945831,2.2961578,1.385498,-1.580246,-4.252493,2.8150616,3.3025572
1570714900,-10.202286,9.298477,1.5322876,0.9176941,1.0041351,0.3191223,-11.167631,-0.3813858,1.4776006
1570714900,1.7058716,8.438965,4.609436,1.3448792,-1.9008331,-0.049453735,3.0849948,-0.22136116,4.17966
1570714900,1.7058716,8.438965,4.609436,1.3448792,-1.9008331,-0.049453735,3.0849948,-0.22136116,4.17966
1570714900,-1.2228394,7.487274,3.0274658,2.349411,-1.0624695,0.2083435,1.293135,-0.7068167,4.411928
1570714900,-2.90477,4.203018,-1.0157471,1.5653839,-1.2669983,0.39794922,-2.0271971,-4.4276133,1.2188342
1570714900,-2.90477,4.203018,-1.0157471,1.5653839,-1.2669983,0.39794922,-2.0271971,-4.4276133,1.2188342
1570714900,-2.0446472,3.0388336,0.10235596,-0.0655365,-0.43077087,0.2861023,-1.1724283,-5.131754,3.0633895
1570714900,-2.2876587,2.834137,-0.9744415,-0.1401062,-0.39881897,0.27012634,-1.1480799,-5.47482,2.8853176
1570714900,-1.1522064,4.4143066,0.49739075,-1.3747406,-0.21238708,0.08050537,-0.23707664,-4.62733,2.726987
1570714900,-1.6819305,9.495407,-3.2555084,-1.6240234,0.27656555,0.2349701,-0.81617016,-0.03488636,-1.2309785
1570714900,-1.6819305,9.495407,-3.2555084,-1.6240234,0.27656555,0.2349701,-0.81617016,-0.03488636,-1.2309785
1570714900,2.2080536,9.933548,-7.3986816,-0.344635,-0.7428894,0.27651978,3.3447075,2.5469627,-8.105485
1570714900,1.8501129,9.036316,-6.335663,-0.35635376,-0.6832428,0.24880981,3.3447075,2.5469627,-8.105485
1570714901,-3.3452911,7.1700287,-0.45429993,-0.90922546,-0.3434143,-0.4925995,-2.674448,-2.4700432,-0.19756287
1570714901,-3.408142,7.7859497,-0.0047912598,-0.95928955,-0.31253052,-0.5501251,-2.674448,-2.4700432,-0.19756287
1570714901,-8.10257,12.791016,3.4087372,-0.32865906,2.7256012,-0.57995605,-7.6339374,4.2881002,5.679
1570714901,-8.10257,12.791016,3.4087372,-0.32865906,2.7256012,-0.57995605,-7.6339374,4.2881002,5.679
1570714901,-2.5821533,9.044098,-4.8560333,-0.9198761,2.1354523,-0.52882385,-1.8826517,0.1724844,-3.1845107
1570714901,-1.5765839,6.4655457,3.8552704,-1.1936493,0.15618896,-0.45532227,-1.0569249,-2.1818914,2.413207
1570714901,0.27893066,9.371506,3.0017242,-0.29136658,-3.0736847,-0.8089905,2.2449276,-0.8658333,1.3280654
1570714901,0.18675232,9.7378235,3.3470917,-0.3361206,-3.123764,-0.77490234,2.1788962,0.3176012,2.3397846
1570714901,2.2583313,9.312241,3.344696,-2.0884705,-0.10267639,0.7175293,4.187887,0.97230816,1.7251168
1570714901,2.2583313,9.312241,3.344696,-2.0884705,-0.10267639,0.7175293,4.187887,0.97230816,1.7251168
1570714901,-0.11013794,6.0459595,-0.3531494,-0.64398193,3.1154938,1.795578,0.9750265,-3.1422129,-1.061324
1570714901,-0.07661438,6.1770477,-0.67277527,-0.7132263,3.1794128,1.7891846,1.0236498,-2.7940903,-1.8844116
1570714901,-0.17417908,9.252396,1.5113373,-1.106308,3.0174866,0.43417358,1.1822292,0.9087763,0.3538506
1570714901,-0.17417908,9.252396,1.5113373,-1.106308,3.0174866,0.43417358,1.1822292,0.9087763,0.3538506
1570714901,-1.1390381,8.708908,-1.6765442,-1.172348,2.1780548,0.21792603,-0.110614,0.1940794,-3.8998225
1570714901,-0.5686188,8.395264,2.4139557,-1.0668793,1.159668,-0.1410675,0.45840657,-0.030478477,-0.6380482
1570714901,-0.71047974,9.855133,0.9289551,-0.27113342,0.8890991,-0.6438751,0.7626691,1.0662355,-0.9792819
1570714901,-1.0271149,10.45369,-1.0378876,-0.5161438,-0.25286865,-0.60232544,0.1998887,1.877203,-4.009041
1570714901,2.7593231,10.058044,-0.36631775,-0.41706848,-2.5527802,-0.38500977,3.7836244,1.6514511,-3.3775382
1570714901,2.8515015,10.075394,-0.34655762,-0.4426422,-2.5474548,-0.38182068,4.0747395,1.7634964,-3.5302465
1570714901,2.1721344,10.806824,2.2936401,-0.5417175,-1.1647339,-0.21670532,3.6797602,2.2624474,-2.026116
1570714901,2.0057373,10.981003,4.186264,0.60983276,0.59614563,0.0826416,3.3252494,2.8261814,0.881104
1570714901,1.5310974,13.483551,-0.66677856,3.067398,-1.9839325,0.72817993,2.7858868,5.151657,-3.867273
1570714901,1.5310974,13.483551,-0.66677856,3.067398,-1.9839325,0.72817993,2.7858868,5.151657,-3.867273
1570714901,0.09996033,13.506287,5.213379,3.1675415,-0.5948181,-0.7727661,0.55502987,3.8426676,4.3702583
1570714901,0.09996033,13.506287,5.213379,3.1675415,-0.5948181,-0.7727661,0.55502987,3.8426676,4.3702583
1570714901,-17.149673,6.9312134,2.1134796,2.0095978,1.8925781,-0.8420105,-13.639409,-0.64110565,3.6228223
1570714901,-4.6064453,10.115509,-1.821991,0.5097046,1.4749908,0.30421448,-5.4200993,1.5809431,-0.597784
1570714901,2.5097198,7.961914,4.739914,1.7635193,-2.1479797,-0.33920288,3.3633385,-0.8830414,3.4930172
1570714901,-1.3503265,7.739853,2.41156,2.4325104,-0.943161,0.14974976,2.149136,0.24051571,4.5709286
1570714901,-1.7214355,7.286148,2.1056976,2.44635,-1.0113373,0.17105103,0.11441934,-0.84643173,4.4445133
1570714901,-2.952057,3.4225159,-0.26934814,1.8253021,-1.4502258,0.30207825,-1.5482887,-4.944316,2.0958962
1570714901,-3.0196838,2.5725708,0.42915344,0.15284729,-1.0433044,0.522583,-1.9949241,-5.94306,3.175382
1570714901,-2.372055,2.913147,0.48721313,-0.5363922,-0.71733093,0.36706543,-1.3989296,-5.566411,3.1043615
1570714902,-1.7705078,2.8712463,0.77153015,-1.0168152,-0.4829712,0.16253662,-0.8431119,-5.5650606,3.1965153
1570714902,-2.110489,9.976639,-6.1884155,-2.1225586,0.6408844,0.1060791,-0.88588166,0.13295555,-3.5687833
1570714902,-2.072174,11.121063,-6.7336884,-2.0607758,0.60679626,0.10926819,-0.88588166,0.13295555,-3.5687833
1570714902,-0.17597961,7.392105,-2.881424,0.104904175,-0.75886536,0.37451172,1.0786777,-0.6516237,-2.0360293
1570714902,-0.17597961,7.392105,-2.881424,0.104904175,-0.75886536,0.37451172,1.0786777,-0.6516237,-2.0360293
1570714902,-2.8083954,8.932175,-1.742981,-0.6695404,-0.5639343,-0.46810913,-1.7869837,-1.2468662,-1.1745902
1570714902,-3.7978058,11.121063,0.52493286,-1.0210876,-0.1538086,-0.818573,-1.8772746,0.5260849,-0.24268734
1570714902,-3.2878418,7.5052185,0.93792725,-1.1595612,1.9522247,-0.20285034,-3.3604903,-0.23450947,1.642309
1570714902,-3.2878418,7.5052185,0.93792725,-1.1595612,1.9522247,-0.20285034,-3.3604903,-0.23450947,1.642309
1570714902,-1.9357147,6.0381775,4.3185425,-0.5853882,1.688034,-0.40419006,-0.63217485,-2.7696352,4.106232
1570714902,0.056869507,7.3070984,-0.28431702,-0.38085938,-0.8675232,-0.70033264,1.5771053,-1.9002466,0.009703666
1570714902,0.056869507,7.3070984,-0.28431702,-0.38085938,-0.8675232,-0.70033264,1.5771053,-1.9002466,0.009703666
1570714902,0.1945343,12.061981,4.1282043,-0.83465576,-2.7040405,-0.55758667,2.3176715,3.1104717,3.920422
1570714902,2.553421,9.945511,-0.88645935,-1.9244232,-1.3703308,0.38197327,4.4174805,1.7486248,-1.6419301
1570714902,-0.47166443,6.383545,3.3488922,-1.9212341,3.229477,1.3684082,1.0754731,-2.4073248,2.2736878
1570714902,-0.47166443,6.383545,3.3488922,-1.9212341,3.229477,1.3684082,1.0754731,-2.4073248,2.2736878
1570714902,0.31604004,7.967911,-1.0576324,-1.3864594,3.0590363,1.5963745,1.7112694,-1.1568022,-2.5136914
1570714902,0.4925995,9.786301,-1.2773132,-1.6389313,2.655304,1.2895813,1.8146894,0.81363964,-3.09479
1570714902,-0.31843567,8.629303,1.383255,-1.0487823,0.6920166,0.17425537,0.6033039,0.17897606,-1.7266984
1570714902,-0.31843567,8.629303,1.383255,-1.0487823,0.6920166,0.17425537,0.6033039,0.17897606,-1.7266984
1570714902,-0.97802734,9.443924,0.32081604,0.17308044,-0.27630615,-0.6832886,0.6367167,0.9603987,-1.9373019
1570714902,-1.1109161,9.515747,5.950928E-4,0.09957886,-0.2922821,-0.68222046,0.423097,1.021678,-2.3369212
1570714902,0.43814087,9.462479,2.0679932,-0.22213745,-0.2869568,-0.21456909,1.7553718,1.0848179,-0.6719301
1570714902,0.43814087,9.462479,2.0679932,-0.22213745,-0.2869568,-0.21456909,1.7553718,1.0848179,-0.6719301
1570714902,1.2276306,9.586975,-0.46087646,-0.27859497,-0.4925537,0.028305054,2.4254556,1.0777416,-2.7770987
1570714902,1.585556,12.032059,2.9867706,-0.03465271,-0.11651611,0.07197571,2.9149008,3.067603,-0.45112085
1570714902,1.5251007,12.601883,3.12323,0.23699951,-0.048339844,0.1060791,2.9055152,3.5801697,-0.15643072
1570714902,0.7116699,12.030869,0.043701172,3.1206665,-1.8529053,0.630188,1.9888463,3.9722776,-2.7067182
1570714902,0.032318115,11.306015,1.0312958,3.283661,-2.042511,0.6152649,1.5170455,3.1027603,-1.8240628
1570714902,-0.4524994,10.936707,3.6697083,3.5137482,-0.9953613,0.32232666,-0.018176675,1.5920162,2.8826683
1570714902,0.065841675,13.069351,4.5280304,2.5124054,0.13168335,-0.7653198,0.92502666,3.9441385,3.794348
1570714902,-5.191223,11.039658,-4.194641,0.6407318,0.80067444,0.5641327,-9.437927,0.08562565,0.086372495
1570714902,-5.191223,11.039658,-4.194641,0.6407318,0.80067444,0.5641327,-6.2637463,1.3724957,-2.5578105
1570714903,0.6033325,8.921387,4.068344,2.394165,-2.5634308,-0.6055298,1.960493,0.08465862,5.0667725
1570714903,2.8042145,11.265915,4.126999,2.7424927,-0.6608734,0.10501099,3.719943,2.3924131,5.775278
1570714903,-2.6270447,4.423889,-0.67456055,2.001068,-1.1370392,0.45973206,-1.6292288,-3.708047,1.6937928
1570714903,-2.7329865,4.229355,-0.73921204,1.8881531,-1.1178589,0.47572327,-1.3729191,-4.071458,1.8883233
1570714903,-2.4043732,3.759491,0.008972168,0.55337524,-0.96873474,0.74417114,-1.319849,-4.694108,2.7990248
1570714903,-0.97802734,3.237564,0.95648193,-0.5587616,-0.59375,0.46080017,-0.17547792,-5.13159,3.5581071
1570714903,-0.74998474,2.7844543,0.6314697,-1.0083008,-0.44248962,0.27757263,0.21276522,-5.770013,3.5404305
1570714903,-1.1354523,3.2459412,-0.10354614,-1.3385315,-0.17085266,0.23071289,-0.10455024,-5.5302935,2.5482605
1570714903,1.893219,19.594742,-16.393097,-0.7536926,-0.5213165,-0.06756592,0.904138,10.344125,-12.551641
1570714903,1.893219,19.594742,-16.393097,-0.7536926,-0.5213165,-0.06756592,0.904138,10.344125,-12.551641
1570714903,0.46028137,11.241379,-3.751114,-0.43411255,-0.65448,0.17637634,2.0266442,5.1758795,-4.4548974
1570714903,-3.408142,4.222168,-4.5034943,-0.24769592,-0.15167236,0.14654541,-2.4431567,-4.345831,-3.1729846
1570714903,-3.210617,9.475052,0.8265991,-0.8730011,0.2840271,-0.34773254,-2.4416456,-1.1079769,1.1448087
1570714903,-12.566559,13.497314,2.9161377,-1.2927246,2.7085571,-1.1466827,-11.715517,5.037347,5.0201373
1570714903,-1.3533173,6.4044952,8.292923,-0.6418457,1.6230621,-0.44041443,0.010974288,-2.3810396,7.733785
1570714903,-1.1564026,6.3889313,8.112152,-0.4969635,1.76474,-0.4617157,0.06732702,-2.4739294,8.5518055
1570714903,-0.20291138,7.3621674,2.7521362,-5.493164E-4,2.289917,-0.8601227,1.490392,-1.6630802,3.6736164
1570714903,0.32859802,8.037338,0.826004,-0.8240051,-0.38710022,-0.5874176,1.936185,-1.3635178,0.69206333
1570714903,0.8571167,10.696091,3.7265778,-0.3872528,-2.0808716,-0.38500977,4.003534,2.8377953,4.305173
1570714903,0.8571167,10.696091,3.7265778,-0.3872528,-2.0808716,-0.38500977,4.003534,2.8377953,4.305173
1570714903,2.4540558,9.121307,-2.4241333,-2.3292236,-0.45207214,0.4863739,4.408306,0.8102627,-3.8868353
1570714903,-0.854126,7.499832,3.8061829,-2.175827,3.6672974,1.8275452,0.17167568,-1.3781214,2.3063657
1570714903,-0.6907196,7.513611,3.5877075,-2.092743,3.754654,1.826477,0.17167568,-1.3781214,2.3063657
1570714903,0.9576874,8.245636,1.6932983,-1.1531677,3.9996643,1.2480316,2.2084062,-0.4887066,0.11454713
1570714903,0.18614197,9.433151,-0.6685791,-1.172348,1.2736511,0.39901733,1.2935023,0.8502836,-3.4076686
1570714903,0.16041565,9.355942,-0.40940857,-1.1446533,1.1170654,0.35321045,1.2935023,0.8502836,-3.4076686
1570714903,-0.50038147,8.804077,1.9039917,-0.3819275,-0.18789673,-0.19326782,0.68307936,0.18479633,-0.6537292
1570714903,-0.81822205,9.23085,1.3090363,-0.37660217,0.07096863,-0.4297638,0.44610155,0.701561,-1.07568
1570714903,-0.20948792,9.550476,2.0308838,-0.4181366,0.53648376,-0.560791,0.9604595,1.1059275,-0.74069214
1570714903,0.32022095,10.0742035,0.47105408,-0.1592865,0.24354553,-0.45318604,1.8740493,1.6115036,-1.9569242
1570714903,1.5568237,9.931747,1.2300262,-0.26367188,-0.89523315,0.055999756,2.901089,1.6756296,-1.8314466
1570714903,1.5568237,9.931747,1.2300262,-0.26367188,-0.89523315,0.055999756,2.901089,1.6756296,-1.8314466
1570714903,1.8554993,11.951263,2.2966309,-0.19763184,-0.52557373,0.07518005,3.4909391,2.8058748,-0.76127887
1570714904,2.7359772,14.577103,-0.30465698,1.4332886,-0.9442291,0.45228577,4.12502,6.2416077,-2.3495975
1570714904,2.7605133,14.417877,-0.8708954,1.5078583,-1.056076,0.50660706,4.12502,6.2416077,-2.3495975
1570714904,-1.6208801,9.293686,0.9618683,2.697754,-2.8180237,0.32551575,0.15179676,0.99295425,-2.0185993
1570714904,-1.2988586,9.171585,3.3889923,3.8993835,-2.6742096,-0.37435913,-0.8726363,0.17544651,1.852059
1570714904,-0.5087738,10.51593,4.0701447,3.4647522,-1.6781921,-1.2031403,0.39790136,1.1626911,3.1880925
1570714904,-1.9075775,12.143387,-1.5723877,1.408783,1.5815125,0.42245483,-4.0064926,2.5994015,0.519405
1570714904,-1.9075775,12.143387,-1.5723877,1.408783,1.5815125,0.42245483,-4.0064926,2.5994015,0.519405
1570714904,0.7852936,7.8176727,4.478958,1.1201019,-0.5649872,0.16253662,2.200172,-1.2468586,5.1425915
1570714904,0.7852936,7.8176727,4.478958,1.1201019,-0.5649872,0.16253662,2.200172,-1.2468586,5.1425915
1570714904,0.6889343,10.27771,2.7964325,1.9424896,-0.60121155,0.56733704,2.0893557,1.9896908,3.4345536
1570714904,-2.9161377,3.067566,-0.7631531,1.6165161,-1.4321136,0.5779877,-1.8850169,-5.1761713,1.7413874
1570714904,-2.9161377,3.067566,-0.7631531,1.6165161,-1.4321136,0.5779877,-1.8275828,-5.4236193,1.8223546
1570714904,-1.4179688,3.10289,0.64164734,-0.7622223,-0.5202484,0.6131439,-0.62043905,-5.38029,3.2229433
1570714904,-1.2880859,3.0986938,0.6823425,-0.82507324,-0.52770996,0.58543396,-0.62043905,-5.38029,3.2229433
1570714904,-1.5251007,5.7622375,-1.3581085,-1.7827454,-0.28588867,0.0155181885,-0.4602747,-3.6603308,1.5443074
1570714904,-1.5251007,5.7622375,-1.3581085,-1.7827454,-0.28588867,0.0155181885,-0.5710335,-3.2364902,0.9504936
1570714904,3.0190887,19.612106,-19.05246,-0.26261902,0.5332947,0.30847168,2.667498,10.824594,-15.284799
1570714904,3.5368347,19.612701,-19.482819,-0.29457092,0.19985962,0.3564148,2.667498,10.824594,-15.284799
1570714904,-3.2082367,3.8289337,-3.3303375,-0.26367188,-0.8270416,-0.0025787354,-2.1427493,-4.9409,-2.0986114
1570714904,-3.2082367,3.8289337,-3.3303375,-0.26367188,-0.8270416,-0.0025787354,-2.469747,-4.9973783,-2.0290895
1570714904,-9.506775,11.664551,6.2554474,-1.2202911,1.8829803,-1.3512115,-7.6676702,2.9363136,7.7303066
1570714904,-9.506775,11.664551,6.2554474,-1.2202911,1.8829803,-1.3512115,-7.6676702,2.9363136,7.7303066
1570714904,-3.0017242,7.6853943,2.787445,-1.6314697,1.5484924,-0.6374817,-1.2462773,-1.1408539,1.4319928
1570714904,-3.0017242,7.6853943,2.787445,-1.6314697,1.5484924,-0.6374817,-1.2462773,-1.1408539,1.4319928
1570714904,0.5105591,6.3159027,-1.0181274,0.051635742,-0.7716522,-0.642807,2.271892,-2.2790642,-0.5528065
1570714904,0.5105591,6.3159027,-1.0181274,0.051635742,-0.7716522,-0.642807,2.271892,-2.2790642,-0.5528065
1570714904,0.34117126,10.880447,1.783081,-0.77500916,-3.047058,-0.3828888,2.5510297,2.876995,2.647856
1570714904,0.34117126,10.880447,1.783081,-0.77500916,-3.047058,-0.3828888,2.5510297,2.876995,2.647856
1570714904,-1.1132965,6.510437,3.8851929,-1.7348022,1.9468994,1.2554932,1.0932306,-1.6374664,2.7962885
1570714904,-1.1132965,6.510437,3.8851929,-1.7348022,1.9468994,1.2554932,1.0932306,-1.6374664,2.7962885
1570714904,1.0612335,9.364319,0.6661835,-0.92414856,3.2358704,1.2160797,2.1558444,0.26384926,-0.6700846
1570714904,1.0612335,9.364319,0.6661835,-0.92414856,3.2358704,1.2160797,2.1558444,0.26384926,-0.6700846
1570714904,-0.8852539,8.871109,-0.03831482,-1.6921997,2.3836517,0.4118042,0.19532156,0.41907215,-2.5175607
1570714904,-0.8852539,8.871109,-0.03831482,-1.6921997,2.3836517,0.4118042,0.19532156,0.41907215,-2.5175607
1570714905,-0.83618164,9.473862,-0.17178345,-0.7909851,0.72184753,-0.44892883,0.48953676,0.8567791,-2.3077178
1570714905,-0.89004517,9.455902,-0.33398438,-0.7931061,0.62916565,-0.4862213,0.48953676,0.8567791,-2.3077178
1570714905,0.3645172,10.418961,1.2288208,-0.32759094,-1.454483,-0.7067261,1.6378361,1.8666649,-1.7144635
1570714905,0.3645172,10.418961,1.2288208,-0.32759094,-1.454483,-0.7067261,1.6378361,1.8666649,-1.7144635
1570714905,2.0332794,10.602127,2.6276398,0.10171509,-0.1538086,-0.061172485,3.1166303,2.1434793,-0.5412996
1570714905,2.0332794,10.602127,2.6276398,0.10171509,-0.1538086,-0.061172485,3.1166303,2.1434793,-0.5412996
1570714905,2.8042145,11.459244,-0.17237854,1.4503326,0.4885559,0.22964478,4.0634537,2.880145,-2.5073533
1570714905,2.8042145,11.459244,-0.17237854,1.4503326,0.4885559,0.22964478,4.0634537,2.880145,-2.5073533
1570714905,-1.4263458,9.877884,1.7974396,2.7840424,-3.0715637,0.12312317,0.29440916,1.498146,-0.7962004
1570714905,-1.7483673,10.308243,3.8205414,3.7928467,-2.4206848,0.026184082,-1.0669842,1.0975533,2.5699635
1570714905,-1.6992798,12.288239,2.7880554,2.6370392,1.4600677,-1.0966187,-0.07502633,3.6080437,4.6257176
1570714905,-1.6992798,12.288239,2.7880554,2.6370392,1.4600677,-1.0966187,-0.07502633,3.6080437,4.6257176
1570714905,0.056869507,10.468048,-1.5825653,0.92622375,-0.75886536,0.42991638,0.4642502,1.7013264,-0.8282902
1570714905,0.056869507,10.468048,-1.5825653,0.92622375,-0.75886536,0.42991638,0.4642502,1.7013264,-0.8282902
1570714905,1.1121063,9.525925,1.4664459,1.5952148,-0.3860321,0.90182495,2.1948843,0.27847767,2.468316
1570714905,1.1121063,9.525925,1.4664459,1.5952148,-0.3860321,0.90182495,2.1948843,0.27847767,2.468316
1570714905,-2.6856995,3.8259277,-0.55844116,1.4013367,-1.6483612,0.47677612,-1.7000225,-4.6575556,1.7917156
1570714905,-2.6856995,3.8259277,-0.55844116,1.4013367,-1.6483612,0.47677612,-1.7000225,-4.6575556,1.7917156
1570714905,-1.6771393,2.6156616,0.7846985,-0.6737976,-0.78230286,0.39901733,-0.97304386,-5.7079773,3.3778298
1570714905,-1.6771393,2.6156616,0.7846985,-0.6737976,-0.78230286,0.39901733,-0.97304386,-5.7079773,3.3778298
1570714905,-0.93852234,3.9288788,0.21128845,-1.7859344,-0.4595337,-0.055847168,0.022484899,-4.9165583,2.3980913
1570714905,-0.93852234,3.9288788,0.21128845,-1.7859344,-0.4595337,-0.055847168,0.022484899,-4.9165583,2.3980913
1570714905,-1.5592194,10.190918,-4.965576,-2.0373383,0.14872742,-0.094192505,-0.6798555,-0.7090988,-2.222558
1570714905,1.2000885,11.670532,-5.7921753,0.20291138,-1.322403,0.6621399,1.8168478,8.278114,-8.500066
1570714905,-0.06463623,5.388153,-1.359909,0.39572144,-0.68003845,0.5737152,1.5998852,-2.1209555,-0.41048658
1570714905,-2.640213,3.0729523,-2.874237,0.17201233,-1.3128052,0.28289795,-1.492286,-5.1300745,-1.1833131
1570714905,-1.6490021,3.094513,2.3672638,-0.4138794,-0.98683167,-0.045196533,-1.1773615,-5.9981127,2.1555858
1570714905,-5.4641724,10.98938,5.865799,-2.0149689,2.3964386,-1.3000793,-2.7048035,0.8277855,6.7138476
1570714905,-10.834366,17.566254,2.3930054,-1.6815491,3.037735,-0.49047852,-13.197464,9.94233,4.0483074
1570714905,-3.2196045,8.737045,-1.0684052,-2.4527893,-0.2368927,-0.69181824,-1.1995387,0.9800806,-4.3737063
1570714905,-1.3856506,6.7570343,6.296158,-1.3960571,-0.4882965,-0.18154907,-0.6637558,-1.8857946,5.2483096
1570714905,-1.0037689,3.7546997,-1.0085602,0.73127747,-1.0539551,-0.9389496,1.3308043,-4.863265,0.110788494
1570714905,-0.3136444,9.139267,1.2922668,-0.0463562,-2.6997833,-0.27848816,0.40530992,-2.596795,0.622137
1570714906,-0.9929962,13.362045,4.440048,-0.3307953,-2.4121552,-0.22628784,1.2905527,4.8294487,4.6569877
1570714906,1.272522,7.163452,5.648514,-1.8743591,1.5229187,1.127655,3.2136998,-1.192131,3.8086376
1570714906,1.272522,7.163452,5.648514,-1.8743591,1.5229187,1.127655,3.2136998,-1.192131,3.8086376
1570714906,0.35554504,4.8566437,2.9640198,-1.0370636,3.325348,1.4344635,1.495299,-3.5364513,2.0343752
1570714906,1.1139069,9.375687,2.1332397,-1.2362671,4.595154,1.3066254,2.4225087,-0.15431976,1.2568015
1570714906,0.48303223,11.412567,-2.4726105,-1.7188263,4.2723694,0.9146118,1.5206974,2.7375517,-3.3495293
1570714906,-0.9211731,9.303864,-1.7962494,-2.859726,2.5178833,0.31700134,0.26810092,0.92867756,-5.3471594
1570714906,-0.2735443,8.313263,2.592926,-1.5111084,0.82624817,-0.0814209,0.68710685,0.020430565,-0.5566473
1570714906,0.7050934,9.138672,2.0386658,-0.32865906,0.076293945,-0.49047852,1.5019573,0.3634796,-0.4666083
1570714906,-0.07122803,9.938934,-1.6502075,0.24551392,-0.99642944,-1.05719,1.4613886,1.4961805,-4.446473
1570714906,0.10295105,10.362701,1.0343018,-0.13796997,-1.6142731,-0.69714355,1.1811444,2.1813116,-2.6060026
1570714906,1.8471222,10.517731,0.885849,0.052703857,1.303482,0.30740356,3.1028662,1.8386679,-2.0264742
1570714906,1.8471222,10.517731,0.885849,0.052703857,1.303482,0.30740356,3.1028662,1.8386679,-2.0264742
1570714906,2.6276398,12.076355,0.31723022,1.1765594,0.31384277,0.38090515,3.8825788,3.5035515,-2.0326605
1570714906,2.561203,12.103287,0.09516907,1.279892,0.16044617,0.39369202,4.012979,3.6301403,-2.3310254
1570714906,0.8894501,11.848312,-0.33937073,2.4165344,-2.5325317,0.5385742,2.4801521,3.6188698,-3.2002592
1570714906,-2.442093,9.637863,2.0338745,3.3241272,-2.5272064,0.5119324,-1.5377626,0.98357964,0.16295671
1570714906,-0.12808228,11.28746,3.4356842,3.8514404,-1.8049622,-0.033477783,0.3236068,2.137597,2.6008444
1570714906,-1.6609802,12.829926,3.4374695,2.5464935,1.4419708,-1.6058044,-0.261366,4.0094643,5.0719194
1570714906,-11.024704,7.9188232,1.3838501,1.074295,1.7540894,0.45014954,-12.280921,-1.7090235,2.7467957
1570714906,2.506134,10.187332,-2.7730865,0.4638977,-0.30932617,0.45014954,1.8790438,1.3485928,-1.0016171
1570714906,4.2227783,9.228455,5.1690826,1.1882782,-1.9349213,0.34042358,5.1572027,-0.022542953,5.063106
1570714906,3.7229767,11.110886,1.8914185,1.9307709,-0.77911377,0.6355133,4.5957284,2.1270924,3.1897774
1570714906,-3.6002808,3.9210968,-1.0474701,2.2556763,-2.186325,0.17105103,-2.3945627,-4.2853565,1.6210737
1570714906,-3.4488525,3.605667,0.40821838,0.5278168,-1.1732635,0.60354614,-2.516945,-4.810507,3.1739864
1570714906,-3.4488525,3.605667,0.40821838,0.5278168,-1.1732635,0.60354614,-2.516945,-4.810507,3.1739864
1570714906,-0.87986755,3.5715485,0.99539185,-0.5715332,-0.6459503,0.45228577,0.0078495145,-4.8773317,3.723183
1570714906,-0.5925598,3.4877472,1.3904266,-0.7494354,-0.68536377,0.41712952,0.3191325,-4.9244413,3.9543397
1570714906,-0.6643982,4.400543,0.27174377,-1.2256165,-0.62464905,0.21260071,0.4063849,-4.4698696,2.952478
1570714906,-2.2008667,9.343369,-4.256897,-1.680481,0.7719116,0.2722473,-1.2353548,-0.7911148,-1.6072822
1570714906,-2.2918549,18.412613,-13.555374,-1.1116333,2.0726013,0.59609985,-1.6949008,6.812216,-6.274576
1570714906,4.973358,19.118301,-13.027451,-1.0359955,-1.0177307,0.6525574,4.7470407,10.81987,-15.086934
1570714906,1.9716187,9.5642395,-1.7004852,-0.50335693,-0.56925964,0.04534912,2.7669647,0.4638996,-0.38713086
1570714907,-12.056,6.1967926,4.651932,0.06549072,0.07736206,-0.05052185,-13.644111,-1.2097368,5.4396296
1570714907,-12.056,6.1967926,4.651932,0.06549072,0.07736206,-0.05052185,-13.644111,-1.2097368,5.4396296
1570714907,-2.6138763,1.0456696,2.9335022,0.2828064,1.6752625,0.4853058,-1.6077306,-7.7458487,4.404696
1570714907,-1.8501129,8.968674,2.5911255,-1.268219,4.1903534,-1.4289703,-0.63763094,-0.21892548,3.7071033
1570714907,-2.0183105,9.150635,2.4103699,-1.2746124,4.1924744,-1.4982147,-0.63763094,-0.21892548,3.7071033
1570714907,0.32681274,11.196487,0.4985962,0.10916138,-2.1266785,-0.656662,1.5122328,2.6170397,1.3866243
1570714907,0.32681274,11.196487,0.4985962,0.10916138,-2.1266785,-0.656662,1.5122328,2.6170397,1.3866243
1570714907,3.4446564,9.780914,-7.013809,-2.1715698,-4.2582703,-0.44467163,5.034712,1.2607803,-6.4217257
1570714907,1.1737518,7.6542664,8.686768,-3.9644012,1.3215942,0.80381775,3.385263,-1.0809927,6.044047
1570714907,1.1737518,7.6542664,8.686768,-3.9644012,1.3215942,0.80381775,3.385263,-1.0809927,6.044047
1570714907,0.91996765,7.8799133,-2.2756958,-0.31054688,2.1780548,1.6166229,2.066617,-1.053484,-4.0827465
1570714907,0.9217682,8.001419,-2.3145905,-0.33291626,2.0278625,1.5793304,2.066617,-1.053484,-4.0827465
1570714907,-0.12150574,8.729263,2.86586,-0.57792664,0.6217041,0.6482849,0.855405,0.14952755,0.82429135
1570714907,-0.12150574,8.729263,2.86586,-0.57792664,0.6217041,0.6482849,0.855405,0.14952755,0.82429135
1570714907,-1.1707611,8.904037,1.0139465,-1.1574402,1.5527496,-0.44786072,0.03240049,0.2481575,-1.3360643
1570714907,-1.1707611,8.904037,1.0139465,-1.1574402,1.5527496,-0.44786072,0.03240049,0.2481575,-1.3360643
1570714907,-0.846344,10.451889,-0.6889343,-1.0711517,-0.25180054,-0.3956604,0.36419737,1.8846445,-3.1290975
1570714907,-0.7984619,10.533295,-0.74339294,-1.061554,-0.4371643,-0.39672852,0.36419737,1.8846445,-3.1290975
1570714907,1.1061249,11.223419,2.41156,-0.72387695,-2.5623627,-0.12295532,2.142234,2.918273,-2.0359988
1570714907,1.1061249,11.223419,2.41156,-0.72387695,-2.5623627,-0.12295532,2.0438874,3.0283346,-1.2630305
1570714907,1.6537933,11.552017,2.9424744,0.5128937,1.1319733,-0.2156372,2.5455813,3.3345308,0.33200574
1570714907,2.047638,12.572556,1.2779083,2.5102692,0.8187866,-0.004714966,3.0154538,3.9912653,-1.2274978
1570714907,0.7481842,10.569809,1.5915527,3.0194702,-2.9543762,0.37345886,1.7710924,1.9734306,-0.8409904
1570714907,0.7481842,10.569809,1.5915527,3.0194702,-2.9543762,0.37345886,1.7710924,1.9734306,-0.8409904
1570714907,0.67097473,13.711594,4.5795135,2.8298492,-0.34555054,-0.8920746,1.4776764,4.226986,4.757553
1570714907,0.6961212,14.039001,4.554962,2.7275848,-0.118652344,-1.0657196,1.4776764,4.226986,4.757553
1570714907,-3.1196442,9.493607,0.13647461,0.6354065,1.8510284,0.31272888,-5.5395746,1.9548216,0.37308478
1570714907,-3.1196442,9.493607,0.13647461,0.6354065,1.8510284,0.31272888,-3.4164705,1.1895618,0.50282025
1570714907,5.914276,9.355942,5.5443726,1.8061371,-0.7162628,0.47251892,5.5567307,-0.6322355,6.4502435
1570714907,6.70018,9.892242,5.4743347,1.854065,-0.50001526,0.5609436,5.5567307,-0.6322355,6.4502435
1570714907,-2.1176758,3.7583008,0.8086395,1.4481964,-0.9889679,0.23176575,-0.95965177,-4.35194,2.8778458
1570714907,-2.0147247,3.65654,0.72065735,1.4279633,-1.0880432,0.23390198,-0.95965177,-4.35194,2.8778458
1570714907,-2.9550476,1.7471619,0.46148682,-0.4618225,-0.990036,0.31272888,-1.8171275,-6.954851,3.1121995
1570714907,-2.9550476,1.7471619,0.46148682,-0.4618225,-0.990036,0.31272888,-1.8171275,-6.954851,3.1121995
1570714908,-1.6526031,8.634094,-2.4001923,-2.3622437,0.72824097,0.41073608,-0.72412777,-0.97241974,-0.35499525
1570714908,-1.6526031,8.634094,-2.4001923,-2.3622437,0.72824097,0.41073608,-0.72412777,-0.97241974,-0.35499525
1570714908,1.2114716,18.227661,-11.903366,-0.7153473,-0.2880249,0.30847168,3.0688236,10.812273,-16.90332
1570714908,1.2114716,18.227661,-11.903366,-0.7153473,-0.2880249,0.30847168,3.0688236,10.812273,-16.90332
1570714908,-3.7720642,12.743134,5.7526703,-0.9486389,-0.47444153,-1.2883606,-0.93143624,2.8731747,3.0264254
1570714908,-4.9542084,12.695251,6.929413,-0.9901886,-0.22091675,-1.3927612,-2.356234,3.7555523,6.1144133
1570714908,-4.8650208,8.147461,0.9038086,-0.58325195,2.0470276,-0.19326782,-4.4966226,-0.2842455,3.1704187
1570714908,-4.5723267,7.910446,0.38127136,-0.63438416,2.0310516,-0.20817566,-4.4966226,-0.2842455,3.1704187
1570714908,-2.3816376,8.217499,4.7375336,-0.45222473,1.5250549,-0.642807,-1.2358551,-0.6479101,5.1693497
1570714908,-2.276886,8.295303,4.613632,-0.36061096,1.5048218,-0.6619873,-0.93298304,-0.64032555,5.127551
1570714908,-0.21009827,9.761765,1.2042847,-0.69937134,-2.7594452,-0.7663727,1.6644351,0.45511532,0.46160972
1570714908,-0.09996033,9.937134,1.5658112,-0.73132324,-2.9682312,-0.7354889,1.6644351,0.45511532,0.46160972
1570714908,3.7804413,9.374496,1.4832153,-1.9883423,-1.1412964,0.46080017,5.5094757,0.8380575,0.972132
1570714908,3.4261017,9.098572,1.4736328,-2.192871,-0.61079407,0.44056702,5.717896,0.766798,0.65626496
1570714908,-0.17837524,7.2209167,2.8131866,-1.9436035,4.2361603,1.3364563,1.3777753,-1.1589003,2.220078
1570714908,0.41479492,7.186203,1.3724823,-1.6581116,4.1967316,1.5463104,1.6720465,-1.4434137,0.45445836
1570714908,0.012573242,9.877884,-1.5646057,-1.8487854,3.0622253,1.1468353,1.6189213,1.2295418,-3.5693443
1570714908,0.012573242,9.877884,-1.5646057,-1.8487854,3.0622253,1.1468353,1.6189213,1.2295418,-3.5693443
1570714908,0.17837524,9.269745,-0.2747345,-1.1979065,1.1628723,0.54496765,1.4593712,0.9615097,-3.2118974
1570714908,0.5488739,8.277954,2.6222534,0.12088013,0.052856445,-0.23693848,1.6672121,-0.11174011,-0.10015774
1570714908,-0.18315125,9.037506,1.6693573,0.30410767,0.32983398,-0.63534546,1.5009279,0.38891315,-0.31931734
1570714908,-1.0684052,9.916779,0.094573975,-0.79737854,0.3351593,-0.27848816,0.3402468,1.597086,-2.899904
1570714908,-0.64404297,9.865311,0.94750977,-0.8197479,0.14872742,-0.17408752,0.575156,1.520525,-2.3945315
1570714908,1.0271149,10.630859,0.16520691,-0.45861816,-0.69496155,0.011260986,2.5120091,2.196063,-1.96717
1570714908,2.166748,11.175537,1.1791382,-0.80270386,-0.69921875,0.06878662,3.3661778,2.5911217,-2.71267
1570714908,2.1080933,11.757324,2.205658,0.8612366,0.9668579,0.025115967,3.4703515,3.4184227,-0.83656955
1570714908,2.9777832,12.618637,-2.443283,2.970459,-1.7506256,0.3926239,4.322352,4.338522,-4.6127596
1570714908,2.9777832,12.618637,-2.443283,2.970459,-1.7506256,0.3926239,4.322352,4.338522,-4.6127596
1570714908,-0.76434326,9.742004,2.558197,3.0769958,-2.9298859,0.5620117,0.36612803,0.8432951,0.24478257
1570714908,-0.23223877,11.5017395,4.147354,3.2495575,-1.7442474,-0.14213562,0.2547031,2.1856775,3.5238628
1570714908,-1.3826447,13.282425,3.8851929,2.521988,0.46725464,-1.3565369,0.39562005,4.062256,5.0034647
1570714908,-12.780243,8.555679,1.7208252,1.5398102,1.1724548,-1.1701202,-6.164451,2.516409,2.9601274
1570714908,-2.644989,10.985199,-0.9289551,0.82821655,0.21478271,0.50553894,-4.4990273,0.806551,-0.3718468
1570714909,2.3139954,8.741226,2.5312653,1.0476685,-2.4952545,0.044281006,2.5312157,-0.25366974,2.126031
1570714909,4.680664,10.562622,4.087494,1.9989471,-1.1306458,0.5609436,5.7325635,2.0136166,5.4234204
1570714909,-2.466629,6.5804596,1.5753784,2.460205,-1.6728668,0.28929138,1.0439749,-1.0790882,4.8280325
1570714909,-3.5374298,3.4907532,-0.025146484,0.9944,-1.9178772,0.6845093,-2.2078717,-4.895976,2.556431
1570714909,-3.344696,3.3860016,-0.10354614,0.7238159,-1.817749,0.7420349,-2.4718032,-5.118286,2.5174835
1570714909,-1.6508026,2.9538422,0.5805969,-1.0988464,-0.5298462,0.57585144,-0.8955206,-5.5773764,3.0210109
1570714909,-1.6508026,2.9538422,0.5805969,-1.0988464,-0.5298462,0.57585144,-0.8955206,-5.5773764,3.0210109
1570714909,-2.237381,8.549698,-3.395584,-1.856247,0.4842987,0.25733948,-1.308253,-1.0390873,-0.4282062
1570714909,-2.3349457,9.466675,-4.66391,-1.8924713,0.4832306,0.22644043,-1.4991174,-0.30662632,-1.4720238
1570714909,0.077804565,19.209885,-10.715851,-0.4607544,-0.5660553,-0.0388031,0.40266335,10.803419,-9.1122875
1570714909,-1.8656769,6.632538,-3.8259277,-0.24557495,-0.20280457,0.28077698,-0.5886001,-1.5362158,-3.1258445
1570714909,-3.6080627,11.686691,0.026931763,-1.1798096,0.63874817,-0.56611633,-2.4458592,1.4864826,0.31465197
1570714909,-11.56041,12.123642,3.157959,-0.8708801,2.9951172,-0.818573,-11.8517885,6.601615,5.594818
1570714909,-10.248978,10.661972,2.5187073,-0.82507324,2.8896637,-0.6396179,-10.789104,3.9378805,4.0492496
1570714909,-1.3311768,3.8367157,2.3289642,-0.52360535,1.9447632,-0.22521973,-0.20697248,-5.0530767,2.5949879
1570714909,0.4441223,6.281784,2.3606873,-0.13903809,1.2267761,-0.7546692,1.4831569,-3.671547,2.8075666
1570714909,0.5913696,8.130112,0.59077454,-0.90922546,-1.6291962,-1.0241699,2.1491365,-0.9163265,0.6410859
1570714909,2.1607666,11.026489,3.8923798,-1.2277374,-3.315506,-0.7919464,3.272499,1.214304,2.548821
1570714909,1.1216888,9.533707,6.072296,-0.8740692,-3.713913,-0.22628784,3.9188333,1.5345135,5.7923455
1570714909,1.9716187,9.058456,1.0450745,-1.9734192,-0.73117065,0.6482849,2.898694,0.1792736,0.09414023
1570714909,-1.3162079,8.063675,3.530243,-2.5348206,4.2233734,1.8690796,-0.11609137,-0.62621117,1.7751895
1570714909,-0.78590393,10.013748,-2.4869843,-2.6519928,5.202347,1.8211517,0.74000096,1.1212769,-5.0143948
1570714909,-0.78590393,10.1214905,-2.4163513,-2.6775665,5.269455,1.776413,0.74000096,1.1212769,-5.0143948
1570714909,1.4844055,8.8567505,-0.4441223,0.691864,1.5761871,0.40647888,2.5996518,0.7236099,-3.1931276
1570714909,1.4844055,8.8567505,-0.4441223,0.691864,1.5761871,0.40647888,2.5996518,0.7236099,-3.1931276
1570714909,-0.7194519,7.629715,2.1871033,0.40318298,0.020904541,-0.39993286,0.5047089,-1.058464,0.08521128
1570714909,-0.7194519,7.629715,2.1871033,0.40318298,0.020904541,-0.39993286,0.5047089,-1.058464,0.08521128
1570714909,-0.57221985,9.835983,3.7690735,-1.0530396,3.1123047,-0.41697693,0.92622924,1.0220146,1.6573551
1570714909,0.3435669,10.855911,2.2308044,-0.38937378,2.3793945,-0.35092163,2.1341188,2.2280273,0.5738387
1570714909,0.75297546,10.628464,-6.42305,-0.68551636,-1.419342,-0.14427185,2.2564235,2.6021357,-7.974329
1570714909,0.75297546,10.628464,-6.42305,-0.68551636,-1.419342,-0.14427185,2.2564235,2.6021357,-7.974329
1570714909,1.5867615,14.261658,6.887512,-1.1180267,-0.863266,-0.08779907,2.4470162,5.287245,1.5556295
1570714909,1.8842316,14.31015,7.047928,-0.756897,-0.2368927,-0.17089844,2.6057186,5.958313,3.0963817
1570714910,0.9924011,12.974182,-4.352661,4.816574,-0.6970825,0.2818451,2.5965984,4.767453,-6.398724
1570714910,0.9924011,12.974182,-4.352661,4.816574,-0.6970825,0.2818451,2.5965984,4.767453,-6.398724
1570714910,1.3569183,12.7586975,5.2271423,2.8362427,-0.558609,-0.21456909,2.0292487,3.4989347,5.411522
1570714910,1.2527618,12.874222,5.3456573,2.731842,-0.32318115,-0.35198975,2.0292487,3.4989347,5.411522
1570714910,-6.933014,9.572617,-4.281433,1.12117,0.77830505,0.42778015,-11.370777,-1.5856342,-1.1827428
1570714910,-6.933014,9.572617,-4.281433,1.12117,0.77830505,0.42778015,-8.518964,-0.39743328,-2.8386045
1570714910,0.75057983,8.654434,2.2325897,1.9531403,-0.2134552,0.18276978,2.1830268,-0.27457047,4.6182413
1570714910,0.75057983,8.654434,2.2325897,1.9531403,-0.2134552,0.18276978,2.1830268,-0.27457047,4.6182413
1570714910,-2.237976,7.3202667,1.790863,2.7169342,-1.7282562,0.16679382,1.7512944,-0.51099586,5.104045
1570714910,-2.4199371,2.8059998,0.57640076,1.5334167,-1.9913788,0.60887146,-0.8598139,-5.6624393,3.908404
1570714910,-2.819168,2.9233246,0.57221985,1.1328888,-1.9413147,0.7409668,-1.4254631,-5.607012,3.4534838
1570714910,-2.5510254,2.6671448,1.3174133,-0.06021118,-1.3532867,0.98172,-1.42374,-5.720752,4.188501
1570714910,-0.9732361,2.25354,1.3742676,-0.9955139,-1.1604767,0.57691956,-0.14396656,-6.0909557,4.179931
1570714910,-1.9321136,11.189301,-7.66803,-2.3207092,0.5141144,-0.0345459,-1.1398739,-0.08295345,-4.5022774
1570714910,-1.9321136,11.189301,-7.66803,-2.3207092,0.5141144,-0.0345459,-1.1398739,-0.08295345,-4.5022774
1570714910,-0.9337311,19.612701,-16.178223,-0.45755005,-0.32957458,-0.08886719,0.27587926,10.917773,-14.390653
1570714910,-1.2605438,8.695145,-4.329315,0.04737854,-1.3202667,0.4160614,-0.08692956,1.7112026,-3.35924
1570714910,-2.5719757,12.407944,0.35913086,-1.1286774,0.06138611,-0.5778351,-0.91612434,2.5107899,0.027712345
1570714910,-10.772705,14.168289,6.1135864,-1.1712799,1.9202728,-1.1701202,-8.761832,5.4371195,7.96372
1570714910,-9.027939,11.966217,0.35075378,-0.9624939,1.3013458,-0.43295288,-8.785135,4.2597523,1.9616797
1570714910,-0.7691345,5.4797363,3.6786957,-0.7419739,0.9008179,-0.14746094,0.64819,-3.2963696,3.3988786
1570714910,-1.4652557,6.3386536,4.4065247,0.11769104,1.1894989,-0.5874176,-0.03234148,-2.7344217,5.7451825
1570714910,0.20350647,8.699326,0.2639618,-0.4969635,-1.6345215,-0.64068604,2.0768838,-0.5149622,0.6941748
1570714910,0.20350647,8.699326,0.2639618,-0.4969635,-1.6345215,-0.64068604,2.0768838,-0.5149622,0.6941748
1570714910,0.5404968,10.889435,1.663971,-0.6897888,-3.39859,-0.258255,2.4799757,1.9867306,1.7537036
1570714910,2.4761963,10.195114,-0.11192322,-1.5004425,-3.1930084,0.37878418,4.206739,1.7587233,0.64084625
1570714910,-1.5675964,6.459549,4.4071198,-2.3771667,3.2827454,1.4919739,0.16614342,-2.416873,3.9627597
1570714910,-0.4519043,7.3106995,3.0573883,-1.9851379,3.9336243,1.7540283,1.0116744,-1.5796127,2.148071
1570714910,0.7565613,8.907028,-0.21128845,-1.7049866,3.9826202,1.5015717,1.9373366,0.13856888,-1.8269418
1570714910,-0.28071594,9.340973,-2.2361908,-1.7017822,2.9674225,0.99876404,1.3313475,0.54943466,-3.581666
1570714910,-0.26934814,8.629303,1.7800903,-0.8985748,-0.15699768,0.21260071,0.6414442,0.27766323,-1.1601489
1570714910,-0.15861511,8.327026,2.9269104,-0.3435669,-0.5170593,-0.07821655,0.8461782,-0.14977455,0.07335329
1570714910,-0.061050415,8.620331,3.0843353,0.2167511,-0.5095978,-0.40737915,0.95728207,0.010551453,0.54983807
1570714910,-1.0402832,9.64624,0.6458435,0.15284729,0.14660645,-0.7503967,0.3806374,1.0749979,-1.2645912
1570714911,-0.61950684,9.72644,0.91638184,-0.58432007,0.5375519,-0.5085907,0.34885514,1.0882511,-2.0706308
1570714911,0.4016266,10.014938,2.0302887,-0.3393097,0.30107117,-0.21884155,1.7438523,1.6433268,-0.46780348
1570714911,2.2433624,10.351334,0.061050415,-0.710022,-0.52770996,0.14868164,3.625243,1.7247038,-2.9004433
1570714911,2.1314392,10.560822,0.5123596,-0.7718048,-0.62890625,0.15614319,3.5131388,2.0834513,-2.6129475
1570714911,2.3594818,11.929108,1.8824463,-0.1635437,-0.16339111,0.020843506,3.423383,3.3449135,-1.409662
1570714911,2.7724915,12.383408,2.2355804,0.5128937,-0.08242798,0.0315094,3.8876944,3.9964972,-0.8574264
1570714911,2.190689,11.883621,-0.70150757,2.9938965,-2.2086945,0.5545502,3.1617992,3.8154135,-3.5472755
1570714911,0.32800293,9.935944,2.004547,3.4700775,-2.840393,0.3883667,1.8182442,1.7200613,-0.7081306
1570714911,0.69192505,12.858658,4.8835754,3.0493011,-1.3170776,-0.6140442,1.2439456,3.2129412,4.0756116
1570714911,0.5805969,13.521851,5.0529633,2.871399,-0.9239807,-0.87290955,1.2458856,4.034459,4.791034
1570714911,-13.302185,8.931564,1.6938934,1.3065186,0.6270447,0.43736267,-14.56918,-0.7845497,3.4524262
1570714911,-3.0460205,10.426147,-1.3886414,0.6109009,0.23182678,0.40115356,-3.0875232,2.003478,-1.1159556
1570714911,3.8109741,11.336548,4.458008,2.41333,-1.0347748,0.4586792,4.1717334,2.3436937,5.943071
1570714911,3.6080627,11.015717,4.54718,2.5198517,-1.149826,0.39794922,4.590012,2.5335417,6.1213627
1570714911,-2.7419586,3.40036,-0.43933105,1.8231812,-1.196701,0.3148651,-2.0965452,-4.990184,2.340082
1570714911,-2.6886902,3.336914,-0.46865845,1.725174,-1.2158661,0.313797,-2.0965452,-4.990184,2.340082
1570714911,-2.4815826,3.0927124,-0.06703186,0.31582642,-1.1114807,0.44589233,-1.863667,-5.46167,2.7442715
1570714911,-1.8734589,3.5631714,0.34776306,-0.50335693,-0.7354431,0.27331543,-1.2183709,-4.9647493,2.7764158
1570714911,-1.533493,4.8650208,-0.76075745,-1.5345306,-0.14953613,-0.082473755,-0.6538823,-3.9298058,1.8181653
1570714911,-1.5837708,5.6269684,-1.4634552,-1.6879425,0.04220581,-0.075027466,-0.6661013,-3.1984797,0.9756985
1570714911,1.4472961,19.612701,-16.352997,-0.19763184,-0.3615265,0.36706543,1.2125905,10.88268,-13.737187
1570714911,1.8638916,19.612701,-15.095444,-0.22958374,-0.54901123,0.39369202,1.2125905,10.88268,-13.737187
1570714911,-2.637207,3.2752686,-3.2944183,-0.04423523,-0.59269714,0.022979736,-1.8252556,-5.565158,-2.1001656
1570714911,-2.6713257,3.463211,-2.6833038,-0.12519836,-0.59375,-0.026016235,-1.9457395,-5.5194817,-1.7284751
1570714911,-10.283096,12.064377,5.304947,-1.6985931,3.0664978,-1.3203125,-7.9682207,2.5960093,7.1389556
1570714911,-12.023087,14.129379,1.9931793,-1.7049866,2.6265411,-0.562912,-11.712738,4.264086,4.155575
1570714911,0.48602295,7.625534,8.219894,-0.4703369,2.0054932,-0.340271,1.4606489,-0.9227352,9.903039
1570714911,0.66319275,7.625534,8.219894,-0.4703369,2.0054932,-0.340271,1.4606489,-0.9227352,9.903039
1570714911,0.03591919,6.336853,-1.0295105,-0.21574402,-0.048339844,-0.6055298,1.4363253,-2.7553244,-0.81548226
1570714911,0.9528961,8.183975,0.9295502,-0.6887207,-1.1849823,-0.52989197,2.262857,-1.1959305,0.91036236
1570714911,2.2972412,11.428116,0.45429993,-1.2437134,-2.0201416,-0.20924377,3.5945246,3.031478,2.167372
1570714911,2.2972412,11.428116,0.45429993,-1.2437134,-2.0201416,-0.20924377,3.5945246,3.031478,2.167372
1570714912,-0.6027374,6.748062,1.9129639,-1.7369385,3.9059143,1.5761414,0.68149424,-2.073968,1.166333
1570714912,-0.6027374,6.748062,1.9129639,-1.7369385,3.9059143,1.5761414,0.68149424,-2.073968,1.166333
1570714912,1.4742279,9.838379,-0.61172485,-1.1691589,2.2164154,1.0467072,2.5867987,1.2269993,-2.6535456
1570714912,1.4742279,9.838379,-0.61172485,-1.1691589,2.2164154,1.0467072,2.5867987,1.2269993,-2.6535456
1570714912,-0.13407898,8.406036,1.0582428,-0.4927063,-0.052597046,0.31593323,0.7223964,-0.11597347,-1.2221098
1570714912,-0.13407898,8.406036,1.0582428,-0.4927063,-0.052597046,0.31593323,0.7223964,-0.11597347,-1.2221098
1570714912,-0.5638275,9.252991,1.7579498,-0.35102844,0.13700867,-0.4659729,0.4038533,0.3986826,-0.5608411
1570714912,-0.9516907,9.534912,1.2934723,-0.43199158,0.4171753,-0.5916748,0.15396714,0.81267834,-0.78573227
1570714912,-2.8006134,9.359528,1.1294708,-0.8676758,0.92318726,-0.4862213,-1.6016247,0.9842768,-1.6343086
1570714912,1.1803436,10.849319,1.2826996,-0.17633057,0.3585968,-0.3136444,2.3790805,2.2822895,-1.3754947
1570714912,1.2767029,10.840942,1.1677704,-0.13478088,0.27124023,-0.32003784,2.3790805,2.2822895,-1.3754947
1570714912,1.7776947,10.777496,-1.051651,0.079330444,-1.2552795,-0.10697937,2.98492,2.3104477,-3.6100757
1570714912,0.8954315,11.229996,1.3928223,-0.614151,0.012374878,-0.031341553,2.0825016,2.136527,-1.7016916
1570714912,0.8954315,11.229996,1.3928223,-0.614151,0.012374878,-0.031341553,2.0825016,2.136527,-1.7016916
1570714912,1.0720062,14.252686,0.28071594,1.0721588,0.8816376,-0.19113159,2.1856933,5.904091,-2.5828521
1570714912,1.6903076,10.896606,-0.920578,4.4884644,-1.5226593,-0.023895264,2.9372144,2.7039862,-2.7781148
1570714912,-0.4740448,9.088394,2.2313995,4.292465,-2.9021912,0.16040039,0.89091563,0.07359314,1.0857874
1570714912,0.957077,11.609482,3.43927,3.269806,-1.8475647,0.15187073,1.7858732,2.0632982,2.9132054
1570714912,-4.929657,10.848724,2.5821533,1.5834961,1.0020142,-1.197815,-1.1275183,2.9266815,4.5454817
1570714912,1.4257507,10.528503,-0.50038147,0.59173584,-1.5226593,0.5183258,1.8232068,1.7771788,0.26889467
1570714912,1.9865875,10.41597,0.052078247,0.64819336,-1.628128,0.5183258,1.8232068,1.7771788,0.26889467
1570714912,-0.8571167,8.485657,3.6535492,1.5558014,-0.9389038,0.8016968,0.06891966,-0.34984493,5.367807
1570714912,-0.91877747,8.477875,4.1599274,1.6303558,-1.1136017,0.7835846,0.040693104,-0.34984493,5.367807
1570714912,-2.019516,4.897934,1.1258698,2.4165344,-2.8276215,0.5620117,-1.1482918,-3.2821903,4.5040812
1570714912,-3.0903168,3.0460205,0.5901642,-0.25515747,-1.1871033,0.9976959,-2.36417,-5.441675,2.9630275
1570714912,-3.0903168,3.0460205,0.5901642,-0.25515747,-1.1871033,0.9976959,-2.36417,-5.441675,2.9630275
1570714912,-2.4139557,3.1555634,1.035492,-0.90496826,-0.8973541,0.710083,-1.7517612,-5.310357,3.383582
1570714912,-1.5969391,3.572754,0.54408264,-1.4929962,-0.41053772,0.3052826,-0.9295319,-5.24014,3.0956326
1570714912,-1.2898712,6.494278,-2.4534607,-1.7369385,0.25738525,0.0592041,-0.48276043,-2.880989,0.58050096
1570714912,-0.5626373,19.612701,-11.587936,-0.2839203,0.65153503,-0.018569946,-0.22902554,9.608665,-7.4946356
1570714912,-0.35853577,5.5282135,-3.1064758,0.048446655,-0.86647034,0.24455261,0.80260384,-2.3198547,-1.5519644
1570714912,-0.35853577,5.5282135,-3.1064758,0.048446655,-0.86647034,0.24455261,0.80260384,-2.3198547,-1.5519644
1570714912,-5.23851,10.576981,6.711548,-1.9190979,2.4561005,-1.5184631,-3.8095446,1.4437113,7.7428207
1570714912,-5.23851,10.576981,6.711548,-1.9190979,2.4561005,-1.5184631,-3.8095446,1.4437113,7.7428207
1570714913,-0.65541077,12.780853,-14.855423,-1.6485138,0.7878876,-0.2891388,-3.8088126,5.088683,-12.697543
1570714913,-0.7224579,11.6675415,-10.701477,-1.7539825,0.28295898,-0.32962036,-3.8088126,5.088683,-12.697543
1570714913,0.3896637,5.478531,4.7560883,0.5619049,0.7846985,-0.49580383,1.7781382,-2.9162407,6.1128464
1570714913,-0.50338745,5.122986,0.50457764,0.47668457,0.058181763,-0.7131195,1.1623776,-4.016657,0.81505144
1570714913,0.15681458,7.2957306,0.7332306,-0.09855652,-0.86112976,-0.5820923,1.5483589,-2.201705,0.9303976
1570714913,2.644394,10.300461,-0.45788574,-1.6282806,-2.2864685,0.37664795,3.981977,2.5203066,-0.713569
1570714913,2.644394,10.300461,-0.45788574,-1.6282806,-2.2864685,0.37664795,3.981977,2.5203066,-0.713569
1570714913,-0.28012085,6.660675,2.6491852,-1.6272125,3.3999176,1.6879883,0.8880631,-2.2824068,1.5352609
1570714913,-0.25917053,6.7929535,2.3624725,-1.5622406,3.419098,1.6954498,0.94272983,-2.1045504,1.1503296
1570714913,0.9295502,9.399033,-0.37649536,-1.4620972,3.419098,1.3044891,1.6967556,0.16917038,-1.9383761
1570714913,-1.1965027,9.036911,-0.15083313,-1.443985,2.0896454,0.616333,-0.36863828,0.69739056,-2.6281166
1570714913,-1.1965027,9.036911,-0.15083313,-1.443985,2.0896454,0.616333,-0.36863828,0.69739056,-2.6281166
1570714913,-0.5776062,8.217499,0.7445984,-1.0157471,0.8699188,0.17318726,0.35204464,-0.13683033,-1.927732
1570714913,-0.27653503,9.333191,2.4055786,-0.33717346,0.5119934,-0.4148407,0.71657896,0.39557743,-0.19485044
1570714913,-1.2731171,10.289673,-0.39204407,-0.27220154,0.48109436,-0.6555939,0.03326106,1.839776,-2.5918453
1570714913,0.011367798,10.604523,0.15562439,-0.7526398,-0.45846558,-0.57144165,1.1305057,2.3345346,-3.2232163
1570714913,1.695694,10.016144,1.0744019,-0.27326965,-1.278717,-0.42230225,2.7683065,1.6997995,-1.7369869
1570714913,1.8345642,9.916779,1.6867218,-0.27113342,-0.72691345,-0.10058594,3.0204668,1.7006845,-1.7976422
1570714913,1.672348,10.67514,3.229782,0.11129761,0.3436737,0.08369446,2.974237,2.177411,-0.10899043
1570714913,1.9931793,12.368439,1.2874756,1.1083832,1.0201263,0.25733948,3.0609825,3.6888885,-1.4738355
1570714913,2.8359375,13.490128,-1.5077515,2.2269135,-0.8920288,0.40327454,3.9621315,5.1460123,-3.8609447
1570714913,0.13946533,10.052063,1.8345642,3.2346497,-3.0534515,0.24562073,2.1342428,1.9543705,-1.0160352
1570714913,0.6901245,13.3159485,4.9589844,2.968338,-0.90800476,-0.6065979,1.1800328,3.4844131,4.9466257
1570714913,0.6901245,13.3159485,4.9589844,2.968338,-0.90800476,-0.6065979,1.1800328,3.4844131,4.9466257
1570714913,-12.843689,8.626907,3.6673126,1.5302277,1.047821,-0.70991516,-9.991224,0.79166794,4.377322
1570714913,-3.1872864,9.973053,-2.3379364,0.5150299,0.7133179,0.43736267,-2.975631,1.2637396,-1.0552316
1570714913,2.6952667,9.812637,3.1298218,1.8828278,-1.5855103,0.64190674,3.383507,0.39113235,3.8488066
1570714913,2.9005737,10.17775,3.7068176,1.9350281,-1.6398468,0.6887665,3.383507,0.39113235,3.8488066
1570714913,-3.5009155,4.1892548,-0.4980011,2.0863037,-1.6717987,0.3372345,-2.6619792,-4.271681,1.9810281
1570714913,-3.5009155,4.1892548,-0.4980011,2.0863037,-1.6717987,0.3372345,-2.6619792,-4.271681,1.9810281
1570714913,-2.355301,3.4799652,0.58418274,-0.30308533,-1.0347748,0.6014252,-1.9204216,-5.0093985,2.8774078
1570714913,-2.355301,3.4799652,0.58418274,-0.30308533,-1.0347748,0.6014252,-1.9204216,-5.0093985,2.8774078
1570714913,-0.86968994,3.344696,0.9403229,-1.4940643,-0.12504578,0.08050537,-0.0958274,-5.3726406,3.2770054
1570714913,-0.8954315,3.5356445,0.9002228,-1.5260162,-0.07710266,0.06985474,-0.0958274,-5.3726406,3.2770054
1570714914,-2.099121,17.702728,-5.867584,-0.9198761,1.9788513,-0.086746216,-1.1269336,7.0341244,-3.3401165
1570714914,-2.197281,19.064423,-7.1963654,-0.7153473,2.083252,-0.045196533,-1.1269336,7.0341244,-3.3401165
1570714914,-0.070632935,4.304779,-0.9690552,-0.1869812,-0.2922821,0.37451172,0.6712562,-4.4416046,0.22497284
1570714914,-0.070632935,4.304779,-0.9690552,-0.1869812,-0.2922821,0.37451172,0.6712562,-4.4416046,0.22497284
1570714914,-1.0929565,11.195282,2.597702,-1.4258881,0.5844269,-1.0540009,-0.6670503,0.60171413,2.329043
1570714914,-1.0929565,11.195282,2.597702,-1.4258881,0.5844269,-1.0540009,-0.6670503,0.60171413,2.329043
1570714914,-6.438614,10.123886,7.8679504,-1.8711548,0.93063354,-1.4694519,-5.0150037,1.096117,7.518876
1570714914,-3.3411102,12.001541,2.4492645,-0.49163818,2.851303,-0.2625122,-3.0344636,3.5159721,3.6178415
1570714914,-1.161789,10.195114,-5.309738,-1.443985,1.940506,-0.72483826,1.2988993,2.8135805,-7.6364875
1570714914,-0.42437744,5.73291,2.6036987,-0.8314667,-0.70773315,-0.34347534,-0.30458283,-2.9179163,2.3500674
1570714914,-0.11253357,5.193619,-1.4371185,-0.38404846,-2.5410614,-0.97091675,1.5672605,-3.724412,-0.8493336
1570714914,1.0636292,10.573395,6.360794,-0.7845917,-5.560013,-0.38075256,2.5334454,1.1932583,4.558528
1570714914,2.4049683,11.451462,5.1684875,-0.8740692,-3.3410797,0.25201416,3.7120614,3.0577154,4.967304
1570714914,-0.48841858,8.530548,4.529236,-1.8519897,1.9277191,0.94337463,1.0072038,0.2868395,2.785636
1570714914,-0.5560608,5.8083344,4.487335,-1.1531677,3.4020538,1.4120789,0.022136927,-2.1634102,2.7381186
1570714914,0.7799072,10.517136,0.06285095,-0.6226654,3.8537292,1.6581573,1.2041073,0.6844444,-1.1837993
1570714914,1.1372528,11.328766,-0.35614014,-0.73239136,3.8388062,1.5676117,1.3814878,1.6490374,-1.8709824
1570714914,0.19213867,9.971252,-1.7136536,-1.6815491,3.3072357,0.54389954,1.0701091,1.8210335,-4.080701
1570714914,-0.88645935,8.358749,1.5167236,-1.0050964,1.5389099,0.061325073,-0.011018574,-0.09558201,-1.1478574
1570714914,-0.88645935,8.358749,1.5167236,-1.0050964,1.5389099,0.061325073,-0.011018574,-0.09558201,-1.1478574
1570714914,-0.33338928,9.879669,-0.2783203,-0.83358765,0.75912476,-0.37010193,0.889179,1.585742,-3.6367238
1570714914,-0.017364502,10.986984,0.2956848,-0.03465271,-0.8835144,-0.38928223,1.2059003,2.7082567,-2.653686
1570714914,-0.02154541,10.98819,0.24420166,-0.035705566,-0.93569946,-0.37117004,1.1687089,2.764203,-2.9366863
1570714914,1.3395538,9.773727,0.44293213,-0.27113342,-1.1721954,0.0826416,2.333085,1.7509422,-3.3593898
1570714914,0.91877747,8.674194,2.3576965,-0.27326965,-0.5191803,0.16253662,2.1652284,1.0302725,-1.9450147
1570714914,-0.15142822,9.935333,1.8944092,0.22634888,2.0587463,0.0357666,1.1676646,1.1364555,-1.2783875
1570714914,3.1304169,12.142792,-1.3239899,4.2807465,-1.5674133,0.1880951,4.6366568,4.6792135,-3.303971
1570714914,3.1304169,12.142792,-1.3239899,4.2807465,-1.5674133,0.1880951,4.6366568,4.6792135,-3.303971
1570714914,2.0650024,12.000931,5.1930237,3.078064,-1.0028229,0.2083435,2.4493203,2.5198498,5.2162127
1570714914,2.2996368,12.457626,5.1164093,2.9694061,-0.7801819,0.089019775,2.4493203,2.5198498,5.2162127
1570714914,-0.056869507,12.9795685,5.8209076,2.1779022,1.8371735,-1.3384247,1.9556245,4.225663,7.3942657
1570714914,0.23942566,10.289673,-1.4634552,-0.2881775,-1.1743317,0.73350525,0.2300303,1.8376408,-1.434659
1570714914,0.23942566,10.289673,-1.4634552,-0.2881775,-1.1743317,0.73350525,0.2300303,1.8376408,-1.434659
1570714915,2.348114,9.461884,5.155319,2.186432,-2.1138916,0.55773926,4.2455764,0.456522,5.5509157
1570714915,-0.31004333,8.626907,4.4939117,2.4996185,-2.186325,0.39050293,1.5655113,0.26453304,6.9589133
1570714915,-3.5553894,3.652954,1.2910767,1.010376,-2.0616913,0.8070221,-2.6236548,-4.736356,3.5433803
1570714915,-3.5553894,3.652954,1.2910767,1.010376,-2.0616913,0.8070221,-2.6236548,-4.736356,3.5433803
1570714915,-3.086731,3.3662415,0.74160767,-0.29563904,-0.8867035,0.7612152,-2.6090307,-5.2877216,3.4709601
1570714915,-1.9333191,3.1322174,0.89424133,-0.9624939,-0.57458496,0.35853577,-1.432699,-5.263075,3.2036395
1570714915,-1.5688019,4.6190186,-0.15322876,-1.8232269,0.37243652,0.06239319,-0.9708841,-4.6542425,2.232182
1570714915,-0.8954315,19.595947,-10.679932,-0.70150757,0.15086365,-0.049453735,-0.34668452,10.459094,-7.3313875
1570714915,-0.8954315,19.595947,-10.679932,-0.70150757,0.15086365,-0.049453735,-0.34668452,10.459094,-7.3313875
1570714915,1.2868805,7.796112,-3.6481628,0.15922546,-1.2265167,0.41926575,2.393054,0.16101456,-3.6993234
1570714915,-1.4167633,4.7028046,-2.7443542,-0.041030884,-0.4691162,0.27757263,-0.6863614,-3.9358177,-1.3469828
1570714915,-6.7624207,12.148773,7.483673,-1.3875275,2.4177399,-1.50354,-5.355142,2.5459652,7.9944663
1570714915,-6.7624207,12.148773,7.483673,-1.3875275,2.4177399,-1.50354,-5.355142,2.5459652,7.9944663
1570714915,-1.4532776,9.782715,-2.7425537,-1.0722198,0.8315735,-0.513916,-0.43451452,1.0788307,-3.074072
1570714915,-1.6681671,9.588776,-1.7130585,-1.1169586,0.6824341,-0.5618439,-0.43451452,1.0788307,-3.074072
1570714915,0.7374115,5.8945312,3.73555,-0.2796631,-0.39561462,-0.65452576,2.1419396,-2.6679993,3.7493298
1570714915,1.3024445,9.478043,2.1613617,-0.8687439,-1.7698059,-0.42337036,2.9206486,-0.08785057,1.4600743
1570714915,1.2575531,10.086166,2.4480743,-0.9252014,-1.7953796,-0.38607788,2.9206486,-0.08785057,1.4600743
1570714915,-0.4046173,7.4483643,4.791397,-1.889267,1.1649933,0.65467834,1.7301188,-0.6323242,3.4341006
1570714915,-1.0031738,6.9952545,4.636368,-1.8807526,1.4685974,0.73031616,1.7301188,-0.6323242,3.4341006
1570714915,-1.8872223,6.486496,3.4279022,-1.49086,3.0025787,1.5846558,-0.8864651,-2.6009693,1.7735714
1570714915,0.66378784,9.119507,-1.1994934,-1.1265411,3.2571716,0.9891815,1.54194,0.07552338,-3.195184
1570714915,0.675766,9.299683,-1.0396881,-1.1659546,3.197525,0.92633057,1.54194,0.07552338,-3.195184
1570714915,-0.6500244,8.364151,0.5207367,-0.7174835,0.84329224,0.114593506,0.25983477,-0.26688194,-1.5863972
1570714915,-0.6500244,8.364151,0.5207367,-0.7174835,0.84329224,0.114593506,0.25983477,-0.26688194,-1.5863972
1570714915,-0.7086792,9.862915,2.4139557,-0.57792664,0.7293091,-0.48727417,0.4594078,1.1027651,0.020058632
1570714915,-0.7086792,9.862915,2.4139557,-0.57792664,0.7293091,-0.48727417,0.4594078,1.1027651,0.020058632
1570714915,0.4441223,10.381256,0.44172668,-1.1052399,-0.050476074,-0.3594513,1.4978901,2.0973272,-2.8710678
1570714915,0.4441223,10.381256,0.44172668,-1.1052399,-0.050476074,-0.3594513,1.4978901,2.0973272,-2.8710678
1570714915,2.048233,9.972443,-1.992569,-0.77394104,-1.9072266,-0.35092163,3.3562605,1.7993126,-5.0401754
1570714915,3.0891113,12.84729,5.819107,0.59706116,-0.53089905,-0.18261719,3.9945648,4.849015,2.019817
1570714915,3.5218658,12.411545,5.6892242,1.2362213,-0.057922363,-0.13894653,4.33774,4.5537395,2.5056043
1570714915,3.692459,12.751526,-0.5345001,2.634903,0.19880676,0.5119324,4.6469536,4.183959,-2.536054
1570714915,1.2593536,10.87027,-0.7296295,2.395218,-1.866745,0.90075684,2.983293,2.5660686,-4.161115
1570714916,-0.9038086,10.846924,2.6396027,2.825592,-2.725357,0.3372345,-0.618833,1.8233166,0.90390754
1570714916,-4.146759,12.388199,5.380966,3.0247955,-2.0158844,-1.24469,-1.1099629,3.121419,3.5130718
1570714916,-11.001953,11.150391,3.700241,2.219452,0.5151825,-0.2156372,-11.482713,1.2553759,4.9637613
1570714916,-0.24720764,9.2404175,1.8561096,1.0284882,1.1713867,0.025115967,-1.430881,0.09937954,2.4536006
1570714916,4.0019073,9.657608,-0.092178345,1.7880249,-0.7130585,-0.21989441,3.8449004,0.87412643,1.046104
1570714916,2.692871,9.662399,3.3381195,1.582428,0.043273926,0.54496765,3.6130776,-0.036904335,5.3230743
1570714916,-1.1833344,5.6078186,0.061645508,2.1949463,-1.8646088,0.40434265,-0.6336305,-2.6467733,2.8831668
1570714916,-1.1845245,5.4061127,-0.012573242,2.1949463,-1.8646088,0.40434265,-0.49882877,-3.0206842,2.3858867
1570714916,-2.3918,3.5110931,-0.19992065,1.3629761,-2.0116272,0.42352295,-1.526059,-4.9835033,2.3952732
1570714916,-2.1853027,3.4614105,0.6290741,-0.6588898,-0.9474182,0.37771606,-1.54209,-4.5553274,3.302128
1570714916,-2.1853027,3.4614105,0.6290741,-0.6588898,-0.9474182,0.37771606,-1.54209,-4.5553274,3.302128
1570714916,-1.5005646,7.6351166,-2.2882538,-1.5643616,0.42782593,0.14761353,-0.8716259,-1.865695,0.11409879
1570714916,-1.5005646,7.6351166,-2.2882538,-1.5643616,0.42782593,0.14761353,-0.8716259,-1.865695,0.11409879
1570714916,-1.9650421,11.387421,-6.1345367,-1.3917847,0.7708435,0.16040039,-1.2124426,1.8284073,-3.6745753
1570714916,-0.79966736,9.135071,-1.6585846,-0.23065186,-0.11758423,0.27864075,0.19880298,1.4365435,-1.1794162
1570714916,-1.1097107,8.608353,-1.7046661,-0.15608215,-0.11012268,0.23071289,0.19880298,1.4365435,-1.1794162
1570714916,-2.5953217,5.5048676,-3.4440613,0.021820068,-0.4914856,-0.18901062,-2.1493475,-3.211876,-2.1008909
1570714916,-8.178589,12.015305,7.2807617,-1.3246765,2.2643433,-1.041214,-7.0876374,3.201892,7.8506293
1570714916,-8.178589,12.015305,7.2807617,-1.3246765,2.2643433,-1.041214,-7.0876374,3.201892,7.8506293
1570714916,-1.012146,7.7727814,1.4580688,-0.98165894,1.8020172,-0.63108826,-0.40270066,-0.84190464,2.3226953
1570714916,-0.802063,7.6542664,1.1911163,-0.98805237,1.6954956,-0.6641083,0.18596053,-1.068368,1.7356896
1570714916,2.2840729,8.191162,2.466629,-0.776062,-2.4494476,-0.60020447,3.6279678,-1.3576107,1.2193942
1570714916,2.3834229,8.523956,2.8682556,-0.84851074,-2.4153595,-0.59381104,3.9135118,-0.74988747,1.7481925
1570714916,1.2150574,9.637863,3.8456879,-2.1832886,0.9604645,0.4394989,3.3033211,1.511158,1.9710008
1570714916,1.2150574,9.637863,3.8456879,-2.1832886,0.9604645,0.4394989,3.3033211,1.511158,1.9710008
1570714916,-0.65122986,7.424423,3.3973694,-1.3630371,2.8928528,1.473877,0.7074797,-0.9926243,2.128967
1570714916,-0.41958618,6.664261,1.1360474,-0.9582367,3.3487854,1.8339233,0.8945724,-1.9691591,0.10024369
1570714916,0.68055725,10.226837,-0.49320984,-1.8924713,3.7205658,1.5665436,1.3849077,0.93920326,-3.5192435
1570714916,-0.2633667,9.531311,1.2162476,-1.5334778,3.373291,0.91567993,0.9615286,1.5230865,-1.1590974
1570714916,-0.5015869,8.57843,0.165802,-0.6098938,1.92453,0.32337952,0.32612175,0.11294651,-2.7646122
1570714916,0.26216125,8.222885,2.3134003,0.4404602,0.2052002,-0.340271,1.2959605,-0.14370537,-0.45690584
1570714916,-0.21907043,8.352173,1.7968445,0.84739685,-0.07923889,-0.6108551,1.003824,-0.34801865,-0.421391
1570714916,-0.9468994,9.74321,0.14125061,0.37121582,0.16044617,-0.6715698,0.45938754,1.064044,-2.126389
1570714917,-0.9941864,10.245392,1.0690155,-0.5108185,0.7665863,-0.42655945,0.39844108,1.7987633,-1.5933018
1570714917,1.0504608,10.177155,-0.19392395,-0.49163818,0.5567322,0.11140442,2.3779757,1.7504387,-1.3304081
1570714917,2.7503357,10.134659,-0.8439636,-1.252243,-1.7751312,0.065597534,4.103744,1.5539274,-4.2313566
1570714917,2.7102356,10.246582,-0.3657074,-1.249054,-1.8624878,0.04748535,4.103744,1.5539274,-4.2313566
1570714917,2.0745697,13.876801,2.6455994,1.6708374,-0.5905609,0.102874756,3.799502,6.037881,0.20813084
1570714917,2.0745697,13.876801,2.6455994,1.6708374,-0.5905609,0.102874756,3.4811835,5.774523,0.12607455
1570714917,-0.106536865,10.9049835,3.696045,3.63945,-2.346115,-0.2422638,0.69413763,1.5927744,1.6800417
1570714917,-0.106536865,10.9049835,3.696045,3.63945,-2.346115,-0.2422638,0.69413763,1.5927744,1.6800417
1570714917,-9.9006195,9.894638,-2.4366913,1.5589905,1.3397064,0.2903595,-12.328724,-0.8303213,1.18047
1570714917,-9.9006195,9.894638,-2.4366913,1.5589905,1.3397064,0.2903595,-12.328724,-0.8303213,1.18047
1570714917,4.1910553,8.289917,2.849701,1.6186523,-2.3706207,-0.1602478,5.1182795,-0.3448696,3.5251129
1570714917,4.187454,7.9397736,3.2321777,1.6186523,-2.3706207,-0.1602478,5.1182795,-0.3448696,3.5251129
1570714917,-0.3717041,7.1814117,2.9753876,2.472992,-1.976471,0.27545166,2.6097057,-0.859684,5.7606125
1570714917,-1.3305817,6.7863617,2.367859,2.5017548,-2.0457153,0.28077698,2.6097057,-0.859684,5.7606125
1570714917,-3.5093079,3.6194305,0.55426025,0.6652374,-1.8294678,0.8347168,-2.644282,-4.861739,3.1391947
1570714917,-3.5093079,3.6194305,0.55426025,0.6652374,-1.8294678,0.8347168,-2.644282,-4.861739,3.1391947
1570714917,-1.7765045,3.5218658,1.4957733,-1.1180267,-0.29441833,0.43736267,-1.0231614,-5.1002197,3.5267627
1570714917,-1.6885071,3.5278625,1.593338,-1.172348,-0.24967957,0.41926575,-1.0231614,-5.1002197,3.5267627
1570714917,-1.5233154,5.9519806,-0.14724731,-1.7806091,0.4320984,0.18595886,-0.76971084,-3.6702356,2.3967252
1570714917,-2.0961304,8.617935,-3.2597046,-2.0352173,0.50878906,0.08476257,-1.3204494,-0.8151388,-0.81239426
1570714917,-0.29328918,7.3226624,-5.2881927,0.21995544,-0.9420929,0.30847168,0.669045,-0.38201523,-4.8469
1570714917,-0.29328918,7.3226624,-5.2881927,0.21995544,-0.9420929,0.30847168,0.669045,-0.38201523,-4.8469
1570714917,-1.908783,7.9900513,-1.2982483,-0.822937,0.40226746,-0.2944641,-1.065539,-2.5197315,-0.54087853
1570714917,-6.9521637,13.22377,6.1644745,-1.4716797,2.08432,-1.1892853,-5.385686,4.8300247,7.1628876
1570714917,-7.037155,13.020859,5.33667,-1.3960571,2.0321198,-1.1562653,-5.9472847,4.387534,7.128616
1570714917,-2.8149872,7.7500305,2.3217773,-0.70362854,1.0840302,-0.4382782,-2.4921498,-0.12662983,3.0151567
1570714917,-1.1001282,7.1299286,2.106903,-0.20721436,-0.47657776,-0.6939392,0.38659382,-1.6122484,2.174316
1570714917,-1.1001282,7.1299286,2.106903,-0.20721436,-0.47657776,-0.6939392,0.3849169,-1.7059469,2.3230212
1570714917,0.62727356,10.052658,0.68414307,-0.7345276,-2.3855286,-0.54907227,2.3306189,0.46281242,0.3437547
1570714917,0.62727356,10.052658,0.68414307,-0.7345276,-2.3855286,-0.54907227,2.3306189,0.46281242,0.3437547
1570714917,1.9871826,9.060852,3.1363983,-1.8647766,-0.118652344,0.52897644,3.9779859,0.85055065,1.9894899
1570714917,1.5125427,8.26239,3.4356842,-1.8019257,0.35327148,0.6355133,3.5143874,-0.043457985,2.2171493
1570714917,-0.9038086,6.7253113,2.2900543,-1.1126862,1.6017609,1.1521606,0.87412643,-2.1168594,1.0644104
1570714918,0.14544678,6.5008545,0.47584534,-0.4415741,1.5548859,1.3471069,1.0733292,-2.0336828,-0.6557368
1570714918,-0.03352356,7.7649994,-0.30885315,-0.52467346,1.3269196,1.0520325,1.1236572,-1.2956877,-1.8371127
1570714918,-0.97024536,8.0421295,1.6041107,-1.0040436,0.9423523,0.52578735,-0.050575078,-0.07858467,-0.47908175
1570714918,-0.97024536,8.0421295,1.6041107,-1.0040436,0.9423523,0.52578735,-0.050575078,-0.07858467,-0.47908175
1570714918,-0.22564697,10.191513,2.9245148,-1.3087006,1.7839203,-0.0025787354,0.04512024,1.3003092,0.92780495
1570714918,-0.22564697,10.191513,2.9245148,-1.3087006,1.7839203,-0.0025787354,0.04512024,1.3003092,0.92780495
1570714918,-0.4237671,10.286682,-0.39204407,-1.3736877,1.6987,-0.29234314,0.42785096,1.8674345,-2.7135398
1570714918,0.66978455,10.736206,0.12509155,-0.69937134,-1.5322571,0.12312317,1.5305572,2.3488827,-2.948914
1570714918,0.5680237,10.801437,-0.79667664,-0.6908417,-1.817749,0.14974976,1.4049923,2.514576,-3.7991714
1570714918,2.1601715,12.387009,1.2904816,1.4759064,1.209732,-0.48408508,2.808926,4.157449,-1.387989
1570714918,2.1601715,12.387009,1.2904816,1.4759064,1.209732,-0.48408508,2.808926,4.157449,-1.387989
1570714918,1.3497314,11.188705,-2.4792023,2.775528,-1.228653,-0.1836853,2.8521938,3.107586,-3.5421033
1570714918,1.4089813,11.118668,-2.956833,2.745697,-1.4566193,-0.13041687,2.8521938,3.107586,-3.5421033
1570714918,-0.46028137,10.899597,5.9944763,2.7819214,-2.215088,-0.9208374,0.028756678,1.3118038,4.8800025
1570714918,-0.46028137,10.899597,5.9944763,2.7819214,-2.215088,-0.9208374,0.028756678,1.3118038,4.8800025
1570714918,-4.68486,10.389633,5.459976,1.9957428,0.015579224,-1.1562653,-2.6346965,1.6089277,5.0387487
1570714918,0.80804443,9.275742,-2.379837,1.789093,1.0776367,0.442688,1.3286595,0.26036072,-0.2050187
1570714918,0.80804443,9.275742,-2.379837,1.789093,1.0776367,0.442688,1.3286595,0.26036072,-0.2050187
1570714918,1.992569,10.322006,2.178131,1.5738983,-0.03236389,1.3566895,2.591212,0.9554157,2.928496
1570714918,-2.2445679,5.470749,0.14305115,2.4197235,-1.7421112,0.3414917,-1.6634965,-3.036107,2.6400561
1570714918,-2.2445679,5.470749,0.14305115,2.4197235,-1.7421112,0.3414917,-1.6634965,-3.036107,2.6400561
1570714918,-2.268509,3.8133698,-0.6290741,0.37974548,-1.072052,0.4394989,-1.7781041,-4.9175215,1.7210648
1570714918,-1.9824066,3.783432,0.37948608,-0.10920715,-0.7109375,0.42245483,-1.5801442,-4.6546183,2.7514937
1570714918,-1.2114716,4.2904053,0.9319458,-1.1446533,-0.26779175,0.16572571,-0.74423397,-4.51091,3.2718449
1570714918,-1.3706818,6.6283417,0.094573975,-1.4003143,-0.18682861,0.09436035,-0.88283515,-2.283287,2.153994
1570714918,-1.4048004,6.9204407,-0.11312866,-1.3981781,-0.14208984,0.11672974,-0.88283515,-2.283287,2.153994
1570714918,2.8006134,17.636887,-18.355743,-0.25090027,0.17536926,0.5907593,2.539696,9.792311,-16.690153
1570714918,3.039444,16.960526,-17.525558,-0.26687622,-0.13569641,0.5907593,2.539696,9.792311,-16.690153
1570714918,-3.1322174,6.7845764,-1.7166443,-0.5587616,0.020904541,-0.42337036,-2.839806,-2.4695148,-0.18706405
1570714918,-3.1322174,6.7845764,-1.7166443,-0.5587616,0.020904541,-0.42337036,-2.839806,-2.4695148,-0.18706405
1570714918,-7.278366,12.321167,5.901703,-1.504715,1.2459564,-1.3235168,-6.2253904,2.9311495,5.854232
1570714918,-7.4214325,12.776062,6.3865356,-1.504715,1.2459564,-1.3235168,-6.2253904,2.9311495,5.854232
1570714919,0.11911011,7.381317,-0.9977875,-0.5385132,0.9285126,-0.7120514,0.84465873,-1.4400854,-0.019185565
1570714919,0.5686188,7.3310394,-1.5137329,-0.5875244,0.7697754,-0.75146484,0.84465873,-1.4400854,-0.019185565
1570714919,0.35554504,5.803543,1.5514374,-0.7451782,-0.6161194,-1.0358887,1.834377,-3.0275984,1.2938336
1570714919,0.30107117,7.399872,3.493744,-0.42666626,-1.8901825,-0.4851532,1.6995978,-1.9321136,2.480861
1570714919,0.9612732,10.887634,3.289627,-0.8911133,-0.49468994,-0.08779907,2.1437955,1.6680698,3.8193119
1570714919,2.0811615,11.015717,1.6705475,-1.8349457,0.6888275,0.24775696,3.881515,2.5573587,1.2494388
