time,ax,ay,az,gx,gy,gz,la_x,la_y,la_z,fox,foy,foz
1570715375,21.89206,-0.69999695,6.170044,0.05708313,1.2484283,5.2502594,12.301621,1.2778741,2.9318538
1570715375,15.70903,-1.6121826,5.2710266,0.5055542,1.0939636,3.971939,6.5288086,1.5162337,2.9259665
1570715375,14.771698,-2.4309998,0.03012085,0.08052063,0.37597656,3.5170746,6.348983,0.8881192,-2.9464607
1570715375,13.743393,-3.9608917,4.075119,-0.21136475,-0.75427246,3.3434448,5.3008385,1.5676374,0.2557063
1570715375,20.164642,-5.689514,-5.7698364,-0.05050659,-2.7740173,2.9599457,10.363165,-0.5654993,-6.3298607
1570715375,13.742203,-4.8766785,1.3792572,-1.3235016,-1.8823853,2.1993408,6.8067646,1.5738368,-2.4713607
1570715375,14.130051,-5.636841,2.7259827,-0.66622925,-1.5489502,1.4888153,6.677923,0.5140133,1.833963
1570715375,9.197998,-5.0789948,0.09475708,-0.8942108,0.32591248,1.4920044,1.9032698,2.2157793,-1.2904559
1570715375,6.1202545,-7.482773,2.655365,-0.12721252,-0.4719696,1.8840332,-1.0078683,-0.07158518,1.5868841
1570715375,4.9327393,-6.225815,0.8321686,0.44589233,-0.80433655,2.2195892,-1.6721759,1.5755224,-0.18180966
1570715375,3.9415283,-5.6559906,0.8776703,0.64190674,-0.5007324,2.4294434,-2.0807657,2.6742077,-0.16556513
1570715375,3.6111298,-5.205887,0.8908386,0.66108704,-0.15666199,2.3484802,-1.7884007,3.5882797,-0.16388619
1570715375,1.8896942,-5.5410767,1.5252991,-0.004714966,0.18209839,2.0597992,-2.7979803,3.6739302,0.21861291
1570715376,2.374527,-11.74205,1.2942505,0.44270325,-0.45812988,2.470993,-3.127108,-2.7380056,3.1945791
1570715376,5.1314545,-3.1145477,1.0536346,-0.8281555,-0.6264343,2.410263,1.1326306,7.1706686,-0.51160324
1570715376,3.8697052,-12.425598,3.901535,-0.015365601,-1.1867676,1.2864075,0.65942955,-1.8869791,3.809289
1570715376,5.4367065,-13.406021,-1.2711334,0.20727539,-0.34521484,0.6642914,2.0730143,-3.3291445,-2.3964028
1570715376,5.7395782,-14.267944,1.2391968,0.56840515,0.57411194,-0.1889801,3.1662734,-4.484932,0.35233247
1570715376,5.374466,-10.744873,1.0201263,0.5843811,1.0854492,-0.89738464,2.4124424,-0.82201004,-0.2562636
1570715376,4.0887756,-7.835907,3.7219849,1.0296631,0.5027466,-0.8803406,1.2557893,1.1545429,2.3383577
1570715376,1.2743988,-5.1364594,2.2076416,0.2349701,-0.030960083,0.06455994,-2.112021,4.779481,0.09203553
1570715376,2.2895355,-8.603256,7.679596,-0.31469727,-3.1095734,0.8656311,-1.1532032,0.83134556,6.475453
1570715376,2.836609,-10.094849,-6.720337,0.2040863,-3.1170197,0.6706848,-0.6148381,0.071107864,-6.79886
1570715376,3.6350708,-8.828308,-0.27275085,0.8219452,-0.72550964,0.47468567,0.37894154,0.7436352,-1.4307823
1570715376,2.5935974,-8.529037,3.6082458,-0.07182312,0.19274902,-0.17512512,-0.47918868,1.3017311,1.9839952
1570715376,2.6546478,-8.3949585,1.1709595,-0.4734192,-0.27809143,0.17747498,-0.3697796,1.5460281,-0.024449468
1570715376,2.216507,-8.572128,1.9801941,-0.0036468506,0.49209595,0.08905029,-0.71448874,1.1599083,0.5484481
1570715376,0.71414185,-6.8291473,2.0220947,0.04322815,0.16505432,0.13806152,-1.684413,1.7682829,1.1999258
1570715376,1.3665619,-7.4504547,3.1713104,1.1031647,0.9767914,-0.18045044,-1.4724302,2.2239933,1.5961205
1570715376,2.9491425,-7.167938,1.714447,0.10928345,0.47930908,-0.010009766,0.04174471,2.37926,0.0070534945
1570715376,1.4168396,1.5816803,1.8413391,0.6791992,0.97465515,-0.281662,-1.3985355,11.035111,-0.05713713
1570715376,1.9220276,0.74490356,2.8899994,0.13484192,0.3312378,-0.7237396,-0.79406357,10.177871,0.707314
1570715376,0.74287415,-3.0187836,1.3158112,-1.917923,-0.36012268,-0.62467957,-2.4255831,6.801156,-0.4298749
1570715376,-2.5204163,-0.4414215,1.2260284,-1.6601257,0.31526184,0.1359253,-4.1204596,5.0055313,-0.5662204
1570715376,-0.37402344,-0.30255127,3.534027,0.7377777,0.7914276,3.7674103,-2.5908837,8.633471,2.1819367
1570715376,-1.9470062,-0.9884949,5.7091675,0.3329773,-2.644043,0.4427185,-3.0024896,10.506131,4.85658
1570715376,0.4232483,-33.823776,10.351517,1.1212769,-2.9551086,2.2057343,0.52706903,-22.18863,9.831769
1570715376,6.1837006,-12.581223,-2.8632812,-0.8409424,-0.82884216,2.134369,6.8766723,-4.542882,-5.9910383
1570715376,-0.3153534,-12.23407,-0.1877594,0.20622253,-0.3462677,-0.18365479,0.31185663,-1.7304802,-1.798438
1570715376,-2.4964752,-13.720856,0.22525024,0.100753784,0.10006714,-0.39137268,-1.4529933,-3.074029,-1.3765644
1570715376,0.16227722,-9.880569,-1.3812561,-0.7397461,0.14268494,0.08692932,0.09386447,0.2497158,-2.6545088
1570715376,0.5106354,-10.474319,-3.143402,-1.5003357,-0.76171875,0.24458313,0.6578062,-0.44746304,-4.1100802
1570715376,0.6495056,-10.606003,-2.7447662,-1.6089935,0.5410919,0.04537964,0.76146275,-0.6182537,-2.824346
1570715376,0.016235352,-9.9882965,-2.8967896,-1.5088654,0.8414917,-0.045166016,0.37168172,0.12630081,-2.512723
1570715376,1.0062408,-11.16864,-3.3301392,-1.9903564,0.31526184,-0.12399292,0.9983869,-0.94179344,-2.4660685
1570715376,-0.23873901,-11.42482,-3.6222382,-2.7988892,-0.026687622,-0.05155945,0.12760857,-2.0075722,-2.0296054
1570715376,-4.459717,-7.6707153,1.413971,-2.5922394,-0.8852997,0.5396576,-4.0533514,2.3608408,3.173443
1570715377,-3.6013947,-6.282074,0.78189087,-1.855072,-2.469345,0.339386,-3.382347,3.3454218,3.847275
1570715377,4.149826,-9.800354,-2.4837952,-1.9743805,-0.5891571,0.46296692,4.837469,0.2439661,1.3656151
1570715377,-1.0156555,-9.835068,-3.0356598,-1.5440216,-0.3420105,-0.12931824,0.6970827,-0.67161846,0.59467053
1570715377,-1.8512421,-7.07695,-2.502945,-1.4385529,-1.1377716,0.1401825,-1.4759377,1.7371225,1.698925
1570715377,-0.09269714,-5.281296,-1.9044037,-1.0859528,-0.52737427,0.11994934,0.919677,3.598277,2.5740561
1570715377,-1.0491791,-4.474457,-2.5795593,-0.8089752,-0.67544556,-0.05795288,0.298308,4.24074,2.3545866
1570715377,-2.3636017,-3.4581146,-3.400772,-0.4734192,-0.6658478,-0.089904785,-0.8887743,5.095784,1.6559076
1570715377,-2.2714233,-2.8787231,-4.921097,-0.115493774,-0.15026855,-0.021728516,-1.0282656,5.727953,0.42863703
1570715377,-2.519226,-2.7386627,-7.0543213,-4.4250488E-4,0.651886,-0.1186676,-1.1395198,5.797946,-2.0155292
1570715377,-2.0188293,-3.3395996,-8.41423,0.2775879,-0.02456665,-0.023864746,-0.97550714,5.430149,-3.0299144
1570715377,-0.94143677,-4.922165,-9.42099,0.94869995,0.03189087,0.20091248,-0.09074819,3.9307566,-5.621615
1570715377,-2.6688538,-5.6511993,3.6345825,1.8690948,0.04574585,-0.4446411,-1.076487,2.7918577,7.689193
1570715377,-4.6608276,-8.220184,-4.254303,1.8126373,3.6378174,-0.47021484,-2.4889498,1.535141,1.0116434
1570715377,-2.8663788,-11.871338,-0.1530304,1.1628265,2.4148865,0.7441864,-4.9834313,-3.038885,0.28466892
1570715377,1.528183,-6.6352234,1.2032776,1.6656342,1.8982391,0.69732666,2.4899962,2.5227346,5.7951927
1570715377,-0.30578613,-7.3594666,-1.0341034,2.0395355,3.2756195,0.70477295,0.40188932,2.3220425,1.1769054
1570715377,0.4842987,-13.471863,5.5595245,2.8065186,4.4996185,0.8752136,0.40685648,-2.8617373,6.4272404
1570715377,6.5955048,-20.362381,7.798111,3.2028046,0.101135254,1.2182312,6.388212,-9.757312,9.539251
1570715377,7.220398,-22.192749,1.3517151,3.4744415,-1.657608,0.8134308,8.621382,-12.579027,1.4649959
1570715377,2.8306274,-21.946136,-4.704422,4.719742,0.2300415,-0.40629578,4.7263584,-12.156344,-4.023503
1570715377,-12.388123,-17.725159,-17.810272,3.6587372,1.3730621,-0.19430542,-10.900572,-7.588397,-19.043394
1570715377,1.2085571,-14.222443,-8.618942,1.664566,0.62205505,1.0935974,1.1177758,-5.975026,-11.14955
1570715377,8.297775,-3.5574799,-4.3201447,1.2714844,2.4127655,0.9348755,9.10034,4.8751173,-8.849605
1570715377,11.790924,-1.2985535,-4.9007416,0.6451111,1.1557465,0.020874023,13.945668,9.017038,-8.579026
1570715377,10.041962,-8.066956,-8.149673,-0.85266113,-2.0475006,-0.7354584,11.774639,1.3877945,-10.318896
1570715377,4.0767975,-2.7805634,-8.33403,-2.383438,-1.5659943,-0.9176178,6.503185,6.064081,-12.325956
1570715377,-9.971176,1.6283722,-2.9805908,-3.685196,-2.2488403,-0.95384216,-8.550174,11.211464,-5.052242
1570715377,-7.9253235,-12.000626,-6.099045,-5.0029297,-1.3593445,0.19664001,-7.847865,-0.38607502,-6.9366045
1570715377,-1.9170837,-38.35959,-1.186142,-6.284439,-0.588089,0.44485474,-1.1593416,-28.634066,-1.9209757
1570715377,-5.2725525,-27.480347,2.9701996,-3.9504395,4.131027,-1.1839294,-4.6650314,-19.193531,5.979208
1570715377,7.6465607,-25.034668,-8.527954,-4.642868,-0.47729492,-2.7317657,4.970685,-15.728512,-2.5699644
1570715377,15.194275,-16.670517,3.039627,-5.2191772,-5.236908,-1.4246826,15.372738,-9.54671,7.2975564
1570715377,-3.7067413,-11.234482,12.727768,-4.738739,-10.213821,-0.7503662,-1.2174027,-3.713646,18.778328
1570715378,-14.655426,-1.9976501,7.248642,-2.9650726,-7.2065735,-0.27738953,-11.511516,2.956862,14.83501
1570715378,-6.686325,14.106949,3.422699,-0.08779907,-0.6711731,0.50556946,-5.124128,19.861551,10.56778
1570715378,-2.761032,9.128204,9.057449,3.1474152,4.271652,0.82089233,-0.6492212,17.553387,15.241419
1570715378,1.5389557,4.324234,6.0144196,3.3721771,3.059372,-0.0068206787,3.3118412,12.649252,12.071423
1570715378,-0.25190735,-2.775772,1.3325653,3.6938934,2.8889313,-1.0305328,1.5413362,5.5345855,7.8495984
1570715378,1.0529327,-6.459244,-14.533813,2.0065155,2.1443176,-0.98579407,0.86559856,2.6090603,-9.348893
1570715378,-2.7694092,-2.4501648,-6.29776,3.0121155,3.0998535,0.82196045,-2.8280535,6.5051622,6.244149
1570715378,-11.495087,-24.373856,-0.8868561,1.553772,2.58107,0.815567,-6.763744,-8.293136,2.796092
1570715378,-3.2482605,-23.185135,12.647568,2.4379425,3.698532,1.5218353,-5.277828,-15.385298,16.548931
1570715378,1.0541229,-6.2749023,4.1361694,3.1058655,0.7402954,1.6603241,2.6464546,2.9155788,7.098033
1570715378,-5.8064575,-25.682297,12.50032,3.9985504,0.21618652,2.915207,-4.2397885,-11.538991,13.303907
1570715378,20.439972,-38.117783,-7.8180695,7.5991516,-1.6086121,0.8347473,18.888605,-28.745056,-1.0648763
1570715378,-1.8117371,-20.3564,-19.022934,2.8949432,2.6194305,-0.68325806,4.187544,-11.851023,-25.03962
1570715378,-7.3351593,-14.72403,-6.8735657,2.2760162,-1.3444214,0.49705505,-5.2010646,-6.568099,-9.11203
1570715378,-3.3775482,-5.8463287,-19.508957,0.97639465,2.724884,1.3481903,-3.4231362,3.1142263,-24.051315
1570715378,15.361877,-2.4453735,1.9035797,-0.628952,-1.3209839,0.37028503,16.27827,6.9224663,0.22618628
1570715378,18.852615,-3.016388,-15.043777,-2.2119293,-1.256012,-0.27845764,21.988605,5.0876703,-19.256168
1570715378,-3.9605255,1.2333221,-0.5277252,-3.1696014,-1.7833099,-1.271286,-0.19388437,10.172495,-3.1197395
1570715378,-9.213409,-1.9162445,-8.8811035,-4.437271,-3.8307495,0.3361969,-7.994222,7.8197784,-9.708018
1570715378,-5.16362,-7.9664,-4.1657257,-5.1605835,-1.2304382,0.67388916,-4.4883976,2.8217726,-3.8893628
1570715378,4.050461,-34.519287,-0.80426025,-6.8916473,1.8417816,0.7090454,3.5062795,-20.424026,-2.4131584
1570715378,0.37417603,-38.427826,-29.194702,-5.2841644,2.6854706,-2.1245575,1.8184105,-29.435305,-24.97229
1570715378,1.7316895,-30.252823,0.17137146,-5.24794,-1.5745239,-3.8950348,1.3626738,-21.951212,4.9880643
1570715378,11.867538,-14.283493,15.907272,-5.8881683,-7.597534,-1.7229614,12.593477,-7.2950263,22.338264
1570715378,-8.231781,-3.8699188,12.427292,-4.2188873,-9.63858,-0.96128845,-4.134855,1.3151951,20.715235
1570715378,-14.870911,14.314041,9.787689,-0.89100647,-3.8307495,-0.6406555,-13.063843,17.151123,17.848171
1570715378,-2.3360596,12.27298,9.112518,3.2219849,1.9749451,0.19026184,0.7272911,18.76941,15.963474
1570715378,-0.01966858,6.8249817,6.7614136,4.4736633,4.7531433,-0.031326294,2.9876926,14.94236,13.481148
1570715378,-0.77264404,-0.7023926,5.8204956,4.4470367,4.743561,-0.93040466,1.5259665,7.4750557,12.101452
1570715378,-3.5319672,-5.8607025,-6.941803,3.8430328,3.408783,-0.5916443,-2.5741515,2.6361446,-1.777329
1570715378,3.3046722,-11.387711,-3.297821,1.9543152,3.0774841,0.25630188,4.0130787,-3.6967983,-1.5839105
1570715378,0.21017456,-34.921524,6.2753906,-1.3671875,4.6753845,-0.29338074,2.744742,-23.5345,8.666522
1570715378,-4.0395355,-8.8498535,14.092468,-0.45851135,1.7277985,0.9178314,-4.6487236,-1.1756659,17.826199
1570715379,-2.471344,1.3135223,27.839966,5.531479,0.89476013,0.8421936,-2.0863643,10.305399,31.235561
1570715379,-5.3922577,-16.85727,6.9697113,4.488571,1.6074219,3.3434448,-4.0901814,-6.9199734,8.365078
1570715379,11.415039,-38.426636,14.353424,8.430054,-5.751419,3.3210602,7.069912,-29.140408,7.83156
1570715379,-3.8025208,-19.754257,-22.198853,2.7777557,5.785385,-1.2680969,-2.0787034,-11.182654,-27.304045
1570715379,-9.863434,-8.566147,-2.3305664,2.7287598,-0.006454468,0.36709595,-7.9551,0.1387825,-4.6976604
1570715379,-2.6149902,-0.42825317,-14.046585,1.6294098,1.5573578,1.9766998,-5.4501314,9.017667,-17.822353
1570715379,17.1707,-6.6471863,-3.3552856,0.38624573,-0.7691803,0.121017456,19.190916,1.7851715,-6.19594
1570715379,15.863464,-3.8615417,-15.321503,-1.6313629,-0.16410828,-0.40203857,18.859531,4.3844137,-19.729193
1570715379,-0.9977112,3.3450012,3.613037,-2.1799774,-2.9401855,-0.50642395,1.159279,11.575839,1.6470478
1570715379,-8.316788,1.7624359,-7.061508,-3.5978394,-4.589218,0.1561737,-6.520809,10.953577,-9.311264
1570715379,-5.8256073,-4.3655243,-4.637375,-3.8694916,-0.78515625,0.58013916,-4.551577,4.918009,-6.016058
1570715379,4.615494,-28.471542,-2.4933777,-5.7315674,0.4846344,0.37242126,5.4306173,-17.766754,-3.241935
1570715379,2.350586,-38.427826,4.545578,-6.031967,-2.7633514,-1.6899414,4.384746,-29.320414,7.044235
1570715379,-9.211014,-38.40747,-21.12146,-4.835678,4.1981506,-1.4481201,-8.440655,-29.431328,-19.312757
1570715379,2.6091614,-23.837555,8.954498,-6.5401,-3.22995,-2.8872986,-1.5820167,-18.61066,12.794457
1570715379,3.0484924,-11.515808,12.688263,-4.8900146,-6.73999,-1.3373413,5.0107274,-4.014567,18.505444
1570715379,-9.007507,-2.1879883,12.973175,-3.8471222,-8.042816,-0.20069885,-6.2278967,2.0838027,20.55265
1570715379,-13.077652,18.750504,11.059006,-0.5618439,-3.4760132,-0.53411865,-10.441233,20.024035,17.982075
1570715379,1.0481415,15.566208,15.224915,3.8185272,2.9368744,0.87416077,3.7398405,22.687477,21.298183
1570715379,1.8023071,2.1850128,11.485184,4.6547546,4.861801,-0.2720642,4.524077,9.569479,16.965563
1570715379,-1.5591431,-3.787323,-1.5237122,4.581253,4.5837708,-1.0891266,0.81004214,4.274209,4.654591
1570715379,-5.318039,-11.947952,-16.129547,2.9322205,4.494293,-0.1932373,-4.332446,-3.126234,-11.7916565
1570715379,3.809845,-14.5660095,-12.588516,1.0999756,0.2374878,0.386261,4.4017296,-6.8846226,-9.780777
1570715379,8.813736,-26.163528,23.197617,-1.5802307,4.8064117,-0.95277405,12.813471,-17.013351,28.10404
1570715379,-1.9841156,-7.9520264,21.644974,0.37878418,-0.8352356,-0.0440979,-5.6775737,-4.2667046,26.72071
1570715379,-9.005112,-0.2032013,17.444351,7.2156525,0.4803772,-0.10482788,-8.337817,8.735605,21.072304
1570715379,-13.613953,-15.733185,4.956192,5.1799316,6.4394684,4.336258,-12.424771,-6.003523,4.6971107
1570715379,6.018509,-38.427826,9.633255,8.011414,-11.836212,1.9436798,7.2574606,-29.487204,11.345466
1570715379,-1.1174164,-20.22351,-32.971558,2.6254272,6.6812744,-0.6907196,2.8666797,-11.482611,-41.999054
1570715379,-11.302353,-4.791687,4.5395966,3.2667236,3.598404,0.15722656,-7.6653466,1.9449024,0.18737459
1570715379,6.1789093,2.1143951,-9.371918,0.93058777,-2.3521729,2.091751,6.8722,11.103544,-11.785152
1570715379,22.230835,-8.12561,-22.54361,-0.65452576,0.8617401,-0.7279968,26.670525,-2.1500301,-27.774046
1570715379,1.3689575,0.5018921,4.544388,-2.1586761,-2.3596191,-0.5905762,3.5962045,7.519374,3.2638738
1570715379,-6.425354,3.2372742,-4.0543823,-3.7906647,-4.2920074,0.19451904,-3.6744058,12.372752,-5.5192204
1570715380,-8.416138,-2.703949,-7.190796,-4.2508545,-2.1689453,0.68666077,-7.0947075,6.1749372,-8.975473
1570715380,-4.997223,-10.0828705,-4.6637115,-4.911316,-0.47517395,1.3663025,-3.5570817,-0.68053055,-4.8628507
1570715380,7.68367,-38.427826,2.5799408,-6.4761963,1.3432312,-0.03451538,9.554504,-29.70268,3.1348386
1570715380,-7.4141693,-37.29297,-9.209106,-6.170456,-0.7702484,-0.7279968,-2.7941797,-29.694874,-3.8281555
1570715380,-6.692322,-32.13347,6.663254,-7.141983,-1.5553436,-2.03508,-7.703944,-28.117573,8.020334
1570715380,15.208649,-9.507065,11.996338,-5.4439545,-5.0036163,-1.2116394,18.318615,-4.2405195,16.043139
1570715380,-6.7785034,-1.7139435,14.647919,-3.9611053,-8.022568,-0.4680786,-2.6533499,2.7204003,21.422241
1570715380,-9.074539,15.982803,13.222168,-0.6129761,-3.2427216,-0.3050995,-5.514577,19.885092,19.490738
1570715380,-2.6054077,17.218216,16.21492,3.7865753,0.92778015,0.38946533,-0.88823414,25.133139,22.645227
1570715380,4.619095,1.6044159,6.3974915,4.6217346,4.316391,-0.5916443,8.357185,9.8112335,11.754852
1570715380,-1.3652191,-4.733032,-0.5049896,4.1711273,6.1742096,-1.3937988,2.234545,2.7641268,4.949257
1570715380,-7.1268616,-10.834656,-10.764145,3.0099945,4.938507,-0.9549103,-5.2320714,-1.6296501,-6.4879017
1570715380,2.2655945,-11.733673,-5.808136,1.5974579,-0.0053863525,0.14764404,2.442254,-5.6465187,-7.0969577
1570715380,18.45758,-5.7661285,8.932953,0.663208,3.9382172,0.29464722,17.29929,5.9990664,11.540305
1570715380,-10.105255,-18.923462,22.630188,-0.4979248,1.9728088,0.65364075,-12.743073,-17.348858,28.827976
1570715380,-0.18966675,2.4364014,23.9841,5.630539,0.92671204,-0.58099365,2.1087294,11.122562,29.041027
1570715380,-10.259674,-16.178513,10.462845,6.105652,3.328888,2.6073456,-7.8820953,-3.6324463,7.5361853
1570715380,5.9371033,-38.427826,28.858704,6.0875397,-7.790344,1.2022552,2.39474,-29.743622,27.105637
1570715380,-5.942932,-19.5699,-37.047684,2.9002686,4.6412964,-0.95596313,-4.235197,-13.285804,-41.993065
1570715380,-10.386566,-2.8607635,4.9813232,3.6022797,6.5726166,-0.94744873,-5.4523797,2.1333914,-3.5752304
1570715380,3.1071472,3.8896942,-1.7284241,1.0488434,-2.3926392,2.0555267,-0.61857045,14.827123,-4.859151
1570715380,29.651672,-13.949509,-38.564407,-0.26782227,-0.59555054,-0.21560669,31.822878,-8.405762,-39.95471
1570715380,-1.0515747,0.7365265,8.357147,-1.8135223,-1.1164551,-0.9453125,2.942069,7.5162654,4.909213
1570715380,-8.480789,4.372116,-4.476959,-4.4436646,-4.564728,0.85816956,-6.226338,13.851979,-6.8341184
1570715380,-9.161926,-2.858368,-5.2095947,-4.500122,-3.2107697,1.3418121,-8.0996475,5.951229,-6.742032
1570715380,-6.262558,-9.922455,-6.116989,-5.1755066,-1.1974182,2.3079987,-5.312338,0.26987362,-6.632738
1570715380,3.6099396,-38.38234,-5.765045,-6.264206,0.62312317,1.057373,6.3958697,-30.022905,-3.6028082
1570715380,-9.351074,-38.265015,-9.574219,-6.9449005,4.430374,-1.0252075,-6.6923385,-30.194757,-6.534207
1570715380,0.9511719,-27.718567,9.398636,-7.2463684,-3.2917328,-1.7953949,1.4333017,-20.993433,12.055311
1570715380,13.290894,-10.787964,16.127533,-5.7337036,-7.049988,-1.1541138,16.799032,-4.557681,21.338062
1570715380,-8.873428,0.84187317,15.3350525,-3.9365997,-7.9203033,-0.19111633,-5.607692,6.0424523,21.252337
1570715380,-8.040253,21.70494,12.590103,-0.2507782,-2.3745422,-0.062210083,-5.079952,26.29186,18.168194
1570715380,1.4707184,11.960541,14.085281,3.8909607,1.5733337,0.10076904,4.7204547,19.245861,20.855482
1570715381,1.9315948,0.9855194,9.982819,4.305359,5.2186737,-1.1796722,6.174151,7.828124,14.479274
1570715381,-1.7028046,-1.7354889,4.647339,4.8262634,5.2666016,-1.7261505,1.2028208,5.5070314,9.906498
1570715381,-3.8336334,-10.0828705,-15.09285,4.325592,4.655136,-1.2158966,-2.0998135,-1.9696927,-10.839868
1570715381,0.031799316,-12.720093,-6.282196,1.506897,2.4436493,0.42781067,-0.79193664,-6.2368317,-8.59432
1570715381,17.760864,-38.427826,-39.736374,-0.8952637,7.899933,0.28292847,16.22008,-27.33515,-28.791111
1570715381,9.536789,-6.096527,26.29332,-0.75465393,0.3674469,0.36495972,1.7483885,-5.9494967,24.40844
1570715381,-2.2450867,3.1558685,15.798325,7.128296,-0.95773315,-2.4611816,-0.40234637,11.578071,19.29785
1570715381,-10.75647,-14.155411,3.264679,5.6891327,5.5787354,3.7855225,-9.274422,-4.341386,2.4071648
1570715381,17.499893,-38.427826,-4.601471,9.688141,-8.8151245,-1.4321442,19.947922,-30.226889,-0.73733115
1570715381,-3.8659668,-23.403015,-31.15915,2.909851,7.3182983,-1.2744904,-3.7053351,-15.638201,-42.286823
1570715381,-15.000198,2.9020844,11.087738,3.0067902,5.3635406,-0.281662,-11.306924,5.765747,5.396057
1570715381,9.1992035,-9.3311,-19.396439,-0.3722229,-6.257431,1.978836,8.167782,5.6789274,-18.46556
1570715381,12.765366,-4.5127563,-10.476837,-1.7474823,1.7192688,-0.3338623,17.176266,0.82846737,-21.982433
1570715381,-0.69963074,3.532959,-7.882721,-3.545639,-2.8027802,0.3553772,1.4895836,11.75801,-8.6723385
1570715381,-2.728714,-0.3695984,-3.1266327,-4.2849426,-2.767624,0.6515198,-0.606153,7.8242807,-3.5512352
1570715381,-6.2122803,-4.3655243,-4.621811,-5.1584625,-2.0879822,1.0808105,-4.9527473,3.9666119,-5.6495667
1570715381,-0.67329407,-18.50447,-4.946228,-6.4644775,-1.3912964,2.0065308,0.78457177,-9.299831,-4.393908
1570715381,12.472076,-38.426636,-30.039856,-8.42775,1.3453674,0.34577942,15.732732,-30.628342,-29.56445
1570715381,-10.375793,-38.427826,6.07428,-6.171524,1.3166046,-3.132309,-8.892335,-31.052528,10.2998085
1570715381,16.113647,-13.434753,13.398148,-7.8482513,-8.069443,-0.8473053,11.834955,-17.211693,14.739716
1570715381,-0.8360901,-2.1580658,18.883255,-5.7805786,-11.279083,-0.60443115,0.7424364,2.2081552,25.327368
1570715381,-20.885147,20.81311,13.918884,-1.0007324,-3.9820251,-0.5096283,-17.381424,22.673115,23.078587
1570715381,2.1782074,8.351288,15.539764,3.4073334,2.2433777,0.8113098,6.807791,14.101722,19.28355
1570715381,5.4247437,3.6466827,7.719101,4.116806,3.981903,-0.55862427,9.40036,9.225941,12.599007
1570715381,3.4303741,-1.4218445,6.7015686,4.625992,5.6469116,-1.7975311,6.834879,4.6828856,11.392091
1570715381,-4.8978577,-7.997528,-12.838715,4.8560944,4.845825,-1.4161682,-2.630957,-0.8183961,-7.312953
1570715381,-2.917862,-10.69339,5.309326,1.4728088,2.9347382,0.25097656,-1.9732782,-4.7261944,4.9457026
1570715381,4.0181427,0.5437927,-14.484726,1.5857391,3.8338318,0.88160706,4.999753,8.216055,-6.775617
1570715381,-4.835617,-29.049744,18.198517,2.8853607,3.9605865,2.9961548,-6.260975,-24.97941,22.909748
1570715381,17.071335,-5.8798523,27.85434,5.4036407,2.0676117,-0.9868622,18.80297,1.5190997,30.95593
1570715381,3.7368317,-18.113022,8.779724,6.027878,-3.3950653,0.99453735,4.7078896,-8.334194,9.883644
1570715381,3.208908,-20.592224,7.8196564,5.7136383,-3.4770813,1.403595,4.7078896,-8.334194,9.883644
1570715381,3.208908,-20.592224,7.8196564,5.7136383,-3.4770813,1.403595,4.7078896,-8.334194,9.883644
1570715382,3.208908,-20.592224,7.8196564,5.7136383,-3.4770813,1.403595,4.7078896,-8.334194,9.883644
1570715382,3.208908,-20.592224,7.8196564,5.7136383,-3.4770813,1.403595,4.7078896,-8.334194,9.883644
1570715382,3.208908,-20.592224,7.8196564,5.7136383,-3.4770813,1.403595,4.7078896,-8.334194,9.883644
1570715382,3.208908,-20.592224,7.8196564,5.7136383,-3.4770813,1.403595,4.7078896,-8.334194,9.883644
1570715382,3.208908,-20.592224,7.8196564,5.7136383,-3.4770813,1.403595,4.7078896,-8.334194,9.883644
1570715382,3.208908,-20.592224,7.8196564,5.7136383,-3.4770813,1.403595,4.7078896,-8.334194,9.883644
1570715382,3.208908,-20.592224,7.8196564,5.7136383,-3.4770813,1.403595,4.7078896,-8.334194,9.883644
1570715388,3.208908,-20.592224,7.8196564,5.7136383,-3.4770813,1.403595,4.7078896,-8.334194,9.883644
1570715388,3.208908,-20.592224,7.8196564,5.7136383,-3.4770813,1.403595,4.7078896,-8.334194,9.883644
1570715388,3.208908,-20.592224,7.8196564,5.7136383,-3.4770813,1.403595,4.7078896,-8.334194,9.883644
1570715388,3.208908,-20.592224,7.8196564,5.7136383,-3.4770813,1.403595,4.7078896,-8.334194,9.883644
1570715388,3.208908,-20.592224,7.8196564,5.7136383,-3.4770813,1.403595,4.7078896,-8.334194,9.883644
1570715388,3.208908,-20.592224,7.8196564,5.7136383,-3.4770813,1.403595,4.7078896,-8.334194,9.883644
1570715388,3.208908,-20.592224,7.8196564,5.7136383,-3.4770813,1.403595,4.7078896,-8.334194,9.883644
1570715388,3.208908,-20.592224,7.8196564,5.7136383,-3.4770813,1.403595,4.7078896,-8.334194,9.883644
1570715388,3.208908,-20.592224,7.8196564,5.7136383,-3.4770813,1.403595,4.7078896,-8.334194,9.883644
1570715388,3.208908,-20.592224,7.8196564,5.7136383,-3.4770813,1.403595,4.7078896,-8.334194,9.883644
1570715388,3.208908,-20.592224,7.8196564,5.7136383,-3.4770813,1.403595,4.7078896,-8.334194,9.883644
1570715388,3.208908,-20.592224,7.8196564,5.7136383,-3.4770813,1.403595,4.7078896,-8.334194,9.883644
1570715388,3.208908,-20.592224,7.8196564,5.7136383,-3.4770813,1.403595,4.7078896,-8.334194,9.883644
1570715388,3.208908,-20.592224,7.8196564,5.7136383,-3.4770813,1.403595,4.7078896,-8.334194,9.883644
1570715388,3.208908,-20.592224,7.8196564,5.7136383,-3.4770813,1.403595,4.7078896,-8.334194,9.883644
1570715388,3.208908,-20.592224,7.8196564,5.7136383,-3.4770813,1.403595,4.7078896,-8.334194,9.883644
1570715388,3.208908,-20.592224,7.8196564,5.7136383,-3.4770813,1.403595,4.7078896,-8.334194,9.883644
1570715388,3.208908,-20.592224,7.8196564,5.7136383,-3.4770813,1.403595,4.7078896,-8.334194,9.883644
1570715388,3.208908,-20.592224,7.8196564,5.7136383,-3.4770813,1.403595,4.7078896,-8.334194,9.883644
1570715388,3.208908,-20.592224,7.8196564,5.7136383,-3.4770813,1.403595,4.7078896,-8.334194,9.883644
1570715388,3.208908,-20.592224,7.8196564,5.7136383,-3.4770813,1.403595,4.7078896,-8.334194,9.883644
1570715388,3.208908,-20.592224,7.8196564,5.7136383,-3.4770813,1.403595,4.7078896,-8.334194,9.883644
1570715388,3.208908,-20.592224,7.8196564,5.7136383,-3.4770813,1.403595,4.7078896,-8.334194,9.883644
1570715388,3.208908,-20.592224,7.8196564,5.7136383,-3.4770813,1.403595,4.7078896,-8.334194,9.883644
1570715388,3.208908,-20.592224,7.8196564,5.7136383,-3.4770813,1.403595,4.7078896,-8.334194,9.883644
1570715388,3.208908,-20.592224,7.8196564,5.7136383,-3.4770813,1.403595,4.7078896,-8.334194,9.883644
1570715388,3.208908,-20.592224,7.8196564,5.7136383,-3.4770813,1.403595,4.7078896,-8.334194,9.883644
1570715388,3.208908,-20.592224,7.8196564,5.7136383,-3.4770813,1.403595,4.7078896,-8.334194,9.883644
1570715388,3.208908,-20.592224,7.8196564,5.7136383,-3.4770813,1.403595,4.7078896,-8.334194,9.883644
1570715388,3.208908,-20.592224,7.8196564,5.7136383,-3.4770813,1.403595,4.7078896,-8.334194,9.883644
1570715388,3.208908,-20.592224,7.8196564,5.7136383,-3.4770813,1.403595,4.7078896,-8.334194,9.883644
1570715388,3.208908,-20.592224,7.8196564,5.7136383,-3.4770813,1.403595,4.7078896,-8.334194,9.883644
1570715388,3.208908,-20.592224,7.8196564,5.7136383,-3.4770813,1.403595,4.7078896,-8.334194,9.883644
1570715388,3.208908,-20.592224,7.8196564,5.7136383,-3.4770813,1.403595,4.7078896,-8.334194,9.883644
1570715388,3.208908,-20.592224,7.8196564,5.7136383,-3.4770813,1.403595,4.7078896,-8.334194,9.883644
1570715388,3.208908,-20.592224,7.8196564,5.7136383,-3.4770813,1.403595,4.7078896,-8.334194,9.883644
1570715388,3.208908,-20.592224,7.8196564,5.7136383,-3.4770813,1.403595,4.7078896,-8.334194,9.883644
1570715388,3.208908,-20.592224,7.8196564,5.7136383,-3.4770813,1.403595,4.7078896,-8.334194,9.883644
1570715388,3.208908,-20.592224,7.8196564,5.7136383,-3.4770813,1.403595,4.7078896,-8.334194,9.883644
1570715388,3.208908,-20.592224,7.8196564,5.7136383,-3.4770813,1.403595,4.7078896,-8.334194,9.883644
1570715388,3.208908,-20.592224,7.8196564,5.7136383,-3.4770813,1.403595,4.7078896,-8.334194,9.883644
1570715388,3.208908,-20.592224,7.8196564,5.7136383,-3.4770813,1.403595,4.7078896,-8.334194,9.883644
1570715388,3.208908,-20.592224,7.8196564,5.7136383,-3.4770813,1.403595,4.7078896,-8.334194,9.883644
1570715388,3.208908,-20.592224,7.8196564,5.7136383,-3.4770813,1.403595,4.7078896,-8.334194,9.883644
1570715388,3.208908,-20.592224,7.8196564,5.7136383,-3.4770813,1.403595,4.7078896,-8.334194,9.883644
1570715388,3.208908,-20.592224,7.8196564,5.7136383,-3.4770813,1.403595,4.7078896,-8.334194,9.883644
1570715388,3.208908,-20.592224,7.8196564,5.7136383,-3.4770813,1.403595,4.7078896,-8.334194,9.883644
1570715388,3.208908,-20.592224,7.8196564,5.7136383,-3.4770813,1.403595,4.7078896,-8.334194,9.883644
1570715388,3.208908,-20.592224,7.8196564,5.7136383,-3.4770813,1.403595,4.7078896,-8.334194,9.883644
1570715388,3.208908,-20.592224,7.8196564,5.7136383,-3.4770813,1.403595,4.7078896,-8.334194,9.883644
1570715388,3.208908,-20.592224,7.8196564,5.7136383,-3.4770813,1.403595,4.7078896,-8.334194,9.883644
1570715388,3.208908,-20.592224,7.8196564,5.7136383,-3.4770813,1.403595,4.7078896,-8.334194,9.883644
1570715388,3.208908,-20.592224,7.8196564,5.7136383,-3.4770813,1.403595,4.7078896,-8.334194,9.883644
1570715388,3.208908,-20.592224,7.8196564,5.7136383,-3.4770813,1.403595,4.7078896,-8.334194,9.883644
1570715388,3.208908,-20.592224,7.8196564,5.7136383,-3.4770813,1.403595,4.7078896,-8.334194,9.883644
1570715388,3.208908,-20.592224,7.8196564,5.7136383,-3.4770813,1.403595,4.7078896,-8.334194,9.883644
1570715388,3.208908,-20.592224,7.8196564,5.7136383,-3.4770813,1.403595,4.7078896,-8.334194,9.883644
1570715388,3.208908,-20.592224,7.8196564,5.7136383,-3.4770813,1.403595,4.7078896,-8.334194,9.883644
1570715388,3.208908,-20.592224,7.8196564,5.7136383,-3.4770813,1.403595,4.7078896,-8.334194,9.883644
1570715388,3.208908,-20.592224,7.8196564,5.7136383,-3.4770813,1.403595,4.7078896,-8.334194,9.883644
1570715388,3.208908,-20.592224,7.8196564,5.7136383,-3.4770813,1.403595,4.7078896,-8.334194,9.883644
1570715388,3.208908,-20.592224,7.8196564,5.7136383,-3.4770813,1.403595,4.7078896,-8.334194,9.883644
1570715388,3.208908,-20.592224,7.8196564,5.7136383,-3.4770813,1.403595,4.7078896,-8.334194,9.883644
1570715388,3.208908,-20.592224,7.8196564,5.7136383,-3.4770813,1.403595,4.7078896,-8.334194,9.883644
1570715388,3.208908,-20.592224,7.8196564,5.7136383,-3.4770813,1.403595,4.7078896,-8.334194,9.883644
1570715388,3.208908,-20.592224,7.8196564,5.7136383,-3.4770813,1.403595,4.7078896,-8.334194,9.883644
1570715388,3.208908,-20.592224,7.8196564,5.7136383,-3.4770813,1.403595,4.7078896,-8.334194,9.883644
1570715388,3.208908,-20.592224,7.8196564,5.7136383,-3.4770813,1.403595,4.7078896,-8.334194,9.883644
1570715388,3.208908,-20.592224,7.8196564,5.7136383,-3.4770813,1.403595,4.7078896,-8.334194,9.883644
1570715388,3.208908,-20.592224,7.8196564,5.7136383,-3.4770813,1.403595,4.7078896,-8.334194,9.883644
1570715388,3.208908,-20.592224,7.8196564,5.7136383,-3.4770813,1.403595,4.7078896,-8.334194,9.883644
1570715388,3.208908,-20.592224,7.8196564,5.7136383,-3.4770813,1.403595,4.7078896,-8.334194,9.883644
1570715388,3.208908,-20.592224,7.8196564,5.7136383,-3.4770813,1.403595,4.7078896,-8.334194,9.883644
1570715388,3.208908,-20.592224,7.8196564,5.7136383,-3.4770813,1.403595,4.7078896,-8.334194,9.883644
1570715388,3.208908,-20.592224,7.8196564,5.7136383,-3.4770813,1.403595,4.7078896,-8.334194,9.883644
1570715388,3.208908,-20.592224,7.8196564,5.7136383,-3.4770813,1.403595,4.7078896,-8.334194,9.883644
1570715388,3.208908,-20.592224,7.8196564,5.7136383,-3.4770813,1.403595,4.7078896,-8.334194,9.883644
1570715388,3.208908,-20.592224,7.8196564,5.7136383,-3.4770813,1.403595,4.7078896,-8.334194,9.883644
1570715388,3.208908,-20.592224,7.8196564,5.7136383,-3.4770813,1.403595,4.7078896,-8.334194,9.883644
1570715388,3.208908,-20.592224,7.8196564,5.7136383,-3.4770813,1.403595,4.7078896,-8.334194,9.883644
1570715388,3.208908,-20.592224,7.8196564,5.7136383,-3.4770813,1.403595,4.7078896,-8.334194,9.883644
1570715388,3.208908,-20.592224,7.8196564,5.7136383,-3.4770813,1.403595,4.7078896,-8.334194,9.883644
1570715388,3.208908,-20.592224,7.8196564,5.7136383,-3.4770813,1.403595,4.7078896,-8.334194,9.883644
1570715388,3.208908,-20.592224,7.8196564,5.7136383,-3.4770813,1.403595,4.7078896,-8.334194,9.883644
1570715388,3.208908,-20.592224,7.8196564,5.7136383,-3.4770813,1.403595,4.7078896,-8.334194,9.883644
1570715388,3.208908,-20.592224,7.8196564,5.7136383,-3.4770813,1.403595,4.7078896,-8.334194,9.883644
1570715388,3.208908,-20.592224,7.8196564,5.7136383,-3.4770813,1.403595,4.7078896,-8.334194,9.883644
1570715388,3.208908,-20.592224,7.8196564,5.7136383,-3.4770813,1.403595,4.7078896,-8.334194,9.883644
1570715388,3.208908,-20.592224,7.8196564,5.7136383,-3.4770813,1.403595,4.7078896,-8.334194,9.883644
1570715388,3.208908,-20.592224,7.8196564,5.7136383,-3.4770813,1.403595,4.7078896,-8.334194,9.883644
1570715388,3.208908,-20.592224,7.8196564,5.7136383,-3.4770813,1.403595,4.7078896,-8.334194,9.883644
1570715388,3.208908,-20.592224,7.8196564,5.7136383,-3.4770813,1.403595,4.7078896,-8.334194,9.883644
1570715388,3.208908,-20.592224,7.8196564,5.7136383,-3.4770813,1.403595,4.7078896,-8.334194,9.883644
1570715388,3.208908,-20.592224,7.8196564,5.7136383,-3.4770813,1.403595,4.7078896,-8.334194,9.883644
1570715388,3.208908,-20.592224,7.8196564,5.7136383,-3.4770813,1.403595,4.7078896,-8.334194,9.883644
1570715388,3.208908,-20.592224,7.8196564,5.7136383,-3.4770813,1.403595,4.7078896,-8.334194,9.883644
1570715388,3.208908,-20.592224,7.8196564,5.7136383,-3.4770813,1.403595,4.7078896,-8.334194,9.883644
1570715388,3.208908,-20.592224,7.8196564,5.7136383,-3.4770813,1.403595,4.7078896,-8.334194,9.883644
1570715388,3.208908,-20.592224,7.8196564,5.7136383,-3.4770813,1.403595,4.7078896,-8.334194,9.883644
1570715388,3.208908,-20.592224,7.8196564,5.7136383,-3.4770813,1.403595,4.7078896,-8.334194,9.883644
1570715388,3.208908,-20.592224,7.8196564,5.7136383,-3.4770813,1.403595,4.7078896,-8.334194,9.883644
1570715388,3.208908,-20.592224,7.8196564,5.7136383,-3.4770813,1.403595,4.7078896,-8.334194,9.883644
1570715388,3.208908,-20.592224,7.8196564,5.7136383,-3.4770813,1.403595,4.7078896,-8.334194,9.883644
1570715388,3.208908,-20.592224,7.8196564,5.7136383,-3.4770813,1.403595,4.7078896,-8.334194,9.883644
1570715388,3.208908,-20.592224,7.8196564,5.7136383,-3.4770813,1.403595,4.7078896,-8.334194,9.883644
1570715388,3.208908,-20.592224,7.8196564,5.7136383,-3.4770813,1.403595,4.7078896,-8.334194,9.883644
1570715388,3.208908,-20.592224,7.8196564,5.7136383,-3.4770813,1.403595,4.7078896,-8.334194,9.883644
1570715388,3.208908,-20.592224,7.8196564,5.7136383,-3.4770813,1.403595,4.7078896,-8.334194,9.883644
1570715388,3.208908,-20.592224,7.8196564,5.7136383,-3.4770813,1.403595,4.7078896,-8.334194,9.883644
1570715388,3.208908,-20.592224,7.8196564,5.7136383,-3.4770813,1.403595,4.7078896,-8.334194,9.883644
1570715388,3.208908,-20.592224,7.8196564,5.7136383,-3.4770813,1.403595,4.7078896,-8.334194,9.883644
1570715388,3.208908,-20.592224,7.8196564,5.7136383,-3.4770813,1.403595,4.7078896,-8.334194,9.883644
1570715388,3.208908,-20.592224,7.8196564,5.7136383,-3.4770813,1.403595,4.7078896,-8.334194,9.883644
1570715388,3.208908,-20.592224,7.8196564,5.7136383,-3.4770813,1.403595,4.7078896,-8.334194,9.883644
1570715388,3.208908,-20.592224,7.8196564,5.7136383,-3.4770813,1.403595,4.7078896,-8.334194,9.883644
1570715388,3.208908,-20.592224,7.8196564,5.7136383,-3.4770813,1.403595,4.7078896,-8.334194,9.883644
1570715388,3.208908,-20.592224,7.8196564,5.7136383,-3.4770813,1.403595,4.7078896,-8.334194,9.883644
1570715388,3.208908,-20.592224,7.8196564,5.7136383,-3.4770813,1.403595,4.7078896,-8.334194,9.883644
1570715388,3.208908,-20.592224,7.8196564,5.7136383,-3.4770813,1.403595,4.7078896,-8.334194,9.883644
1570715388,3.208908,-20.592224,7.8196564,5.7136383,-3.4770813,1.403595,4.7078896,-8.334194,9.883644
1570715388,3.208908,-20.592224,7.8196564,5.7136383,-3.4770813,1.403595,4.7078896,-8.334194,9.883644
1570715388,3.208908,-20.592224,7.8196564,5.7136383,-3.4770813,1.403595,4.7078896,-8.334194,9.883644
1570715388,3.208908,-20.592224,7.8196564,5.7136383,-3.4770813,1.403595,4.7078896,-8.334194,9.883644
1570715388,3.208908,-20.592224,7.8196564,5.7136383,-3.4770813,1.403595,4.7078896,-8.334194,9.883644
1570715388,3.208908,-20.592224,7.8196564,5.7136383,-3.4770813,1.403595,4.7078896,-8.334194,9.883644
1570715388,3.208908,-20.592224,7.8196564,5.7136383,-3.4770813,1.403595,4.7078896,-8.334194,9.883644
1570715388,3.208908,-20.592224,7.8196564,5.7136383,-3.4770813,1.403595,4.7078896,-8.334194,9.883644
1570715388,3.208908,-20.592224,7.8196564,5.7136383,-3.4770813,1.403595,4.7078896,-8.334194,9.883644
1570715388,3.208908,-20.592224,7.8196564,5.7136383,-3.4770813,1.403595,4.7078896,-8.334194,9.883644
1570715388,3.208908,-20.592224,7.8196564,5.7136383,-3.4770813,1.403595,4.7078896,-8.334194,9.883644
1570715388,3.208908,-20.592224,7.8196564,5.7136383,-3.4770813,1.403595,4.7078896,-8.334194,9.883644
1570715388,3.208908,-20.592224,7.8196564,5.7136383,-3.4770813,1.403595,4.7078896,-8.334194,9.883644
1570715388,3.208908,-20.592224,7.8196564,5.7136383,-3.4770813,1.403595,4.7078896,-8.334194,9.883644
1570715388,3.208908,-20.592224,7.8196564,5.7136383,-3.4770813,1.403595,4.7078896,-8.334194,9.883644
1570715388,3.208908,-20.592224,7.8196564,5.7136383,-3.4770813,1.403595,4.7078896,-8.334194,9.883644
1570715388,3.208908,-20.592224,7.8196564,5.7136383,-3.4770813,1.403595,4.7078896,-8.334194,9.883644
1570715388,3.208908,-20.592224,7.8196564,5.7136383,-3.4770813,1.403595,4.7078896,-8.334194,9.883644
1570715388,3.208908,-20.592224,7.8196564,5.7136383,-3.4770813,1.403595,4.7078896,-8.334194,9.883644
1570715388,3.208908,-20.592224,7.8196564,5.7136383,-3.4770813,1.403595,4.7078896,-8.334194,9.883644
1570715388,3.208908,-20.592224,7.8196564,5.7136383,-3.4770813,1.403595,4.7078896,-8.334194,9.883644
1570715388,3.208908,-20.592224,7.8196564,5.7136383,-3.4770813,1.403595,4.7078896,-8.334194,9.883644
1570715388,3.208908,-20.592224,7.8196564,5.7136383,-3.4770813,1.403595,4.7078896,-8.334194,9.883644
1570715388,3.208908,-20.592224,7.8196564,5.7136383,-3.4770813,1.403595,4.7078896,-8.334194,9.883644
1570715388,3.208908,-20.592224,7.8196564,5.7136383,-3.4770813,1.403595,4.7078896,-8.334194,9.883644
1570715388,3.208908,-20.592224,7.8196564,5.7136383,-3.4770813,1.403595,4.7078896,-8.334194,9.883644
1570715388,3.208908,-20.592224,7.8196564,5.7136383,-3.4770813,1.403595,4.7078896,-8.334194,9.883644
1570715388,3.208908,-20.592224,7.8196564,5.7136383,-3.4770813,1.403595,4.7078896,-8.334194,9.883644
1570715388,3.208908,-20.592224,7.8196564,5.7136383,-3.4770813,1.403595,4.7078896,-8.334194,9.883644
1570715388,3.208908,-20.592224,7.8196564,5.7136383,-3.4770813,1.403595,4.7078896,-8.334194,9.883644
1570715388,3.208908,-20.592224,7.8196564,5.7136383,-3.4770813,1.403595,4.7078896,-8.334194,9.883644
1570715388,3.208908,-20.592224,7.8196564,5.7136383,-3.4770813,1.403595,4.7078896,-8.334194,9.883644
1570715388,3.208908,-20.592224,7.8196564,5.7136383,-3.4770813,1.403595,4.7078896,-8.334194,9.883644
1570715388,3.208908,-20.592224,7.8196564,5.7136383,-3.4770813,1.403595,4.7078896,-8.334194,9.883644
1570715388,3.208908,-20.592224,7.8196564,5.7136383,-3.4770813,1.403595,4.7078896,-8.334194,9.883644
1570715388,3.208908,-20.592224,7.8196564,5.7136383,-3.4770813,1.403595,4.7078896,-8.334194,9.883644
1570715388,3.208908,-20.592224,7.8196564,5.7136383,-3.4770813,1.403595,4.7078896,-8.334194,9.883644
1570715388,3.208908,-20.592224,7.8196564,5.7136383,-3.4770813,1.403595,4.7078896,-8.334194,9.883644
1570715388,3.208908,-20.592224,7.8196564,5.7136383,-3.4770813,1.403595,4.7078896,-8.334194,9.883644
1570715388,3.208908,-20.592224,7.8196564,5.7136383,-3.4770813,1.403595,4.7078896,-8.334194,9.883644
1570715388,3.208908,-20.592224,7.8196564,5.7136383,-3.4770813,1.403595,4.7078896,-8.334194,9.883644
1570715388,3.208908,-20.592224,7.8196564,5.7136383,-3.4770813,1.403595,4.7078896,-8.334194,9.883644
1570715388,3.208908,-20.592224,7.8196564,5.7136383,-3.4770813,1.403595,4.7078896,-8.334194,9.883644
1570715388,3.208908,-20.592224,7.8196564,5.7136383,-3.4770813,1.403595,4.7078896,-8.334194,9.883644
1570715388,3.208908,-20.592224,7.8196564,5.7136383,-3.4770813,1.403595,4.7078896,-8.334194,9.883644
1570715388,3.208908,-20.592224,7.8196564,5.7136383,-3.4770813,1.403595,4.7078896,-8.334194,9.883644
1570715388,3.208908,-20.592224,7.8196564,5.7136383,-3.4770813,1.403595,4.7078896,-8.334194,9.883644
1570715388,3.208908,-20.592224,7.8196564,5.7136383,-3.4770813,1.403595,4.7078896,-8.334194,9.883644
1570715388,3.208908,-20.592224,7.8196564,5.7136383,-3.4770813,1.403595,4.7078896,-8.334194,9.883644
1570715388,3.208908,-20.592224,7.8196564,5.7136383,-3.4770813,1.403595,4.7078896,-8.334194,9.883644
1570715388,3.208908,-20.592224,7.8196564,5.7136383,-3.4770813,1.403595,4.7078896,-8.334194,9.883644
1570715388,3.208908,-20.592224,7.8196564,5.7136383,-3.4770813,1.403595,4.7078896,-8.334194,9.883644
1570715388,3.208908,-20.592224,7.8196564,5.7136383,-3.4770813,1.403595,4.7078896,-8.334194,9.883644
1570715388,3.208908,-20.592224,7.8196564,5.7136383,-3.4770813,1.403595,4.7078896,-8.334194,9.883644
1570715388,3.208908,-20.592224,7.8196564,5.7136383,-3.4770813,1.403595,4.7078896,-8.334194,9.883644
1570715388,3.208908,-20.592224,7.8196564,5.7136383,-3.4770813,1.403595,4.7078896,-8.334194,9.883644
1570715388,3.208908,-20.592224,7.8196564,5.7136383,-3.4770813,1.403595,4.7078896,-8.334194,9.883644
1570715388,3.208908,-20.592224,7.8196564,5.7136383,-3.4770813,1.403595,4.7078896,-8.334194,9.883644
1570715388,3.208908,-20.592224,7.8196564,5.7136383,-3.4770813,1.403595,4.7078896,-8.334194,9.883644
1570715388,3.208908,-20.592224,7.8196564,5.7136383,-3.4770813,1.403595,4.7078896,-8.334194,9.883644
1570715388,3.208908,-20.592224,7.8196564,5.7136383,-3.4770813,1.403595,4.7078896,-8.334194,9.883644
1570715388,3.208908,-20.592224,7.8196564,5.7136383,-3.4770813,1.403595,4.7078896,-8.334194,9.883644
1570715388,3.208908,-20.592224,7.8196564,5.7136383,-3.4770813,1.403595,4.7078896,-8.334194,9.883644
1570715388,3.208908,-20.592224,7.8196564,5.7136383,-3.4770813,1.403595,4.7078896,-8.334194,9.883644
1570715388,3.208908,-20.592224,7.8196564,5.7136383,-3.4770813,1.403595,4.7078896,-8.334194,9.883644
1570715388,3.208908,-20.592224,7.8196564,5.7136383,-3.4770813,1.403595,4.7078896,-8.334194,9.883644
1570715388,3.208908,-20.592224,7.8196564,5.7136383,-3.4770813,1.403595,4.7078896,-8.334194,9.883644
1570715388,3.208908,-20.592224,7.8196564,5.7136383,-3.4770813,1.403595,4.7078896,-8.334194,9.883644
1570715388,3.208908,-20.592224,7.8196564,5.7136383,-3.4770813,1.403595,4.7078896,-8.334194,9.883644
1570715388,3.208908,-20.592224,7.8196564,5.7136383,-3.4770813,1.403595,4.7078896,-8.334194,9.883644
1570715388,3.208908,-20.592224,7.8196564,5.7136383,-3.4770813,1.403595,4.7078896,-8.334194,9.883644
1570715388,3.208908,-20.592224,7.8196564,5.7136383,-3.4770813,1.403595,4.7078896,-8.334194,9.883644
1570715388,3.208908,-20.592224,7.8196564,5.7136383,-3.4770813,1.403595,4.7078896,-8.334194,9.883644
1570715388,3.208908,-20.592224,7.8196564,5.7136383,-3.4770813,1.403595,4.7078896,-8.334194,9.883644
1570715388,3.208908,-20.592224,7.8196564,5.7136383,-3.4770813,1.403595,4.7078896,-8.334194,9.883644
1570715388,3.208908,-20.592224,7.8196564,5.7136383,-3.4770813,1.403595,4.7078896,-8.334194,9.883644
1570715388,3.208908,-20.592224,7.8196564,5.7136383,-3.4770813,1.403595,4.7078896,-8.334194,9.883644
1570715388,3.208908,-20.592224,7.8196564,5.7136383,-3.4770813,1.403595,4.7078896,-8.334194,9.883644
1570715388,3.208908,-20.592224,7.8196564,5.7136383,-3.4770813,1.403595,4.7078896,-8.334194,9.883644
1570715388,3.208908,-20.592224,7.8196564,5.7136383,-3.4770813,1.403595,4.7078896,-8.334194,9.883644
1570715388,3.208908,-20.592224,7.8196564,5.7136383,-3.4770813,1.403595,4.7078896,-8.334194,9.883644
1570715388,3.208908,-20.592224,7.8196564,5.7136383,-3.4770813,1.403595,4.7078896,-8.334194,9.883644
1570715388,3.208908,-20.592224,7.8196564,5.7136383,-3.4770813,1.403595,4.7078896,-8.334194,9.883644
1570715388,3.208908,-20.592224,7.8196564,5.7136383,-3.4770813,1.403595,4.7078896,-8.334194,9.883644
1570715388,3.208908,-20.592224,7.8196564,5.7136383,-3.4770813,1.403595,4.7078896,-8.334194,9.883644
1570715388,3.208908,-20.592224,7.8196564,5.7136383,-3.4770813,1.403595,4.7078896,-8.334194,9.883644
1570715388,3.208908,-20.592224,7.8196564,5.7136383,-3.4770813,1.403595,4.7078896,-8.334194,9.883644
1570715388,3.208908,-20.592224,7.8196564,5.7136383,-3.4770813,1.403595,4.7078896,-8.334194,9.883644
1570715388,3.208908,-20.592224,7.8196564,5.7136383,-3.4770813,1.403595,4.7078896,-8.334194,9.883644
1570715388,3.208908,-20.592224,7.8196564,5.7136383,-3.4770813,1.403595,4.7078896,-8.334194,9.883644
1570715388,3.208908,-20.592224,7.8196564,5.7136383,-3.4770813,1.403595,4.7078896,-8.334194,9.883644
1570715388,3.208908,-20.592224,7.8196564,5.7136383,-3.4770813,1.403595,4.7078896,-8.334194,9.883644
1570715388,3.208908,-20.592224,7.8196564,5.7136383,-3.4770813,1.403595,4.7078896,-8.334194,9.883644
1570715388,3.208908,-20.592224,7.8196564,5.7136383,-3.4770813,1.403595,4.7078896,-8.334194,9.883644
1570715388,3.208908,-20.592224,7.8196564,5.7136383,-3.4770813,1.403595,4.7078896,-8.334194,9.883644
1570715388,3.208908,-20.592224,7.8196564,5.7136383,-3.4770813,1.403595,4.7078896,-8.334194,9.883644
1570715388,3.208908,-20.592224,7.8196564,5.7136383,-3.4770813,1.403595,4.7078896,-8.334194,9.883644
1570715388,3.208908,-20.592224,7.8196564,5.7136383,-3.4770813,1.403595,4.7078896,-8.334194,9.883644
1570715388,3.208908,-20.592224,7.8196564,5.7136383,-3.4770813,1.403595,4.7078896,-8.334194,9.883644
1570715388,3.208908,-20.592224,7.8196564,5.7136383,-3.4770813,1.403595,4.7078896,-8.334194,9.883644
1570715388,3.208908,-20.592224,7.8196564,5.7136383,-3.4770813,1.403595,4.7078896,-8.334194,9.883644
1570715388,3.208908,-20.592224,7.8196564,5.7136383,-3.4770813,1.403595,4.7078896,-8.334194,9.883644
1570715388,3.208908,-20.592224,7.8196564,5.7136383,-3.4770813,1.403595,4.7078896,-8.334194,9.883644
1570715388,3.208908,-20.592224,7.8196564,5.7136383,-3.4770813,1.403595,4.7078896,-8.334194,9.883644
1570715388,-10.017868,-6.795639,-8.264587,5.7136383,-3.4770813,1.403595,4.7078896,-8.334194,9.883644
1570715388,-4.5531006,-15.028091,5.193222,5.7136383,-3.4770813,1.403595,4.7078896,-8.334194,9.883644
1570715388,-7.408188,12.695557,14.570099,-2.652954,-2.8730774,0.2808075,5.9682126,4.4150043,36.901535
1570715388,-7.408188,12.695557,14.570099,-2.652954,-2.8730774,0.2808075,5.9682126,4.4150043,36.901535
1570715393,-7.408188,12.695557,14.570099,-2.652954,-2.8730774,0.2808075,5.9682126,4.4150043,36.901535
1570715393,-7.408188,12.695557,14.570099,-2.652954,-2.8730774,0.2808075,5.9682126,4.4150043,36.901535
1570715393,-7.408188,12.695557,14.570099,-2.652954,-2.8730774,0.2808075,5.9682126,4.4150043,36.901535
1570715393,-7.408188,12.695557,14.570099,-2.652954,-2.8730774,0.2808075,5.9682126,4.4150043,36.901535
1570715393,-7.408188,12.695557,14.570099,-2.652954,-2.8730774,0.2808075,5.9682126,4.4150043,36.901535
1570715393,-7.408188,12.695557,14.570099,-2.652954,-2.8730774,0.2808075,5.9682126,4.4150043,36.901535
1570715393,-7.408188,12.695557,14.570099,-2.652954,-2.8730774,0.2808075,5.9682126,4.4150043,36.901535
1570715393,-7.408188,12.695557,14.570099,-2.652954,-2.8730774,0.2808075,5.9682126,4.4150043,36.901535
1570715393,-7.408188,12.695557,14.570099,-2.652954,-2.8730774,0.2808075,5.9682126,4.4150043,36.901535
1570715393,-7.408188,12.695557,14.570099,-2.652954,-2.8730774,0.2808075,5.9682126,4.4150043,36.901535
1570715393,-7.408188,12.695557,14.570099,-2.652954,-2.8730774,0.2808075,5.9682126,4.4150043,36.901535
1570715393,-7.408188,12.695557,14.570099,-2.652954,-2.8730774,0.2808075,5.9682126,4.4150043,36.901535
1570715393,-7.408188,12.695557,14.570099,-2.652954,-2.8730774,0.2808075,5.9682126,4.4150043,36.901535
1570715393,-7.408188,12.695557,14.570099,-2.652954,-2.8730774,0.2808075,5.9682126,4.4150043,36.901535
1570715393,-7.408188,12.695557,14.570099,-2.652954,-2.8730774,0.2808075,5.9682126,4.4150043,36.901535
1570715393,-7.408188,12.695557,14.570099,-2.652954,-2.8730774,0.2808075,5.9682126,4.4150043,36.901535
1570715393,-7.408188,12.695557,14.570099,-2.652954,-2.8730774,0.2808075,5.9682126,4.4150043,36.901535
1570715393,-7.408188,12.695557,14.570099,-2.652954,-2.8730774,0.2808075,5.9682126,4.4150043,36.901535
1570715393,-7.408188,12.695557,14.570099,-2.652954,-2.8730774,0.2808075,5.9682126,4.4150043,36.901535
1570715393,-7.408188,12.695557,14.570099,-2.652954,-2.8730774,0.2808075,5.9682126,4.4150043,36.901535
1570715393,-7.408188,12.695557,14.570099,-2.652954,-2.8730774,0.2808075,5.9682126,4.4150043,36.901535
1570715393,-7.408188,12.695557,14.570099,-2.652954,-2.8730774,0.2808075,5.9682126,4.4150043,36.901535
1570715393,-7.408188,12.695557,14.570099,-2.652954,-2.8730774,0.2808075,5.9682126,4.4150043,36.901535
1570715393,-7.408188,12.695557,14.570099,-2.652954,-2.8730774,0.2808075,5.9682126,4.4150043,36.901535
1570715393,-7.408188,12.695557,14.570099,-2.652954,-2.8730774,0.2808075,5.9682126,4.4150043,36.901535
1570715393,-7.408188,12.695557,14.570099,-2.652954,-2.8730774,0.2808075,5.9682126,4.4150043,36.901535
1570715393,-7.408188,12.695557,14.570099,-2.652954,-2.8730774,0.2808075,5.9682126,4.4150043,36.901535
1570715393,-7.408188,12.695557,14.570099,-2.652954,-2.8730774,0.2808075,5.9682126,4.4150043,36.901535
1570715393,-7.408188,12.695557,14.570099,-2.652954,-2.8730774,0.2808075,5.9682126,4.4150043,36.901535
1570715393,-7.408188,12.695557,14.570099,-2.652954,-2.8730774,0.2808075,5.9682126,4.4150043,36.901535
1570715393,-7.408188,12.695557,14.570099,-2.652954,-2.8730774,0.2808075,5.9682126,4.4150043,36.901535
1570715393,-7.408188,12.695557,14.570099,-2.652954,-2.8730774,0.2808075,5.9682126,4.4150043,36.901535
1570715393,-7.408188,12.695557,14.570099,-2.652954,-2.8730774,0.2808075,5.9682126,4.4150043,36.901535
1570715393,-7.408188,12.695557,14.570099,-2.652954,-2.8730774,0.2808075,5.9682126,4.4150043,36.901535
1570715393,-7.408188,12.695557,14.570099,-2.652954,-2.8730774,0.2808075,5.9682126,4.4150043,36.901535
1570715393,-7.408188,12.695557,14.570099,-2.652954,-2.8730774,0.2808075,5.9682126,4.4150043,36.901535
1570715393,-7.408188,12.695557,14.570099,-2.652954,-2.8730774,0.2808075,5.9682126,4.4150043,36.901535
1570715393,-7.408188,12.695557,14.570099,-2.652954,-2.8730774,0.2808075,5.9682126,4.4150043,36.901535
1570715393,-7.408188,12.695557,14.570099,-2.652954,-2.8730774,0.2808075,5.9682126,4.4150043,36.901535
1570715393,-7.408188,12.695557,14.570099,-2.652954,-2.8730774,0.2808075,5.9682126,4.4150043,36.901535
1570715393,-7.408188,12.695557,14.570099,-2.652954,-2.8730774,0.2808075,5.9682126,4.4150043,36.901535
1570715393,-7.408188,12.695557,14.570099,-2.652954,-2.8730774,0.2808075,5.9682126,4.4150043,36.901535
1570715393,-7.408188,12.695557,14.570099,-2.652954,-2.8730774,0.2808075,5.9682126,4.4150043,36.901535
1570715393,-7.408188,12.695557,14.570099,-2.652954,-2.8730774,0.2808075,5.9682126,4.4150043,36.901535
1570715393,-7.408188,12.695557,14.570099,-2.652954,-2.8730774,0.2808075,5.9682126,4.4150043,36.901535
1570715393,-7.408188,12.695557,14.570099,-2.652954,-2.8730774,0.2808075,5.9682126,4.4150043,36.901535
1570715393,-7.408188,12.695557,14.570099,-2.652954,-2.8730774,0.2808075,5.9682126,4.4150043,36.901535
1570715393,-7.408188,12.695557,14.570099,-2.652954,-2.8730774,0.2808075,5.9682126,4.4150043,36.901535
1570715393,-7.408188,12.695557,14.570099,-2.652954,-2.8730774,0.2808075,5.9682126,4.4150043,36.901535
1570715393,-7.408188,12.695557,14.570099,-2.652954,-2.8730774,0.2808075,5.9682126,4.4150043,36.901535
1570715393,-7.408188,12.695557,14.570099,-3.8417969,-3.6635132,0.9966583,5.9682126,4.4150043,36.901535
1570715393,-7.408188,12.695557,14.570099,-4.1070404,-8.492355,-1.1722107,5.9682126,4.4150043,36.901535
1570715393,-7.408188,12.695557,14.570099,-1.1807556,2.9954681,1.3066559,5.9682126,4.4150043,36.901535
1570715393,-7.408188,12.695557,14.570099,2.4177094,-2.2179413,1.9543304,5.9682126,4.4150043,36.901535
1570715393,-7.408188,12.695557,14.570099,-7.018402,-0.83628845,-0.11122131,5.9682126,4.4150043,36.901535
1570715393,-7.408188,12.695557,14.570099,4.420395,4.139557,-0.7386627,5.9682126,4.4150043,36.901535
1570715393,-7.408188,12.695557,14.570099,8.287308,1.8918457,-1.8475952,5.9682126,4.4150043,36.901535
1570715393,-7.408188,12.695557,14.570099,-1.2958069,-0.9215088,-0.88352966,5.9682126,4.4150043,36.901535
1570715393,-7.408188,12.695557,14.570099,-7.0844574,-2.7803955,-1.5120392,5.9682126,4.4150043,36.901535
1570715393,-7.408188,12.695557,14.570099,1.7359314,1.6479034,0.4416504,5.9682126,4.4150043,36.901535
1570715393,-7.408188,12.695557,14.570099,2.767105,3.4300842,0.8059845,5.9682126,4.4150043,36.901535
1570715393,-7.408188,12.695557,14.570099,-5.8444824,-2.132721,2.5444946,5.9682126,4.4150043,36.901535
1570715393,-7.408188,12.695557,14.570099,1.1148834,-1.1718597,-0.5000305,5.9682126,4.4150043,36.901535
1570715393,-7.408188,12.695557,14.570099,1.5729523,2.533142,0.89120483,5.9682126,4.4150043,36.901535
1570715393,-7.408188,12.695557,14.570099,-0.48727417,-2.6302032,1.4579163,5.9682126,4.4150043,36.901535
1570715393,-7.408188,12.695557,14.570099,-6.8660736,-2.867752,0.39904785,5.9682126,4.4150043,36.901535
1570715393,-7.408188,12.695557,14.570099,4.244629,7.248001,-2.3365479,5.9682126,4.4150043,36.901535
1570715393,-7.408188,12.695557,14.570099,5.236389,-5.0249176,-0.69818115,5.9682126,4.4150043,36.901535
1570715393,-7.408188,12.695557,14.570099,-3.6596222,-4.215317,1.1852112,5.9682126,4.4150043,36.901535
1570715393,-7.408188,12.695557,14.570099,-2.8351135,-6.8997803,0.07946777,5.9682126,4.4150043,36.901535
1570715393,-7.408188,12.695557,14.570099,0.41819763,5.417877,0.7037201,5.9682126,4.4150043,36.901535
1570715393,-7.408188,12.695557,14.570099,0.35855103,-0.12257385,-0.9730072,5.9682126,4.4150043,36.901535
1570715393,-7.408188,12.695557,14.570099,-6.5731354,-1.1164551,-0.017471313,5.9682126,4.4150043,36.901535
1570715393,-7.408188,12.695557,14.570099,1.1915894,1.5711975,0.30636597,5.9682126,4.4150043,36.901535
1570715393,-7.408188,12.695557,14.570099,-1.0241699,-2.6238098,-0.0675354,5.9682126,4.4150043,36.901535
1570715393,-7.408188,12.695557,14.570099,-5.916931,-4.9151917,0.37028503,5.9682126,4.4150043,36.901535
1570715393,-7.408188,12.695557,14.570099,0.22538757,2.1560364,0.04963684,5.9682126,4.4150043,36.901535
1570715393,-7.408188,12.695557,14.570099,2.7234344,2.835678,0.28186035,5.9682126,4.4150043,36.901535
1570715393,-7.408188,12.695557,14.570099,-5.344879,-2.608902,2.4486084,5.9682126,4.4150043,36.901535
1570715393,-7.408188,13.340805,15.440399,2.382553,0.18849182,-0.18045044,5.9682126,4.4150043,36.901535
1570715393,6.4446716,12.853577,11.839523,3.9687347,2.1805267,-0.37220764,-8.027921,14.929615,19.86699
1570715393,6.4446716,12.853577,11.839523,3.9687347,2.1805267,-0.37220764,-3.7639546,-31.23455,1.8895986
1570715393,6.4446716,12.853577,11.839523,3.9687347,2.1805267,-0.37220764,-6.3888474,-0.37914276,17.271042
1570715393,6.4446716,12.853577,11.839523,3.9687347,2.1805267,-0.37220764,10.98239,2.0246081,21.457184
1570715393,6.4446716,12.853577,11.839523,4.099762,2.4585724,-0.50749207,-2.653255,0.5002012,-22.122416
1570715393,7.2180023,11.625351,10.391022,4.099762,2.4585724,-0.50749207,0.67219913,3.0147066,-2.3205955
1570715393,7.2180023,11.625351,10.391022,4.099762,2.4585724,-0.50749207,-7.177404,-8.424941,-6.314993
1570715393,7.2180023,11.625351,10.391022,4.099762,2.4585724,-0.50749207,-12.747381,0.17231321,-3.1649623
1570715393,7.2180023,11.625351,10.391022,4.099762,2.4585724,-0.50749207,4.4587164,3.9270573,0.43784142
1570715393,7.2180023,11.625351,10.391022,4.099762,2.4585724,-0.50749207,-7.9889274,3.480451,-6.4837904
1570715393,7.2180023,11.625351,10.391022,4.099762,2.4585724,-0.50749207,-12.148583,-12.735476,20.77528
1570715393,7.2180023,11.625351,10.391022,4.099762,2.4585724,-0.50749207,1.1082003,-29.754976,2.009915
1570715393,0.473526,-1.1608734,1.1362457,4.0752563,6.4906006,-1.812439,0.15947092,4.717115,2.8894887
1570715393,-2.510849,-4.5091705,-2.3197937,4.0496826,6.563034,-1.7431946,-0.9073822,3.4530349,1.1819986
1570715393,-2.510849,-4.5091705,-2.3197937,4.0496826,6.563034,-1.7431946,-0.9073822,3.4530349,1.1819986
1570715393,-2.510849,-4.5091705,-2.3197937,4.0496826,6.563034,-1.7431946,-0.9073822,3.4530349,1.1819986
1570715393,-2.510849,-4.5091705,-2.3197937,4.0496826,6.563034,-1.7431946,-0.9073822,3.4530349,1.1819986
1570715393,-2.510849,-4.5091705,-2.3197937,4.0496826,6.563034,-1.7431946,-0.9073822,3.4530349,1.1819986
1570715393,-2.510849,-4.5091705,-2.3197937,4.0496826,6.563034,-1.7431946,-0.9073822,3.4530349,1.1819986
1570715393,-2.510849,-4.5091705,-2.3197937,4.0496826,6.563034,-1.7431946,-0.9073822,3.4530349,1.1819986
1570715393,-2.510849,-4.5091705,-2.3197937,4.0496826,6.563034,-1.7431946,-0.9073822,3.4530349,1.1819986
1570715393,-2.510849,-4.5091705,-2.3197937,4.0496826,6.563034,-1.7431946,-0.9073822,3.4530349,1.1819986
1570715393,-2.510849,-4.5091705,-2.3197937,4.0496826,6.563034,-1.7431946,-0.9073822,3.4530349,1.1819986
1570715393,-2.510849,-4.5091705,-2.3197937,4.0496826,6.563034,-1.7431946,-0.9073822,3.4530349,1.1819986
1570715393,-2.510849,-4.5091705,-2.3197937,4.0496826,6.563034,-1.7431946,-0.9073822,3.4530349,1.1819986
1570715393,-2.510849,-4.5091705,-2.3197937,4.0496826,6.563034,-1.7431946,-0.9073822,3.4530349,1.1819986
1570715393,-2.510849,-4.5091705,-2.3197937,4.0496826,6.563034,-1.7431946,-0.9073822,3.4530349,1.1819986
1570715393,-2.510849,-4.5091705,-2.3197937,4.0496826,6.563034,-1.7431946,-0.9073822,3.4530349,1.1819986
1570715393,-2.510849,-4.5091705,-2.3197937,4.0496826,6.563034,-1.7431946,-0.9073822,3.4530349,1.1819986
1570715393,-2.510849,-4.5091705,-2.3197937,4.0496826,6.563034,-1.7431946,-0.9073822,3.4530349,1.1819986
1570715393,-2.510849,-4.5091705,-2.3197937,4.0496826,6.563034,-1.7431946,-0.9073822,3.4530349,1.1819986
1570715393,-2.510849,-4.5091705,-2.3197937,4.0496826,6.563034,-1.7431946,-0.9073822,3.4530349,1.1819986
1570715393,-2.510849,-4.5091705,-2.3197937,4.0496826,6.563034,-1.7431946,-0.9073822,3.4530349,1.1819986
1570715393,-2.510849,-4.5091705,-2.3197937,4.0496826,6.563034,-1.7431946,-0.9073822,3.4530349,1.1819986
1570715393,-2.510849,-4.5091705,-2.3197937,4.0496826,6.563034,-1.7431946,-0.9073822,3.4530349,1.1819986
1570715393,-2.510849,-4.5091705,-2.3197937,4.0496826,6.563034,-1.7431946,-0.9073822,3.4530349,1.1819986
1570715393,-2.510849,-4.5091705,-2.3197937,4.0496826,6.563034,-1.7431946,-0.9073822,3.4530349,1.1819986
1570715393,-2.510849,-4.5091705,-2.3197937,4.0496826,6.563034,-1.7431946,-0.9073822,3.4530349,1.1819986
1570715393,-2.510849,-4.5091705,-2.3197937,4.0496826,6.563034,-1.7431946,-0.9073822,3.4530349,1.1819986
1570715393,-2.510849,-4.5091705,-2.3197937,4.0496826,6.563034,-1.7431946,-0.9073822,3.4530349,1.1819986
1570715393,-2.510849,-4.5091705,-2.3197937,4.0496826,6.563034,-1.7431946,-0.9073822,3.4530349,1.1819986
1570715393,-2.510849,-4.5091705,-2.3197937,4.0496826,6.563034,-1.7431946,-0.9073822,3.4530349,1.1819986
1570715393,-2.510849,-4.5091705,-2.3197937,4.0496826,6.563034,-1.7431946,-0.9073822,3.4530349,1.1819986
1570715393,-2.510849,-4.5091705,-2.3197937,4.0496826,6.563034,-1.7431946,-0.9073822,3.4530349,1.1819986
1570715393,-2.510849,-4.5091705,-2.3197937,4.0496826,6.563034,-1.7431946,-0.9073822,3.4530349,1.1819986
1570715393,-2.510849,-4.5091705,-2.3197937,4.0496826,6.563034,-1.7431946,-0.9073822,3.4530349,1.1819986
1570715393,-2.510849,-4.5091705,-2.3197937,4.0496826,6.563034,-1.7431946,-0.9073822,3.4530349,1.1819986
1570715393,-2.510849,-4.5091705,-2.3197937,4.0496826,6.563034,-1.7431946,-0.9073822,3.4530349,1.1819986
1570715393,-2.510849,-4.5091705,-2.3197937,4.0496826,6.563034,-1.7431946,-0.9073822,3.4530349,1.1819986
1570715393,-2.510849,-4.5091705,-2.3197937,4.0496826,6.563034,-1.7431946,-0.9073822,3.4530349,1.1819986
1570715393,-2.510849,-4.5091705,-2.3197937,4.0496826,6.563034,-1.7431946,-0.9073822,3.4530349,1.1819986
1570715393,-2.510849,-4.5091705,-2.3197937,4.0496826,6.563034,-1.7431946,-0.9073822,3.4530349,1.1819986
1570715393,-2.510849,-4.5091705,-2.3197937,4.0496826,6.563034,-1.7431946,-0.9073822,3.4530349,1.1819986
1570715393,-2.510849,-4.5091705,-2.3197937,4.0496826,6.563034,-1.7431946,-0.9073822,3.4530349,1.1819986
1570715393,-2.510849,-4.5091705,-2.3197937,4.0496826,6.563034,-1.7431946,-0.9073822,3.4530349,1.1819986
1570715393,-2.510849,-4.5091705,-2.3197937,4.0496826,6.563034,-1.7431946,-0.9073822,3.4530349,1.1819986
1570715393,-2.510849,-4.5091705,-2.3197937,4.0496826,6.563034,-1.7431946,-0.9073822,3.4530349,1.1819986
1570715393,-2.510849,-4.5091705,-2.3197937,4.0496826,6.563034,-1.7431946,-0.9073822,3.4530349,1.1819986
1570715393,-2.510849,-4.5091705,-2.3197937,4.0496826,6.563034,-1.7431946,-0.9073822,3.4530349,1.1819986
1570715393,-2.510849,-4.5091705,-2.3197937,4.0496826,6.563034,-1.7431946,-0.9073822,3.4530349,1.1819986
1570715393,-2.510849,-4.5091705,-2.3197937,4.0496826,6.563034,-1.7431946,-0.9073822,3.4530349,1.1819986
1570715393,-2.510849,-4.5091705,-2.3197937,4.0496826,6.563034,-1.7431946,-0.9073822,3.4530349,1.1819986
1570715393,-2.510849,-4.5091705,-2.3197937,4.0496826,6.563034,-1.7431946,-0.9073822,3.4530349,1.1819986
1570715393,-2.510849,-4.5091705,-2.3197937,4.0496826,6.563034,-1.7431946,-0.9073822,3.4530349,1.1819986
1570715393,-2.510849,-4.5091705,-2.3197937,4.0496826,6.563034,-1.7431946,-0.9073822,3.4530349,1.1819986
1570715393,-2.510849,-4.5091705,-2.3197937,4.0496826,6.563034,-1.7431946,-0.9073822,3.4530349,1.1819986
1570715393,-2.510849,-4.5091705,-2.3197937,4.0496826,6.563034,-1.7431946,-0.9073822,3.4530349,1.1819986
1570715393,-2.510849,-4.5091705,-2.3197937,4.0496826,6.563034,-1.7431946,-0.9073822,3.4530349,1.1819986
1570715393,-2.510849,-4.5091705,-2.3197937,4.0496826,6.563034,-1.7431946,-0.9073822,3.4530349,1.1819986
1570715393,-2.510849,-4.5091705,-2.3197937,4.0496826,6.563034,-1.7431946,-0.9073822,3.4530349,1.1819986
1570715393,-2.510849,-4.5091705,-2.3197937,4.0496826,6.563034,-1.7431946,-0.9073822,3.4530349,1.1819986
1570715393,-2.510849,-4.5091705,-2.3197937,4.0496826,6.563034,-1.7431946,-0.9073822,3.4530349,1.1819986
1570715393,-2.510849,-4.5091705,-2.3197937,4.0496826,6.563034,-1.7431946,-0.9073822,3.4530349,1.1819986
1570715393,-2.510849,-4.5091705,-2.3197937,4.0496826,6.563034,-1.7431946,-0.9073822,3.4530349,1.1819986
1570715393,-2.510849,-4.5091705,-2.3197937,4.0496826,6.563034,-1.7431946,-0.9073822,3.4530349,1.1819986
1570715393,-2.510849,-4.5091705,-2.3197937,4.0496826,6.563034,-1.7431946,-0.9073822,3.4530349,1.1819986
1570715393,-2.510849,-4.5091705,-2.3197937,4.0496826,6.563034,-1.7431946,-0.9073822,3.4530349,1.1819986
1570715393,-2.510849,-4.5091705,-2.3197937,4.0496826,6.563034,-1.7431946,-0.9073822,3.4530349,1.1819986
1570715393,-2.510849,-4.5091705,-2.3197937,4.0496826,6.563034,-1.7431946,-0.9073822,3.4530349,1.1819986
1570715393,-2.510849,-4.5091705,-2.3197937,4.0496826,6.563034,-1.7431946,-0.9073822,3.4530349,1.1819986
1570715393,-2.510849,-4.5091705,-2.3197937,4.0496826,6.563034,-1.7431946,-0.9073822,3.4530349,1.1819986
1570715393,-2.510849,-4.5091705,-2.3197937,4.0496826,6.563034,-1.7431946,-0.9073822,3.4530349,1.1819986
1570715393,-2.510849,-4.5091705,-2.3197937,4.0496826,6.563034,-1.7431946,-0.9073822,3.4530349,1.1819986
1570715393,-2.510849,-4.5091705,-2.3197937,4.0496826,6.563034,-1.7431946,-0.9073822,3.4530349,1.1819986
1570715393,11.2630005,1.8007507,26.940948,4.0496826,6.563034,-1.7431946,7.576642,-9.005678,18.08337
1570715393,2.994629,-13.501785,38.71443,-5.2692413,-0.46131897,2.3825684,-2.137992,0.8423648,4.4949675
1570715394,2.994629,-13.501785,38.71443,-5.2692413,-0.46131897,2.3825684,-2.137992,0.8423648,4.4949675
1570715394,-5.3324127,8.157349,14.1978,11.360596,3.2564545,-0.7588959,-2.7125204,14.627487,24.19097
1570715394,-5.3324127,8.157349,14.1978,11.360596,3.2564545,-0.7588959,-2.7125204,14.627487,24.19097
1570715394,-5.3324127,8.157349,14.1978,11.360596,3.2564545,-0.7588959,-2.7125204,14.627487,24.19097
1570715394,-5.3324127,8.157349,14.1978,11.360596,3.2564545,-0.7588959,-2.7125204,14.627487,24.19097
1570715394,-5.3324127,8.157349,14.1978,11.360596,3.2564545,-0.7588959,-2.7125204,14.627487,24.19097
1570715394,-5.3324127,8.157349,14.1978,11.360596,3.2564545,-0.7588959,-2.7125204,14.627487,24.19097
1570715394,-5.3324127,8.157349,14.1978,11.360596,3.2564545,-0.7588959,-2.7125204,14.627487,24.19097
1570715394,-1.7614594,-8.982742,-10.64563,-5.835968,-2.8358002,1.2320862,-4.1502523,2.4334002,-14.467566
1570715394,-1.7614594,-8.982742,-10.64563,-5.835968,-2.8358002,1.2320862,-4.1502523,2.4334002,-14.467566
1570715394,-1.7614594,-8.982742,-10.64563,-5.835968,-2.8358002,1.2320862,-4.1502523,2.4334002,-14.467566
1570715394,-1.7614594,-8.982742,-10.64563,-5.835968,-2.8358002,1.2320862,-4.1502523,2.4334002,-14.467566
1570715394,-1.7614594,-8.982742,-10.64563,-5.835968,-2.8358002,1.2320862,-4.1502523,2.4334002,-14.467566
1570715394,-1.7614594,-8.982742,-10.64563,-5.835968,-2.8358002,1.2320862,-4.1502523,2.4334002,-14.467566
1570715394,-1.7614594,-8.982742,-10.64563,-5.835968,-2.8358002,1.2320862,-4.1502523,2.4334002,-14.467566
1570715394,-1.7614594,-8.982742,-10.64563,-5.835968,-2.8358002,1.2320862,-4.1502523,2.4334002,-14.467566
1570715394,-1.7614594,-8.982742,-10.64563,-5.835968,-2.8358002,1.2320862,-4.1502523,2.4334002,-14.467566
1570715394,-1.7614594,-8.982742,-10.64563,-5.835968,-2.8358002,1.2320862,-4.1502523,2.4334002,-14.467566
1570715394,-11.363403,-11.615158,25.942566,-5.835968,-2.8358002,1.2320862,-4.1502523,2.4334002,-14.467566
1570715394,18.894516,2.6722412,27.920181,1.2097015,2.899582,1.4930725,17.495647,13.584062,36.46068
1570715394,-0.4410553,-9.358627,35.80069,5.6678314,3.4194336,1.0840149,-2.0324337,-9.0374,36.422302
1570715394,-6.504364,5.9989777,5.1082153,8.385315,3.7485962,1.1148987,-4.4175034,11.945641,2.0215406
1570715394,18.826279,-38.42543,27.059464,6.9312286,-2.3265991,4.586609,2.37651,-31.867546,31.762045
1570715394,4.259964,-30.249237,-39.736374,3.5213165,5.546768,-1.0795441,7.1622357,-25.466345,-42.28596
1570715394,-27.939651,10.309738,20.906357,2.2728271,4.273773,1.8265076,-21.18197,5.2041006,13.927894
1570715394,28.222336,-27.667084,-39.736374,0.067733765,-4.0544586,1.5953369,20.097765,-12.87903,-36.670753
1570715394,16.287231,0.7832184,11.72699,-1.4481354,0.15014648,-1.1732788,25.50869,4.647528,-2.712638
1570715394,-2.7646332,-2.1640472,-12.769287,-2.9107513,-7.7935333,-0.52986145,1.5281214,3.8983254,-12.30893
1570715394,-8.606476,-2.1820068,-0.4271698,-3.7373962,-4.331421,1.2438049,-9.448481,4.7297773,-4.9647837
1570715394,-7.515915,-8.035828,-13.149963,-6.0522156,-3.4611053,1.8499298,-8.852269,0.20595312,-13.1146965
1570715394,9.849228,-28.84024,-4.7618713,-6.884186,-1.0259094,1.9830933,4.719361,-16.806858,-8.232404
1570715394,15.140411,-38.427826,-20.812607,-10.370789,0.32591248,-1.970108,21.089096,-31.895329,-21.026114
1570715394,-10.615219,-38.427826,13.627991,-8.443726,-1.9004974,-2.876648,-12.796223,-32.419483,14.266812
1570715394,21.73285,-12.1466675,25.057907,-6.725464,-7.976761,-0.26141357,19.276909,-11.051588,23.726288
1570715395,-2.306137,6.5472565,22.249512,-4.0931854,-11.0447235,-0.60443115,2.680695,7.972897,28.555992
1570715395,-19.552765,17.576141,26.262192,0.51834106,-1.1185913,-0.37753296,-19.707499,23.400057,28.31665
1570715395,0.2281189,7.604294,12.697845,4.1104126,2.8271484,0.22860718,0.5030863,11.764248,20.32044
1570715395,-2.2355042,0.37020874,11.0542145,3.3146515,7.489807,-0.8941803,1.5925126,6.291668,15.077753
1570715395,-6.166794,-5.253769,-3.8245392,4.926407,5.513748,-0.6768646,-6.3553295,0.9668851,4.4376283
1570715395,2.2907257,-14.558838,-11.845123,3.0568695,2.9688263,0.7622986,-0.33724093,-9.093988,-13.109215
1570715395,7.264679,-0.9717407,4.9454193,3.1080017,6.5981903,1.9181213,8.224645,3.5140624,21.905567
1570715395,-5.116928,-34.222412,29.023895,2.3580475,0.47610474,1.2576447,-1.5749446,-32.477676,40.862274
1570715395,7.848877,4.4535217,32.03102,8.53978,1.3996887,-0.56715393,11.605461,7.4543543,35.6508
1570715395,-1.1162262,-10.989075,4.3061676,7.0537415,2.4244843,1.4760284,-1.7737585,4.1952357,1.214445
1570715395,25.779053,-38.427826,-37.672577,11.0399475,6.1401215,-0.03237915,24.964788,-32.178093,-12.040709
1570715395,8.229553,-21.99762,-9.672379,3.3444824,3.538742,1.3013306,8.073099,-14.919342,-21.605936
1570715395,-7.9301147,11.533173,-2.1150818,2.5189056,1.9120941,2.1173248,-4.3935614,7.082651,-0.3175416
1570715395,31.36113,-19.488495,-38.395615,0.5545502,-2.0613556,-0.6939087,31.506054,-24.65363,-32.618927
1570715395,1.0648956,-0.9884949,15.019012,-0.26782227,-3.774292,-1.1562347,8.049547,4.8337545,8.369447
1570715395,-5.1265106,-5.1101227,-14.839066,-3.8535004,-5.843033,0.31489563,-4.9426317,2.7495403,-22.806135
1570715395,-5.9058228,-3.6939392,-8.817657,-4.4287567,-2.2339172,0.50131226,-4.7762866,1.7332511,-9.374354
1570715395,0.46395874,-7.5055084,-5.6201935,-5.6229095,-2.6834564,0.69200134,-1.0353888,-0.22152948,-5.5218983
1570715395,16.499115,-34.23558,3.3568573,-6.950226,-0.8938141,0.18812561,10.773502,-19.279057,-2.8383512
1570715395,10.760223,-38.427826,-27.751007,-9.29808,-3.647522,-3.229248,24.971594,-32.081936,-8.571152
1570715395,-14.673386,-38.427826,15.470322,-6.5454254,-1.6331177,-4.5949097,-17.37145,-32.57718,12.618993
1570715395,20.044937,-10.856201,23.392746,-5.7198486,-7.7637024,-1.2063141,20.516123,-10.007526,24.917374
1570715395,-7.1891174,3.3162842,21.96939,-3.478531,-9.477722,-0.6150818,-5.671891,6.044348,27.480959
1570715395,-23.496017,22.507004,30.118057,1.1915894,-1.1984863,-0.3231964,-23.015425,26.366404,31.578222
1570715395,-0.3548584,10.174469,13.739319,4.3969727,3.0007935,1.6326294,-3.3204155,17.959198,24.242405
1570715395,-2.0942535,-4.5762024,8.68396,3.308258,6.4778137,0.14445496,-0.343274,2.0354571,13.664314
1570715395,-2.227127,-11.144699,-7.8803253,4.3937683,6.3925934,-0.31681824,-2.715265,-4.2544837,1.4981539
1570715395,4.833374,-14.62706,-2.1258545,2.8246307,5.593643,-0.08778381,4.4782534,-10.700251,-3.982135
1570715395,10.897888,-4.3906555,-1.3860474,0.40222168,6.0602264,1.7700348,7.3607707,3.5994396,5.746487
1570715395,-7.0670013,-24.079376,28.699493,1.2789307,1.7895813,0.42248535,-7.147238,-19.086159,30.500082
1570715395,-0.946228,3.8597565,30.308395,9.345123,1.8215332,1.3588562,-0.1611594,5.9271564,39.691265
1570715395,-2.9334106,-11.098007,3.6705017,7.3626556,2.7472534,3.8441162,-4.198893,3.7988029,1.2265037
1570715395,23.95108,-38.427826,-39.710037,12.012543,5.4764557,-0.33172607,37.94889,-32.422043,-12.674318
1570715396,2.185379,-22.465683,-5.830887,2.7447357,4.537964,0.9103699,6.4706745,-18.480545,-22.880882
1570715396,2.323059,11.555923,-19.195328,1.8381958,-0.8213806,2.311203,-6.305605,13.452145,-7.5041475
1570715396,24.984177,-4.898224,-12.651962,-1.4151154,0.40048218,-1.6473236,30.435144,-2.8770866,-21.671324
1570715396,-0.4003601,-1.4888916,-6.6628723,-1.6643829,-6.8710175,-1.1477203,6.6148224,7.171056,1.8001218
1570715396,-7.0753937,-3.929779,-4.7343445,-3.875885,-5.0739136,0.50024414,-7.3116107,2.1920638,-9.9280205
1570715396,-5.3312073,-8.57811,-14.154327,-5.661255,-3.1383362,1.4547272,-6.105227,-1.5509086,-14.018753
1570715396,14.793259,-34.825745,1.7371826,-7.0205383,-1.000351,1.0467224,10.817846,-22.908169,-1.2074375
1570715396,16.99591,-38.427826,-19.167786,-9.902084,-6.275528,-2.9938202,30.811071,-32.081882,2.3529148
1570715396,-14.84697,-38.427826,16.94635,-7.4860535,0.29501343,-4.962433,-15.022985,-32.615993,15.3487835
1570715396,18.16069,-16.902756,24.342041,-6.1661987,-6.629196,-1.4076385,16.441418,-13.137153,22.98383
1570715396,-0.4111328,-1.8396301,25.118958,-4.480942,-10.178665,-1.6803436,8.207615,-5.00588,29.768017
1570715396,-23.688751,32.60814,32.04059,0.19450378,-2.8688202,-0.44996643,-22.54104,33.925552,35.906113
1570715396,-2.5252075,9.340088,12.143585,4.1242523,2.3136902,1.64328,-1.8413804,16.381226,20.029373
1570715396,-4.943344,0.093688965,8.642059,3.0888214,5.2655334,0.9380646,-3.9029799,7.2442713,11.929821
1570715397,-4.943344,0.093688965,8.642059,3.0888214,5.2655334,0.9380646,-3.9029799,7.2442713,11.929821
1570715397,-4.943344,0.093688965,8.642059,3.0888214,5.2655334,0.9380646,-3.9029799,7.2442713,11.929821
1570715397,-4.943344,0.093688965,8.642059,3.0888214,5.2655334,0.9380646,-3.9029799,7.2442713,11.929821
1570715397,-4.943344,0.093688965,8.642059,3.0888214,5.2655334,0.9380646,-3.9029799,7.2442713,11.929821
1570715397,-4.943344,0.093688965,8.642059,3.0888214,5.2655334,0.9380646,-3.9029799,7.2442713,11.929821
1570715397,-4.943344,0.093688965,8.642059,3.0888214,5.2655334,0.9380646,-3.9029799,7.2442713,11.929821
1570715397,-4.943344,0.093688965,8.642059,3.0888214,5.2655334,0.9380646,-3.9029799,7.2442713,11.929821
1570715397,-4.943344,0.093688965,8.642059,3.0888214,5.2655334,0.9380646,-3.9029799,7.2442713,11.929821
1570715397,-4.943344,0.093688965,8.642059,3.0888214,5.2655334,0.9380646,-3.9029799,7.2442713,11.929821
1570715397,-4.943344,0.093688965,8.642059,3.0888214,5.2655334,0.9380646,-3.9029799,7.2442713,11.929821
1570715397,-4.943344,0.093688965,8.642059,3.0888214,5.2655334,0.9380646,-3.9029799,7.2442713,11.929821
1570715397,-4.943344,0.093688965,8.642059,3.0888214,5.2655334,0.9380646,-3.9029799,7.2442713,11.929821
1570715397,-4.943344,0.093688965,8.642059,3.0888214,5.2655334,0.9380646,-3.9029799,7.2442713,11.929821
1570715397,-4.943344,0.093688965,8.642059,3.0888214,5.2655334,0.9380646,-3.9029799,7.2442713,11.929821
1570715397,-4.943344,0.093688965,8.642059,3.0888214,5.2655334,0.9380646,-3.9029799,7.2442713,11.929821
1570715397,-4.943344,0.093688965,8.642059,3.0888214,5.2655334,0.9380646,-3.9029799,7.2442713,11.929821
1570715397,-4.943344,0.093688965,8.642059,3.0888214,5.2655334,0.9380646,-3.9029799,7.2442713,11.929821
1570715397,-4.943344,0.093688965,8.642059,3.0888214,5.2655334,0.9380646,-3.9029799,7.2442713,11.929821
1570715397,-4.943344,0.093688965,8.642059,3.0888214,5.2655334,0.9380646,-3.9029799,7.2442713,11.929821
1570715397,-4.943344,0.093688965,8.642059,3.0888214,5.2655334,0.9380646,-3.9029799,7.2442713,11.929821
1570715397,-4.943344,0.093688965,8.642059,3.0888214,5.2655334,0.9380646,-3.9029799,7.2442713,11.929821
1570715397,-4.943344,0.093688965,8.642059,3.0888214,5.2655334,0.9380646,-3.9029799,7.2442713,11.929821
1570715397,-4.943344,0.093688965,8.642059,3.0888214,5.2655334,0.9380646,-3.9029799,7.2442713,11.929821
1570715397,-4.943344,0.093688965,8.642059,3.0888214,5.2655334,0.9380646,-3.9029799,7.2442713,11.929821
1570715397,-4.943344,0.093688965,8.642059,3.0888214,5.2655334,0.9380646,-3.9029799,7.2442713,11.929821
1570715397,-4.943344,0.093688965,8.642059,3.0888214,5.2655334,0.9380646,-3.9029799,7.2442713,11.929821
1570715397,-4.943344,0.093688965,8.642059,3.0888214,5.2655334,0.9380646,-3.9029799,7.2442713,11.929821
1570715397,-4.943344,0.093688965,8.642059,3.0888214,5.2655334,0.9380646,-3.9029799,7.2442713,11.929821
1570715397,-4.943344,0.093688965,8.642059,3.0888214,5.2655334,0.9380646,-3.9029799,7.2442713,11.929821
1570715397,-4.943344,0.093688965,8.642059,3.0888214,5.2655334,0.9380646,-3.9029799,7.2442713,11.929821
1570715397,-4.943344,0.093688965,8.642059,3.0888214,5.2655334,0.9380646,-3.9029799,7.2442713,11.929821
1570715397,-4.943344,0.093688965,8.642059,3.0888214,5.2655334,0.9380646,-3.9029799,7.2442713,11.929821
1570715397,-4.943344,0.093688965,8.642059,3.0888214,5.2655334,0.9380646,-3.9029799,7.2442713,11.929821
1570715397,-4.943344,0.093688965,8.642059,3.0888214,5.2655334,0.9380646,-3.9029799,7.2442713,11.929821
1570715397,-4.943344,0.093688965,8.642059,3.0888214,5.2655334,0.9380646,-3.9029799,7.2442713,11.929821
1570715397,-4.943344,0.093688965,8.642059,3.0888214,5.2655334,0.9380646,-3.9029799,7.2442713,11.929821
1570715397,3.208908,-38.427826,25.152481,3.0888214,5.2655334,0.9380646,-6.2777267,10.321756,13.29335
1570715397,0.94039917,-8.245316,-7.403885,-5.2404785,-0.36863708,-0.14317322,-8.564708,1.5324497,-9.369518
1570715397,0.94039917,-8.245316,-7.403885,-5.2404785,-0.36863708,-0.14317322,-8.564708,1.5324497,-9.369518
1570715397,0.94039917,-8.245316,-7.403885,-5.2404785,-0.36863708,-0.14317322,-8.564708,1.5324497,-9.369518
1570715397,0.94039917,-8.245316,-7.403885,-5.2404785,-0.36863708,-0.14317322,-8.564708,1.5324497,-9.369518
1570715397,0.94039917,-8.245316,-7.403885,-5.2404785,-0.36863708,-0.14317322,-8.564708,1.5324497,-9.369518
1570715397,0.94039917,-8.245316,-7.403885,-5.2404785,-0.36863708,-0.14317322,-8.564708,1.5324497,-9.369518
1570715397,0.94039917,-8.245316,-7.403885,-5.2404785,-0.36863708,-0.14317322,-8.564708,1.5324497,-9.369518
1570715397,0.94039917,-8.245316,-7.403885,-5.2404785,-0.36863708,-0.14317322,-8.564708,1.5324497,-9.369518
1570715397,0.94039917,-8.245316,-7.403885,-5.2404785,-0.36863708,-0.14317322,-8.564708,1.5324497,-9.369518
1570715397,0.94039917,-8.245316,-7.403885,-5.2404785,-0.36863708,-0.14317322,-8.564708,1.5324497,-9.369518
1570715397,0.94039917,-8.245316,-7.403885,-5.2404785,-0.36863708,-0.14317322,-8.564708,1.5324497,-9.369518
1570715397,0.94039917,-8.245316,-7.403885,-5.2404785,-0.36863708,-0.14317322,-8.564708,1.5324497,-9.369518
1570715397,0.94039917,-8.245316,-7.403885,-5.2404785,-0.36863708,-0.14317322,-8.564708,1.5324497,-9.369518
1570715397,0.94039917,-8.245316,-7.403885,-5.2404785,-0.36863708,-0.14317322,-8.564708,1.5324497,-9.369518
1570715397,0.94039917,-8.245316,-7.403885,-5.2404785,-0.36863708,-0.14317322,-8.564708,1.5324497,-9.369518
1570715397,0.94039917,-8.245316,-7.403885,-5.2404785,-0.36863708,-0.14317322,-8.564708,1.5324497,-9.369518
1570715398,0.94039917,-8.245316,-7.403885,-5.2404785,-0.36863708,-0.14317322,-8.564708,1.5324497,-9.369518
1570715398,0.94039917,-8.245316,-7.403885,-5.2404785,-0.36863708,-0.14317322,-8.564708,1.5324497,-9.369518
1570715398,0.94039917,-8.245316,-7.403885,-5.2404785,-0.36863708,-0.14317322,-8.564708,1.5324497,-9.369518
1570715398,0.94039917,-8.245316,-7.403885,-5.2404785,-0.36863708,-0.14317322,-8.564708,1.5324497,-9.369518
1570715398,0.94039917,-8.245316,-7.403885,-5.2404785,-0.36863708,-0.14317322,-8.564708,1.5324497,-9.369518
1570715398,0.94039917,-8.245316,-7.403885,-5.2404785,-0.36863708,-0.14317322,-8.564708,1.5324497,-9.369518
1570715398,0.94039917,-8.245316,-7.403885,-5.2404785,-0.36863708,-0.14317322,-8.564708,1.5324497,-9.369518
1570715398,0.94039917,-8.245316,-7.403885,-5.2404785,-0.36863708,-0.14317322,-8.564708,1.5324497,-9.369518
1570715398,7.010895,-22.731445,-5.17128,-5.6410217,-6.8241425,-2.2364197,-6.5672984,7.6296387,14.931313
1570715398,-0.39196777,-29.920029,-16.724503,-7.539322,-5.4371643,-4.5405884,6.0772176,-22.809387,-9.387779
1570715398,-4.681183,-38.427826,5.347641,-6.5965576,-3.5559082,-3.5083466,-9.550356,-32.706623,5.170986
1570715398,18.76883,-9.395737,20.688492,-4.500122,-7.1884613,-2.2960663,19.614742,-6.5459566,26.708155
1570715398,-4.3831024,-2.0982056,23.381958,-2.698761,-9.334976,-1.7890015,0.82157826,1.7703671,27.674295
1570715398,-16.059631,12.59021,20.556808,-0.1921997,-6.050766,-1.0550385,-12.944848,12.180043,25.524605
1570715398,-13.698944,16.863861,20.022903,3.7471466,1.243103,1.2693634,-14.188435,22.805065,25.64621
1570715398,1.8873138,5.289093,6.573471,3.1367645,5.640518,-0.13464355,3.6573389,14.25786,11.930543
1570715398,-1.2766266,-3.8986511,-0.84376526,3.1111908,5.082321,-1.4694214,-0.65024954,2.344245,2.9696965
1570715398,-3.7067413,-13.313843,-15.920059,2.5497894,4.621048,-1.0134888,-3.9662545,-5.5913835,-12.139365
1570715398,8.858032,-19.96254,-20.546844,0.8123474,2.2029114,0.25630188,6.1156707,-17.889551,-13.824174
1570715398,14.053436,4.695343,32.62239,-0.8931427,3.4439392,1.3588562,14.819026,9.407673,27.740326
1570715398,-12.955551,-38.421844,34.932785,-0.33599854,-0.37716675,0.2424469,-14.603875,-32.8565,30.191435
1570715398,3.2065125,11.255447,38.633026,3.2400818,3.7720337,-0.7397156,2.0569024,14.07419,35.01455
1570715398,-5.720276,-0.5790863,18.915588,6.333618,3.7304993,1.3354187,-10.241839,15.152697,19.424227
1570715398,2.6127472,-38.427826,22.205215,6.6127167,-3.3172913,4.753845,-0.97243196,-32.80641,22.601307
1570715398,12.280533,-33.24797,-39.729187,7.321121,6.912445,-0.7152252,21.846684,-32.503307,-41.711533
1570715398,-10.851044,-13.22287,-7.116577,1.7849426,2.784546,-0.9176178,-8.355084,-10.997316,-12.700081
1570715398,-17.809784,7.336136,-3.2128296,1.5750732,6.340393,2.5444946,-19.517391,8.436899,-9.281087
1570715398,23.23999,-15.494965,-3.6749115,1.026474,0.44734192,2.7042847,15.253427,-1.0122747,-1.7326894
1570715398,20.259216,4.497818,-7.8575745,-0.8238983,0.8052826,-0.39031982,34.383236,3.77876,-20.395096
1570715398,0.22692871,1.0549469,-0.6115265,0.09010315,-3.024353,0.02407837,3.8264318,9.073987,5.783634
1570715398,-2.5419617,-4.254196,-6.9358063,-1.5269775,-3.565506,0.43099976,-1.9204851,2.4593081,-15.02314
1570715398,-5.412613,-1.3188934,-0.1817627,-2.2481537,-1.5521545,0.0059661865,-3.504333,3.4712453,-1.7544549
1570715398,-2.3324738,-2.873932,-5.609421,-3.2122192,-1.2762451,0.16043091,-1.8518546,1.8018866,-7.3340473
1570715399,14.362289,-29.70694,-0.55766296,-5.117981,-0.101257324,0.003829956,6.679459,-8.262594,-0.8973342
1570715399,1.7125244,-34.51451,11.085342,-4.6790924,-0.8171234,-5.7198334,7.203437,-32.430065,12.637803
1570715399,-15.649017,-30.43718,0.8800659,-3.7576294,-3.311966,-2.590088,-15.302252,-23.951292,0.24823329
1570715399,6.485367,-33.275497,-14.359039,-4.0953217,-7.6518555,-1.1977844,0.6999614,-28.206968,-10.117602
1570715399,18.015854,-11.060898,11.181107,-4.0452576,-6.5844574,-1.2957916,17.90266,-4.1663747,10.008894
1570715399,-8.179108,-4.5798035,22.503296,-1.4662476,-7.756256,-0.8632965,-8.053411,0.76138973,24.46804
1570715399,-13.754013,10.328888,10.56221,0.55029297,-3.087204,0.12527466,-12.435101,13.209583,12.264666
1570715399,-8.181503,16.173141,15.568481,2.8054657,1.5669403,0.81663513,-13.696971,24.445082,20.111675
1570715399,10.668045,-0.6461334,-2.9590454,2.0864105,3.634613,-0.027053833,10.491156,6.694342,-1.0094097
1570715399,2.9455414,-3.8998413,-6.21994,1.3439178,4.2269135,-1.5748901,3.4278593,2.0379195,-3.1584184
1570715399,-3.0028534,-6.909363,-5.617798,1.0541687,1.7331238,-1.4683685,-3.6183467,-0.94118166,-4.5571537
1570715399,3.145462,-6.81958,-9.300079,0.23071289,0.27903748,-0.3839264,1.310077,-1.6124835,-8.624657
1570715399,5.695282,-1.5595093,5.2303314,-0.85905457,2.7525787,0.47361755,5.2549686,4.5284677,4.863271
1570715399,12.630096,-26.277252,38.71443,-3.2484436,-4.0491333,1.5772247,1.4733922,-31.943195,35.64859
1570715399,22.440338,13.551483,36.497406,3.4904327,2.5853424,-3.1141968,25.44532,20.332083,34.89614
1570715399,-6.5151367,-5.069412,14.14035,5.947983,6.0122833,-0.02279663,-9.123287,4.7669115,14.948708
1570715399,11.6772,-38.426636,27.472458,7.0270996,1.1770477,4.7250824,-0.678312,-32.66241,26.85335
1570715399,3.2436218,-24.999939,-39.359283,4.7474365,-2.2509613,-1.3139038,8.395089,-28.856524,-41.58558
1570715399,-11.528595,-13.271942,-9.9944,2.6616516,4.810669,-0.83132935,-10.230492,-9.310809,-12.387182
1570715399,-16.33496,-3.9429474,-11.284882,1.4323273,5.7789917,1.6155853,-17.388325,0.20763016,-15.721088
1570715399,10.586639,-1.5523376,13.7034,0.30421448,2.9113007,2.6052094,7.2566743,2.2626224,6.6388655
1570715399,28.388733,-6.6124725,-13.03624,1.1383209,0.72857666,1.4824219,24.258955,3.096706,-8.873422
1570715399,0.21017456,1.8977051,-3.6701202,-0.52349854,-0.73402405,-0.15275574,5.438507,5.5788107,-11.316195
1570715399,-1.80336,2.35141,-3.1254425,-0.98794556,-2.8762817,0.31489563,-1.0873529,7.3436437,-4.919263
1570715399,1.0409546,-1.2219391,-2.613083,-1.9626617,-1.4285889,0.17001343,1.4200424,4.989422,-7.754448
1570715399,0.07728577,-6.946472,-2.638214,-2.5197906,-1.6086121,-0.2539673,0.55276924,1.0419159,-3.4197607
1570715399,15.085342,-38.403885,9.368698,-4.496933,-0.13108826,-1.2105713,10.754749,-28.27681,0.27255452
1570715399,-10.1651,-27.038605,3.7758484,-4.5725555,-2.4885254,-2.7711792,-7.7367244,-22.519876,5.629794
1570715399,-9.431274,-28.739685,-1.7212372,-5.5685883,-1.5649414,-0.44145203,-10.857587,-20.9679,-3.483151
1570715399,-0.669693,-36.353256,-0.23085022,-2.985321,-1.9516296,0.3319397,-1.8004906,-28.273808,6.303265
1570715399,7.328125,-16.8405,2.213623,-4.160309,-4.1311646,-0.7588959,5.5847125,-13.892555,5.3775454
1570715399,-3.609787,-8.099274,16.358582,-3.272934,-4.6382294,-0.8057709,0.756585,-5.035231,16.777163
1570715399,-4.6835785,7.7287903,14.025421,-0.75679016,-4.0981293,0.17533875,-4.4382277,10.80875,18.518835
1570715400,-8.302414,26.064789,19.031708,3.2656555,1.243103,1.1820221,-8.670754,29.153854,19.165232
1570715400,-0.6541443,2.770401,0.9997711,3.734375,1.957901,0.86776733,-4.8101683,14.085403,7.0297127
1570715400,16.28125,-4.5714264,-13.962799,2.1876068,4.2780457,-1.7208252,16.406742,3.3387518,-8.079662
1570715400,12.537918,-6.1348267,-17.993439,1.4206238,4.9129333,-2.5027313,16.01942,1.2085304,-15.1029625
1570715400,12.537918,-6.1348267,-17.993439,1.4206238,4.9129333,-2.5027313,16.01942,1.2085304,-15.1029625
1570715400,12.537918,-6.1348267,-17.993439,1.4206238,4.9129333,-2.5027313,16.01942,1.2085304,-15.1029625
1570715400,12.537918,-6.1348267,-17.993439,1.4206238,4.9129333,-2.5027313,16.01942,1.2085304,-15.1029625
1570715400,12.537918,-6.1348267,-17.993439,1.4206238,4.9129333,-2.5027313,16.01942,1.2085304,-15.1029625
1570715400,12.537918,-6.1348267,-17.993439,1.4206238,4.9129333,-2.5027313,16.01942,1.2085304,-15.1029625
1570715400,12.537918,-6.1348267,-17.993439,1.4206238,4.9129333,-2.5027313,16.01942,1.2085304,-15.1029625
1570715400,12.537918,-6.1348267,-17.993439,1.4206238,4.9129333,-2.5027313,16.01942,1.2085304,-15.1029625
1570715400,12.537918,-6.1348267,-17.993439,1.4206238,4.9129333,-2.5027313,16.01942,1.2085304,-15.1029625
1570715400,-11.989487,-10.175049,-5.5088654,3.3402252,1.3964996,-1.4257507,-5.4972973,-15.891058,10.203136
1570715400,-11.667465,-5.819992,-11.709854,2.2760162,3.9872284,0.9625702,-13.834508,0.583169,-15.747532
1570715400,3.7631683,-2.973297,3.833313,1.6134338,1.289978,1.9585876,4.279486,2.4853563,1.8021472
1570715400,16.23816,-1.4098816,-14.526627,0.5385742,-0.01071167,1.2075806,15.695618,4.80251,-16.429825
1570715400,-1.1772766,-1.3332672,-2.2467651,-1.1658478,-0.62324524,0.49705505,0.6637352,4.2136874,-6.0469313
1570715400,-4.5842133,-1.3583984,-3.2571259,-1.629242,-2.1412506,0.80384827,-4.3105903,4.450621,-5.1506586
1570715400,-2.0463715,-1.728302,-3.816162,-1.9530792,-0.74894714,1.0669708,-2.351845,4.608036,-6.245031
1570715400,0.08088684,-5.451294,0.6729584,-2.7040863,-0.20779419,0.9295502,-0.23673159,2.394895,-0.6298579
1570715400,18.456375,-38.394302,-0.9658661,-4.336075,-0.31645203,-0.3231964,14.638233,-32.24715,-1.875394
1570715400,0.6614685,-5.6476135,6.0024567,-3.7363281,1.3187408,-1.1647644,1.8443936,0.72647953,6.0398335
1570715400,-3.2063599,-22.940933,5.5978394,-2.7733307,1.0652008,-0.7695465,-2.1174152,-14.280865,6.603017
1570715400,-0.8157501,-21.764175,3.987732,-2.444168,-2.9199524,1.0200958,-3.133981,-16.215046,6.8478565
1570715400,-1.0659332,-15.389618,2.0448456,-3.5467072,-8.472107,-0.34983826,-1.0723132,-9.179064,4.140523
1570715400,-0.25790405,-9.989502,4.8508453,-1.4801025,-3.4344788,-0.094177246,-0.8469784,-6.4863796,5.844377
1570715400,-3.7582245,2.4376068,9.803253,0.98706055,-0.08528137,-1.1594391,-2.480684,7.8816724,10.985262
1570715400,-5.7023163,5.004196,10.8591,3.5266418,0.19274902,-1.1775513,-5.727734,11.648605,12.913693
1570715400,-0.69963074,-0.2032013,-8.603378,3.8259888,-2.6685486,-0.92614746,-2.010262,6.2490044,0.9883845
1570715400,-1.0336151,-9.602829,-19.210876,0.4267273,5.324127,-1.1189575,0.5368996,-2.6807637,-18.696985
1570715400,-1.0922699,-2.099411,-6.5802765,-0.71417236,6.319092,-1.8081818,-1.6612203,4.191471,-7.3526497
1570715400,-3.9473572,4.956299,-15.946396,0.020858765,0.20979309,-0.5330658,-3.8663146,7.941655,-5.390218
1570715400,-1.0443878,-4.9748383,8.681564,-2.460144,-0.30792236,1.7071991,-1.900576,4.448122,7.1979046
1570715400,15.2912445,-36.07791,-28.351944,0.89649963,-0.20352173,1.7285004,9.843424,-30.281641,-27.394484
1570715401,1.8178711,2.2161407,11.237381,-1.1338806,-1.2666626,-0.9080353,3.0569081,8.975609,12.338928
1570715401,0.29037476,-21.03276,7.9740753,2.0363464,0.7530823,0.7069092,-0.12627755,-14.596792,8.57846
1570715401,-0.0867157,-11.272797,12.052597,2.7245026,-1.7438965,-0.872879,0.099227935,-4.7868824,11.769327
1570715401,-5.6364746,-12.793106,3.0480042,4.3479614,0.3557434,-1.367157,-5.8704214,-6.2483006,2.76237
1570715401,-3.1297455,-8.823517,-3.5695648,3.8408966,1.2814484,-0.24650574,-3.637986,-2.3641582,-4.850494
1570715401,0.12158203,-7.8730316,-3.1625519,1.9191589,-0.36758423,0.11462402,-0.2792558,-1.6453004,-4.8733463
1570715401,2.6007843,1.5325928,6.939789,1.6443176,-0.6615906,-0.40097046,1.4689827,5.4931703,1.3641632
1570715401,2.185379,-1.7881622,-3.19487,1.6325989,-1.2986145,-0.7407837,0.8692708,1.9249215,-7.2340755
1570715401,4.9351196,-8.762466,-6.9549713,1.1830597,-0.2205658,-0.65556335,4.1211452,-2.876381,-10.118923
1570715401,2.0489197,-7.2002563,-2.0540314,1.4770813,2.8228912,-1.0433197,1.3272327,-1.3347397,-5.3353786
1570715401,-5.4461365,-6.436508,0.5640259,0.6909027,1.8598938,-0.5735321,-6.145224,-0.45890856,-2.9972541
1570715401,-4.2849426,-11.054916,0.96624756,1.0019684,1.276123,0.6280823,-5.1043863,-5.3140917,-2.3726301
1570715401,-0.7666626,-14.30983,-4.391968,0.7548218,2.850586,0.6291504,-1.4708092,-7.7690463,-7.143498
1570715401,-2.1600952,-17.96698,-8.567459,-2.7403107,1.6116791,0.08265686,-1.7672446,-11.396277,-13.20014
1570715401,5.597122,-23.654404,11.482788,-4.643936,1.2420349,0.82621765,5.4537563,-17.279194,8.703204
1570715401,4.4479065,-17.917892,10.302444,-2.8841248,2.7046509,-1.318161,5.1544924,-11.30911,8.381296
1570715401,-1.4933014,-20.879532,5.0854797,-3.1546936,0.15333557,-1.5983276,-1.1686386,-14.935471,4.162101
1570715401,-1.3951416,-18.842056,1.9777985,-1.7773132,1.6564178,-1.4417267,-1.4103018,-11.884456,0.17218214
1570715401,-2.0188293,-12.167023,4.9705505,-1.5631866,-2.5833282,-0.6896515,-3.7,-8.215765,8.196318
1570715401,1.785553,-11.533752,8.090195,1.0669556,2.2092896,-1.829483,2.2313125,-5.990558,6.1808105
1570715401,-3.8767395,-4.7414093,5.0962524,1.6794739,0.7626648,-1.9157715,-4.59315,2.3483152,4.339207
1570715401,-6.947296,-0.14454651,-2.6621552,1.5409851,1.2718658,-0.14743042,-8.473135,6.8426046,-3.8742952
1570715401,1.1690521,-7.9556274,-8.326843,5.7157593,9.687454,1.0690918,-2.7724442,-0.68839693,-4.613655
1570715401,10.070694,-11.303909,-6.661682,0.17106628,1.8289948,-1.3160248,9.635486,-4.6251044,-11.450286
1570715401,8.077515,-10.133148,4.2271576,2.6094513,4.95874,-3.960022,7.384982,-3.8179064,0.96471334
1570715401,4.1989136,-9.216171,2.4865723,3.8249207,3.9190521,-5.6090393,3.3105521,-3.316441,-1.3132439
1570715401,1.7316895,-8.372223,-0.29548645,4.8262634,4.8223877,-5.4961243,0.72721565,-4.305078,-3.0737205
1570715401,1.4371948,-5.2094727,5.6373444,4.8411865,4.4825745,-5.172287,-0.22162378,-0.06773043,-0.3366685
1570715401,0.4627533,-1.4960632,4.162506,4.4939117,2.9240875,-5.664444,-1.0269474,1.5359619,-2.2048683
1570715401,-2.1936035,1.1016388,5.7366943,4.1583405,2.9070435,-6.353668,-3.317417,3.0092769,-1.1647725
1570715401,-3.2518463,-1.0986328,5.16568,2.873642,0.62312317,-5.8039856,-4.4936914,0.044723153,-1.7879047
1570715401,-2.4450073,-0.02482605,5.188431,3.381775,1.6532288,-5.727295,-3.5400412,0.08310546,-1.9085112
1570715401,-1.3448639,2.497467,3.122223,4.010269,4.3984222,-5.456711,-1.6115942,1.3122323,-3.9934092
1570715402,-5.0008087,4.636673,5.9821014,0.6813202,0.61779785,-3.77359,-4.4613924,3.4874125,-0.6789479
1570715402,-5.65802,2.4806976,3.5639648,-1.0720978,0.4345703,-2.8425598,-4.858604,1.2451501,-3.4411607
1570715402,-1.9446106,-1.6277466,18.927551,-1.7517395,-3.904251,-1.4246826,-0.38605517,-2.8302314,16.54426
1570715402,-0.42190552,3.2504425,14.816711,1.0115509,-0.6935425,0.27548218,-0.50609636,2.3341792,7.8437133
1570715402,0.16946411,1.4308472,8.4014435,-0.33813477,-2.2562866,0.5492554,0.09278,0.70165217,1.3955464
1570715402,1.7987213,0.62280273,9.208298,-1.0390778,-1.1313782,0.7772217,1.2503042,-0.21100152,1.9147902
1570715402,4.493393,-0.097854614,10.4832,-0.36582947,-1.1367035,0.35005188,3.8123765,-0.5959455,3.2968793
1570715402,4.3880463,-0.105041504,9.220261,0.1763916,-1.146286,-0.08883667,3.6472874,-0.7369038,2.3414626
1570715402,3.7080994,1.0705109,8.062668,0.8336487,-0.25146484,-0.2624817,2.7668796,0.2246933,0.8285198
1570715402,4.0325165,2.1790314,7.5634766,1.3811951,0.032958984,-0.18577576,2.989143,1.0570335,0.71920586
1570715402,3.425583,3.0014343,7.641281,1.331131,-0.105529785,-0.45103455,2.3567193,1.6240448,0.48550797
1570715402,2.2631989,3.980667,6.6500854,0.7697449,0.077697754,-0.46061707,1.2576102,2.248859,-0.2264452
1570715402,2.5026245,4.0369263,6.4082794,0.22431946,0.5101929,-0.35728455,1.5028349,2.3257594,-0.7110462
1570715402,2.0991974,3.6418915,7.6700134,-0.040924072,0.5805054,-0.37113953,1.1432786,1.9528599,0.4409461
1570715402,2.0955963,4.035736,8.582214,-0.11016846,0.48249817,-0.52453613,1.3678432,2.2508361,1.487483
1570715402,1.9328003,4.5911865,8.770157,0.01234436,0.65826416,-0.57780457,1.3005633,2.75132,1.5827351
1570715402,1.2348938,4.707306,9.438141,-0.094192505,0.7126007,-0.5927124,0.85552895,3.042312,2.1927466
1570715402,1.2145386,3.3785248,10.217453,-0.29553223,0.6827698,-0.7865906,0.99472094,1.6365763,2.892293
1570715402,1.0529327,3.8573608,11.223007,-0.24119568,0.35147095,-1.0113678,0.83893496,2.1483202,4.0132985
1570715402,0.50823975,4.6259003,10.753754,-0.30085754,0.08302307,-1.0284119,0.4740461,2.8632865,3.4734526
1570715402,1.2001648,4.4295807,11.72699,-0.38075256,0.12989807,-0.7748718,1.1382041,2.8799744,4.3302007
1570715402,0.93800354,3.4084473,11.979584,0.1295166,0.081970215,-0.5937805,1.174878,1.8986505,4.5609965
1570715402,0.6135864,2.7668152,10.736984,0.6994324,-0.30366516,-0.49790955,0.6344211,1.0182884,3.7472897
1570715402,1.3450165,2.6399078,8.36673,0.7665405,-0.16091919,-0.8206787,1.3036001,0.7245176,1.1853881
1570715402,1.3270569,3.0732727,8.369125,0.7697449,0.09474182,-1.1732788,1.4008405,0.8790524,0.95532036
1570715402,0.5704956,4.0572815,8.900635,1.0307312,-0.044799805,-1.2276154,0.9125763,1.6160629,1.657342
1570715402,-0.46499634,4.348175,8.619324,0.5385742,-0.020309448,-0.7865906,-0.22057523,1.9354882,1.3797464
1570715402,-0.6397705,3.5353394,8.783325,0.2594757,0.38023376,-0.5511627,-0.414187,1.0833218,1.5536022
1570715402,-0.48893738,3.987854,8.011185,0.51194763,0.41752625,-0.38179016,-0.119968414,1.2224331,0.89817333
1570715402,-0.5032959,4.6666107,6.3699646,0.9188843,0.47930908,-0.1655426,0.18793845,1.932404,-0.52423716
1570715402,-0.51885986,4.853348,6.3424377,0.6536255,0.92671204,-0.26994324,0.28125513,1.9502578,-0.78637075
1570715402,-0.5811157,5.134674,7.5191803,0.42884827,1.0939636,-0.3647461,0.39071596,2.003114,0.41399813
1570715402,-1.0635529,6.592743,7.8244476,0.6120758,0.9618683,-0.1655426,0.20544648,3.2657344,0.8941555
1570715403,-1.6644897,6.992569,8.535522,0.8080902,0.7829132,0.15083313,-0.29184723,3.6948366,1.7757158
1570715403,-1.2682495,6.2623444,8.516373,0.6759949,0.7861023,0.21902466,0.16004753,2.7284772,1.8929968
1570715403,-1.2730408,7.0823517,7.624527,0.8166046,0.8596039,0.25949097,0.39501894,3.2520077,1.2523265
1570715403,-1.1796722,7.222412,7.652054,0.9369812,0.87557983,0.37347412,0.72053623,3.297717,1.0996084
1570715403,-1.2251587,7.395996,7.7849426,0.8549652,0.6699829,0.39479065,0.7369698,3.1493855,1.3925085
1570715403,-2.2929688,7.98497,8.254196,0.6823883,0.61672974,0.45124817,-0.14519095,3.593534,2.0060177
1570715403,-2.6006165,8.0065155,8.687546,0.63764954,0.46972656,0.55670166,-0.7595874,3.4383254,2.5111666
1570715403,-1.6968079,8.139389,7.667618,0.7196655,0.45161438,0.43527222,0.27330124,3.3362532,1.7068195
1570715403,-2.407898,8.959412,8.274551,0.2818451,0.7019501,0.12420654,-0.13421226,4.1816845,2.0215788
1570715403,-3.662445,7.82576,9.883453,-0.092056274,0.24708557,-0.0057525635,-1.4451473,3.151063,4.070423
1570715403,-3.0543213,7.3612823,8.8168335,0.08584595,-0.041610718,0.085861206,-0.88876605,2.3810825,3.2994647
1570715403,-2.9717255,7.4007874,7.69516,0.3574829,0.24920654,0.3085022,-0.8033998,2.4373164,1.8248835
1570715403,-3.0878448,7.288254,6.403488,0.36280823,0.20767212,0.39372253,-0.76182413,2.1349182,0.64681196
1570715403,-3.4314117,7.277481,7.0247803,-0.42868042,-0.08102417,0.25630188,-1.2374227,2.1488285,1.1633759
1570715403,-3.4613342,6.755554,7.9788666,-1.2681122,-0.25572205,0.16043091,-1.3523116,1.8022866,1.8143091
1570715403,-2.5084534,5.510559,9.229843,-1.1392212,-0.40272522,0.08265686,-0.71658134,0.9791331,2.970024
1570715403,-1.8009644,5.469864,8.037521,-0.33494568,-0.37930298,-0.07392883,0.08277297,0.7598543,1.8495331
1570715403,-1.5388031,5.8469543,6.4573517,0.17211914,-0.27915955,-0.18577576,0.3116814,1.1539383,0.3179145
1570715403,-1.7937775,6.3174133,5.8995056,0.11140442,-0.23228455,-0.29870605,0.16929018,1.5618243,-0.41163063
1570715403,-2.1517181,6.7962494,6.1628723,0.015533447,-0.23228455,-0.35090637,-0.22832859,2.0743337,-0.26778746
1570715403,-2.5276031,6.8489227,6.3963013,-0.05050659,-0.29408264,-0.31147766,-0.6277114,2.153204,0.03108263
1570715403,-2.4629517,6.767517,6.4334106,-0.08459473,-0.35054016,-0.24862671,-0.6492101,2.1551938,0.0079135895
1570715403,-2.1026306,6.637039,6.877533,-0.03453064,-0.27064514,-0.18365479,-0.25087142,1.9340601,0.4777627
1570715403,-2.1193848,6.76033,7.0307617,0.053878784,-0.15771484,-0.14103699,-0.28272426,2.0990334,0.5130954
1570715403,-2.0547485,6.597534,7.415039,0.20301819,-0.10978699,-0.08351135,-0.24452603,1.9496951,0.87332916
1570715403,-1.8356781,6.73999,7.363556,0.53645325,-0.017105103,-0.070739746,-0.0719949,1.9311476,1.0608206
1570715403,-2.0727081,7.557602,7.1528625,0.8592224,0.2577362,-0.07392883,-0.14976287,2.4416027,0.8650527
1570715403,-2.5479584,7.922714,6.9026794,0.9519043,0.3131256,-0.033447266,-0.6158258,2.805694,0.6855893
1570715403,-3.2087555,9.4765625,5.770218,0.53538513,0.5879669,-0.07286072,-1.286994,4.1289883,-0.03605032
1570715403,-3.247055,8.658936,7.4557343,-0.03666687,-0.07356262,-0.007888794,-1.398057,3.1896172,1.5799308
1570715403,-1.5603485,8.979767,7.3192596,-0.18260193,-0.43148804,-0.1144104,0.3726983,3.7072105,1.2474556
1570715403,-2.328888,8.826538,8.591782,-0.41163635,-0.57850647,-0.28485107,-0.35540545,3.4899921,2.5940394
1570715403,-2.1421356,7.7012634,8.396652,-0.66304016,-0.18861389,-0.42866516,-0.20708776,2.5401955,1.9851875
1570715403,-2.878357,7.229599,10.238998,-0.76104736,-0.48582458,-0.38604736,-0.9019332,2.210638,3.8953037
