time,ax,ay,az,gx,gy,gz,la_x,la_y,la_z,fox,foy,foz
1570715378,-14.365814,-2.6809082,-1.7741089,0.8154297,-0.62997437,-0.98049927,-8.516901,4.6872783,-5.309313
1570715378,-9.773727,-3.229782,0.91937256,0.6385956,-0.6672516,-0.7621155,-4.3661027,3.6727781,-2.3715463
1570715378,-3.8588562,-3.1483765,-2.269104,-1.0796661,0.6163788,-1.6217804,1.7118483,5.688296,-7.563095
1570715378,-1.1061249,-4.3041687,-0.4237671,-0.7292023,1.396164,-1.8636017,3.934053,3.4664526,-4.0164986
1570715378,-6.000473,-5.834076,0.039505005,0.41383362,-0.19322205,-2.2715912,0.6217675,2.1988726,-3.8159957
1570715378,-9.200317,-3.8552704,5.3905487,0.691864,0.06350708,-1.3544006,-4.6270385,4.44116,1.1663313
1570715378,-12.277466,-8.817841,3.4913483,0.17201233,0.5578003,-0.39353943,-6.119814,0.6925411,-0.14993
1570715378,-12.498932,-10.169968,4.455612,0.37974548,-0.57670593,-0.06863403,-8.093462,-1.8161335,1.368681
1570715378,-14.58847,-10.559631,2.4001923,0.06335449,0.14660645,0.30421448,-9.291019,-1.3735037,-1.710645
1570715378,-16.756424,-10.587158,4.7267456,0.16456604,1.3237152,1.7945099,-11.540139,-2.8519268,0.9343097
1570715378,-14.437042,-10.412384,5.3300934,0.73553467,4.2862244,3.6342316,-8.7442665,-3.135621,3.2055917
1570715378,-14.92366,-7.735672,1.4616547,0.49372864,4.5088654,3.676834,-2.9381814,0.99222994,2.2884536
1570715378,-5.286392,1.2826996,-0.28311157,0.3584442,4.2244415,3.6544647,4.2212143,7.917408,-0.79432297
1570715378,0.41059875,3.0962982,6.6917877,-0.37660217,4.616455,2.1513824,9.344736,8.773037,8.9576025
1570715378,0.7068939,-4.3574524,0.1484375,-0.5108185,4.329895,0.45228577,10.351186,2.2696385,-1.9503052
1570715378,-6.546341,-12.604279,-2.008728,1.725174,5.012726,0.14654541,3.7795238,-6.004663,3.50527
1570715378,-10.1987,-13.739731,-4.7722473,2.269516,2.2547607,1.7455139,0.3118925,-10.210468,0.07246947
1570715378,-8.840591,-9.700714,-5.96994,-0.026123047,1.6188049,2.3729553,0.5127983,-5.474806,-1.2899008
1570715378,-8.486252,-6.565506,-3.9031525,-1.554779,-0.3423462,1.506897,-0.0462265,-3.8524268,-0.13537598
1570715378,-7.4609375,-0.9618683,-0.7577667,-0.8868561,0.13595581,0.6205902,1.0510216,1.6162667,3.1182742
1570715379,-6.0854645,0.37768555,-1.9375153,0.2359314,1.2448883,0.012329102,3.0017614,3.6006615,2.611135
1570715379,-4.546585,-1.0271149,-5.4719543,1.0519257,1.0914917,-0.6161804,3.8553143,2.614953,-0.014565468
1570715379,-6.4601593,-1.4742279,-8.402451,0.27108765,-0.3103943,-0.47555542,2.141964,2.0168645,-3.7778225
1570715379,-5.422867,-1.2216339,-5.787979,-0.10920715,-2.0872498,-0.15917969,2.9975853,1.9240236,-1.7332935
1570715379,-1.458664,-2.0428467,7.008423,-0.16461182,-3.4518585,-1.1413574,7.1610994,3.5764666,2.8248324
1570715379,-4.364624,-6.0387726,5.106827,0.45004272,-0.82917786,-1.5898285,3.3275633,-1.2670903,7.3344812
1570715379,-4.114441,-11.192886,-9.323624,0.5853424,1.0978851,-1.547226,4.5757656,-6.018334,-3.5369527
1570715379,-3.4829712,-7.221512,-1.5891571,-0.006942749,-0.783371,-2.0670624,4.6633425,-2.4436703,-0.3835318
1570715379,-10.862488,-8.836395,-0.7846985,-0.1124115,-3.7703705,-2.9799957,-3.4082327,-5.50443,-3.3181841
1570715379,-8.16243,-2.5761566,3.604477,0.21888733,-4.3903656,-3.413559,-3.4292283,1.5664692,2.107408
1570715379,-15.826874,-14.219757,-6.083664,-0.07406616,-2.7754211,-8.373428,-6.325475,-4.8566294,-5.3368645
1570715379,-19.612701,-15.360596,9.874878,2.2631226,-3.5477295,-5.5579376,-14.944155,-5.976735,6.313123
1570715379,-6.6935883,-7.9834595,-5.5437775,4.0783386,-0.24008179,-4.2189026,-4.4717712,1.3285484,-6.254798
1570715379,-12.353485,-9.645035,-2.6066895,1.4311523,-0.47550964,-5.323578,-8.217466,1.0585184,-9.171078
1570715379,-6.692398,-8.274368,-5.19722,2.0032043,2.9237518,-1.1892853,-4.109055,1.9225483,-0.95721936
1570715379,-7.76799,-2.652771,-6.2763977,0.9326172,3.0515747,2.1215515,-7.681817,6.1058807,-9.197447
1570715379,-3.8127594,-0.707489,2.0985107,-0.1592865,5.1799774,2.6339417,0.13948417,8.709541,0.8321848
1570715379,-3.8127594,-0.707489,2.0985107,-0.1592865,5.1799774,2.6339417,0.13948417,8.709541,0.8321848
1570715379,-2.0344696,-3.289627,4.463394,-0.14543152,3.1293488,2.0618896,2.5043993,5.774029,1.5979232
1570715379,3.75531,-1.3934326,3.9360657,-2.8693085,3.6491852,-3.554184,6.980691,5.2418413,1.987901
1570715379,3.75531,-1.3934326,3.9360657,-2.8693085,3.6491852,-3.554184,6.980691,5.2418413,1.987901
1570715379,-3.7966003,-19.612701,-18.256393,-0.9220123,6.1227417,-9.656006,0.112127066,-9.923451,-14.933305
1570715379,-5.1996,-19.612701,-19.608505,-3.5681305,-0.043014526,-6.0490265,-3.3396385,-9.204702,-17.521357
1570715379,-4.897934,-19.612701,-7.732071,-4.408615,-1.5684662,-1.1296387,-5.901453,-9.774512,-11.751169
1570715379,1.7770996,-19.612701,0.28012085,-1.4131012,0.60147095,2.0299377,6.777155,-9.95433,2.7733624
1570715379,10.636246,12.838913,9.22905,-0.6386566,2.3442383,0.016586304,11.212773,20.982895,13.761007
1570715379,10.636246,12.838913,9.22905,-0.6386566,2.3442383,0.016586304,11.212773,20.982895,13.761007
1570715379,8.95491,12.958618,4.6543274,1.7177124,0.35113525,-1.5077972,8.886428,22.02139,10.279924
1570715379,-1.2054749,4.594467,-0.3262024,2.5997467,-4.875061,-2.0723877,-1.9002403,14.576273,4.054694
1570715379,4.991913,-8.910614,0.15203857,2.7169342,-7.1483307,0.55667114,0.13700347,1.591938,-13.753874
1570715379,7.2717896,-5.701187,5.3690033,3.0215912,-5.540848,0.7324524,3.798648,0.2802143,0.094805
1570715379,11.235992,-8.914215,5.7664337,1.0018616,-6.7339325,0.20513916,10.53954,1.9191332,6.667684
1570715380,6.5834503,-14.753067,18.91359,-0.8399811,-1.2861786,-3.6937256,7.9850388,-3.502883,19.34603
1570715380,6.5834503,-14.753067,18.91359,-0.8399811,-1.2861786,-3.6937256,7.9850388,-3.502883,19.34603
1570715380,2.0225067,-19.612701,19.612701,4.3009796,13.582779,-2.9640198,-1.3644662,-10.166387,21.188305
1570715380,5.988495,-15.2486725,19.612701,3.3773956,-1.6590271,-1.6654663,4.116391,-11.068929,15.14949
1570715380,5.988495,-15.2486725,19.612701,3.3773956,-1.6590271,-1.6654663,4.116391,-11.068929,15.14949
1570715380,-3.8259277,-12.328339,-11.50235,1.326767,-0.30932617,-2.8500366,-4.247057,-3.3663416,-17.329376
1570715380,-19.612701,-9.795273,-19.612701,-1.5920563,-1.0571442,-0.2614441,-22.69423,-0.28591776,-24.249592
1570715380,-19.612701,-8.413223,5.735916,-2.605133,-1.9594269,1.6262054,-22.629179,-1.031744,-9.317228
1570715380,-7.325653,-2.8479004,3.3548737,-2.1108398,2.3474426,1.5132904,-9.691406,5.3004894,1.4333777
1570715380,-0.65182495,-19.612701,11.409561,-4.6344604,5.600754,2.3420563,-2.4289162,-10.28257,10.251013
1570715380,-0.52612305,-19.612701,-12.442673,-5.3045044,7.2828064,1.8797302,-0.97928584,-10.085122,-9.122233
1570715380,3.249527,-19.612701,-15.212158,-7.285904,4.05719,2.6296844,1.390067,-9.991047,-15.437897
1570715380,7.4459686,-19.612701,10.531494,-5.1276703,-3.0864716,1.8850708,13.26329,-10.374935,9.279385
1570715380,0.90200806,-16.62114,19.612701,-4.439514,6.7757416,4.202011,-5.3119016,-10.938887,24.035378
1570715380,1.7028809,-15.482101,19.612701,-4.213684,6.878006,4.0305023,-5.3119016,-10.938887,24.035378
1570715380,17.226288,7.716507,18.85614,-2.7532043,8.321442,0.9859772,20.601467,13.721607,25.177027
1570715380,10.322601,7.66803,7.9882507,2.6114655,-4.655609,-1.3980865,11.548196,20.037704,14.567571
1570715380,11.425125,2.9562378,5.0936584,2.346222,-4.7237854,-1.1807709,11.251531,14.237345,12.482512
1570715380,0.83917236,-3.7253723,-9.112335,2.617859,-5.799698,-0.7376251,4.25266,5.5639,-2.72724
1570715380,-2.1679535,-6.041168,-7.913437,2.9576874,-7.2260895,-0.24121094,0.7009505,3.3148527,-4.423133
1570715380,6.7696075,-4.850647,9.208694,4.117752,-9.572876,0.41819763,7.465688,2.4063387,7.252678
1570715380,8.398865,-6.170456,6.0465546,1.8466187,-7.788559,-2.0990295,9.879418,3.5223541,9.331268
1570715380,19.552246,-19.612701,12.512695,-0.6152191,-3.1109772,-5.421585,19.96508,-10.826129,19.408312
1570715380,-4.368225,-19.612701,14.581879,-1.9968567,-0.09840393,-3.4977112,-4.74292,-10.650458,14.277142
1570715380,0.2926941,-19.612701,19.612106,0.19438171,5.1192627,-1.7112732,-3.3913863,-10.660495,20.686962
1570715380,-15.016434,-19.612701,-5.3384705,15.451111,-0.54156494,1.6485748,-18.516052,-10.842242,-7.0418615
1570715380,-4.01268,-4.534012,-19.612701,2.189621,3.230545,-1.9711914,0.849154,6.262711,-22.537586
1570715380,-9.481033,-8.482056,-19.612701,1.3661804,2.7501068,-1.8721313,0.849154,6.262711,-22.537586
1570715380,-8.207916,-5.009262,6.4098816,-2.302597,0.8954773,0.40115356,-13.35603,-0.44872904,2.1298156
1570715380,-8.207916,-5.009262,6.4098816,-2.302597,0.8954773,0.40115356,-11.52968,1.5346751,2.3214722
1570715380,-4.3628387,-6.218933,-0.95648193,-4.7463074,1.1692505,2.5977325,-8.651265,1.9632473,-4.8151894
1570715380,-3.3010101,-6.186615,-0.44891357,-4.832596,1.3056183,2.6840057,-8.651265,1.9632473,-4.8151894
1570715380,1.5861511,-18.675964,-10.122086,-5.6411285,2.848114,2.5167694,2.4627473,-5.4434433,-5.6662273
1570715380,1.5861511,-18.675964,-10.122086,-5.6411285,2.848114,2.5167694,2.4627473,-5.4434433,-5.6662273
1570715381,8.10257,-19.612701,-7.6111603,-6.424103,-3.4476013,5.0648804,6.3490725,-11.116788,-7.3997736
1570715381,-14.849442,-19.612701,19.569,-4.930603,7.11557,5.3802032,-16.019056,-12.101351,23.484827
1570715381,5.4970856,-12.914322,19.612701,-5.2054443,12.921249,2.04805,7.6070027,-6.748707,24.787624
1570715381,19.612701,16.472702,13.417709,2.3536835,2.4731445,-1.1243134,20.047798,24.095913,19.688591
1570715381,19.612701,16.472702,13.417709,2.3536835,2.4731445,-1.1243134,20.047798,24.095913,19.688591
1570715381,7.6351166,3.3411102,4.7147827,3.7747345,-3.1855469,-1.2382965,11.087616,10.253707,11.923876
1570715381,6.242279,-3.0352478,3.2064362,4.6141663,-8.052734,-1.1275024,9.223689,6.3275037,5.4981403
1570715381,5.3624115,-3.925293,3.2273865,4.5843353,-7.9898834,-1.1605225,8.609162,5.639675,5.752405
1570715381,-0.0688324,-19.603119,-6.0687103,3.2112122,-4.3445587,0.24136353,4.102722,-11.504542,-8.01313
1570715381,3.712204,-16.175827,-1.6543884,0.963501,-7.484955,-1.1083374,5.8548713,-6.676919,0.036074996
1570715381,5.598236,-10.429749,6.356003,-1.9798126,-7.8950806,-4.145401,8.247368,-6.515976,6.8022294
1570715381,5.598236,-10.429749,6.356003,-1.9798126,-7.8950806,-4.145401,8.247368,-6.515976,6.8022294
1570715381,6.9431915,-19.612701,19.612701,6.8160706,13.795837,-4.396805,13.584064,-11.151119,20.295609
1570715381,6.9431915,-19.612701,19.612701,6.8160706,13.795837,-4.396805,8.159002,-11.159851,19.880312
1570715381,13.349472,-16.282364,19.34694,2.4665985,-4.9048767,-0.18473816,5.4650407,-11.83257,8.095886
1570715381,13.349472,-16.282364,19.34694,2.4665985,-4.9048767,-0.18473816,5.4650407,-11.83257,8.095886
1570715381,-17.043716,-12.049423,-3.8672333,-0.9177551,0.3852234,-0.80259705,-20.005728,-7.261003,-14.4357815
1570715381,-17.043716,-12.049423,-3.8672333,-0.9177551,0.3852234,-0.80259705,-20.005728,-7.261003,-14.4357815
1570715381,-6.677429,-3.1076813,-8.582016,-3.9058228,-0.22091675,1.3343201,-11.498818,5.3540707,-16.944695
1570715381,-5.622177,-3.799591,-6.8204803,-4.1135406,-0.19641113,1.5005035,-8.981356,4.697925,-12.797838
1570715381,5.7616425,-6.284775,0.66378784,-4.65683,1.9010925,2.2280731,4.448042,1.7300024,-1.2306162
1570715381,-12.21582,-19.612701,-2.8844147,-5.5260773,5.2108765,2.6179657,-11.680515,-11.219807,-0.6759936
1570715381,-13.819931,-19.612701,-7.347809,-5.4973145,5.2108765,2.6179657,-11.680515,-11.219807,-0.6759936
1570715381,3.794815,-19.612701,19.605515,-2.2599792,-3.1780853,5.079788,9.655227,-11.855482,22.201847
1570715381,3.794815,-19.612701,19.605515,-2.2599792,-3.1780853,5.079788,9.655227,-11.855482,22.201847
1570715381,9.547485,-1.493988,13.449432,-4.181717,10.593658,2.2483215,9.273146,2.4093895,21.354284
1570715381,17.338211,19.612701,19.591751,-1.8839417,7.769638,1.4866486,21.120058,22.629074,24.39917
1570715381,16.035767,11.122864,17.295715,2.377121,5.5475006,0.6014252,16.19984,20.056194,24.750134
1570715381,10.15979,3.9426575,0.6661835,3.5489044,-2.5698242,-1.3757172,12.0316105,10.130293,4.736001
1570715381,8.681976,-2.0805664,3.2938232,3.2527618,-6.1096954,-0.7408142,11.013667,6.041572,6.0141506
1570715381,8.57843,-2.119461,3.4578247,3.2485046,-5.802902,-0.74827576,11.013667,6.041572,6.0141506
1570715381,11.110886,-19.612701,-5.6664734,1.8487396,-8.714264,-2.4516296,7.412327,-6.0737095,-2.3087995
1570715381,11.110886,-19.612701,-5.6664734,1.8487396,-8.714264,-2.4516296,7.412327,-6.0737095,-2.3087995
1570715382,2.4211426,-4.9829254,1.9817963,0.93048096,-5.0135345,-2.648697,3.483158,0.6574693,3.3183184
1570715382,2.4211426,-4.9829254,1.9817963,0.93048096,-5.0135345,-2.648697,3.483158,0.6574693,3.3183184
1570715382,-7.5435333,-19.612701,19.612701,2.2918854,3.053711,-5.2639313,-0.3604033,-11.862173,19.376518
1570715382,-7.5435333,-19.612701,19.612701,2.2918854,3.053711,-5.2639313,-0.3604033,-11.862173,19.376518
1570715382,1.8662872,-3.7265778,-18.258774,1.6580658,3.1453247,-1.9051514,9.514559,5.4573655,-3.35625
1570715382,1.8662872,-3.7265778,-18.258774,1.6580658,3.1453247,-1.9051514,9.514559,5.4573655,-3.35625
1570715382,-18.909409,-13.12442,-15.234909,-1.9723663,-2.7040405,-1.1093903,-18.808868,-7.9066644,-23.32151
1570715382,-10.017334,-1.9536743,-5.823303,-1.7646332,2.0001678,0.17105103,-11.505855,5.131565,-3.5034623
1570715382,-5.308548,-2.8868103,-1.7411804,-3.5106049,1.0776367,1.7881317,-8.26944,3.9120412,-4.3967056
1570715382,-2.6988678,-2.7210083,-0.5560608,-3.7854462,1.0787048,2.1854706,-4.868951,4.6087365,-2.5879679
1570715382,-0.754776,-6.2446747,-1.1629791,-4.280792,1.8073578,2.303711,-1.9340479,2.7970052,-2.894691
1570715382,-10.372879,-19.612701,1.3461456,-5.1670837,3.453186,3.848343,-10.588755,-11.808974,4.395612
1570715382,-1.1204834,-19.612701,-11.545441,-5.6709595,-1.5737915,5.809494,-3.0366392,-11.967024,-13.056685
1570715382,6.083069,-19.612701,7.697357,-2.368637,-1.4832458,4.7793884,10.680754,-12.493874,8.798732
1570715382,11.5364685,-0.3537445,16.688782,-3.5734558,7.7302246,1.7028961,11.878628,0.681839,22.14446
1570715382,11.5364685,-0.3537445,16.688782,-3.5734558,7.7302246,1.7028961,11.878628,0.681839,22.14446
1570715382,11.803421,11.804611,2.3983917,3.47966,-0.3583374,-1.5866394,14.440559,18.210972,7.905669
1570715382,11.131241,11.568787,2.4552612,3.5169525,-1.165802,-1.5908966,14.440559,18.210972,7.905669
1570715382,6.0465546,-3.0543976,3.3865967,3.9313354,-4.2582703,-1.3054047,8.1344795,4.6014876,8.85862
1570715382,6.0465546,-3.0543976,3.3865967,3.9313354,-4.2582703,-1.3054047,8.1344795,4.6014876,8.85862
1570715382,1.3347626,-17.966095,-13.094482,2.091629,-2.7477264,-0.22203064,1.8912416,-9.167095,-13.794102
1570715382,7.6195526,-19.612701,2.542038,1.6697845,-7.4647064,-0.595932,7.4694767,-10.772622,-2.124187
1570715382,17.334015,-19.612701,16.150085,-1.3736877,-7.3571167,-2.4324493,10.966883,-12.382906,5.1342607
1570715382,9.213486,1.5035553,10.692505,-1.0562286,-4.382904,-1.4971466,4.255141,6.607747,5.3054223
1570715382,14.279617,4.541794,17.834412,-0.965683,-4.1187134,-1.6942291,7.4445453,8.154536,9.204485
1570715382,-10.319611,-19.612701,-19.612701,22.79184,13.254684,-2.5581512,-5.125014,-12.826664,12.642573
1570715382,-10.319611,-19.612701,-19.612701,22.79184,13.254684,-2.5581512,-5.125014,-12.826664,12.642573
1570715382,9.774933,-16.10939,19.227829,2.237564,-8.072983,-0.20924377,-9.880324,-13.261211,-11.103965
1570715382,-13.399155,-12.164932,0.70269775,-1.887146,0.8816376,-0.086746216,-18.82153,-7.74751,-7.3400946
1570715382,-13.399155,-12.164932,0.70269775,-1.887146,0.8816376,-0.086746216,-18.82153,-7.74751,-7.3400946
1570715382,-7.25264,-3.8199463,-7.1879883,-2.2493286,2.3325195,0.81874084,-9.387444,1.897285,-7.787758
1570715382,0.5093689,-5.9555817,-1.4778137,-4.4746704,1.5005493,1.317276,-1.2987796,0.86376953,-4.9315567
1570715382,3.3506927,-4.7387238,1.3048401,-4.3990326,1.1852417,1.3407135,1.6424496,2.0829139,-0.5252999
1570715383,-18.30606,-19.612701,-5.360016,-5.853119,3.34346,2.5774841,-15.059821,-12.283106,-0.71568525
1570715383,-18.30606,-19.612701,-5.360016,-5.853119,3.34346,2.5774841,-15.059821,-12.283106,-0.71568525
1570715383,-7.1838074,-19.612701,-7.305313,-5.741272,-0.9186554,5.15329,-12.722128,-12.344456,-7.8269963
1570715383,6.499054,-19.612701,19.612701,-2.9641266,-1.0251923,3.529831,13.111103,-12.674068,17.545038
1570715383,10.940903,2.1996765,16.989258,-2.8373566,5.687042,1.3343201,7.9505596,3.09558,18.552948
1570715383,10.940903,2.1996765,16.989258,-2.8373566,5.687042,1.3343201,7.9505596,3.09558,18.552948
1570715383,17.07544,10.624863,11.372452,2.7659302,3.9059143,-0.9165802,18.050282,16.846062,18.121721
1570715383,8.160629,2.348114,0.59436035,4.5044403,-7.0300903,-0.7216339,8.356328,10.868774,2.900871
1570715383,8.047516,1.7423859,1.829773,4.3968506,-7.2271576,-0.76104736,8.399385,9.231931,2.9001567
1570715383,11.041458,-9.543289,-0.31184387,2.9694061,-2.6390686,-0.5682373,10.498491,-0.45778847,0.07975924
1570715383,11.041458,-9.543289,-0.31184387,2.9694061,-2.6390686,-0.5682373,10.498491,-0.45778847,0.07975924
1570715383,12.570755,-19.612701,13.601456,-0.6663513,-9.180847,-3.444458,10.932488,-12.67865,20.566328
1570715383,12.570755,-19.612701,13.601456,-0.6663513,-9.180847,-3.444458,10.932488,-12.67865,20.566328
1570715383,9.508575,-8.140289,19.551056,-1.4887238,1.0201263,-2.5751953,6.8268304,0.67749596,20.091038
1570715383,-19.612701,-19.612701,19.612701,14.310211,8.010391,-4.2465973,-21.94834,-12.983917,18.818834
1570715383,-19.6109,-19.612701,18.32582,17.199203,6.4071655,-3.667099,-21.94834,-12.983917,18.818834
1570715383,12.184692,-12.811371,19.612701,0.5512543,2.290985,1.7412567,-12.812486,-12.710419,-14.027869
1570715383,-17.044327,-11.614868,-3.3536835,-1.7326813,-2.313095,-0.8622589,-18.376888,-2.8183827,-16.427286
1570715383,-17.044327,-11.614868,-3.3536835,-1.7326813,-2.313095,-0.8622589,-18.376888,-2.8183827,-16.427286
1570715383,-15.561111,-7.341217,-12.855072,-1.664505,1.2480927,0.2637329,-16.733921,0.2530489,-13.577528
1570715383,-15.190018,-8.187576,-10.491989,-2.002182,0.53115845,0.63656616,-17.9322,-1.1034045,-15.665529
1570715383,-5.7263336,-5.3749847,-0.0574646,-4.119934,1.6092072,2.6019897,-9.107553,0.030382156,-2.1335914
1570715383,0.32800293,-11.338333,-4.141968,-5.137268,1.9852448,3.7109222,-0.7885351,-2.8428292,-5.4656644
1570715383,-14.932037,-19.612701,-18.38388,-4.785721,-0.3199768,5.947983,-15.849285,-12.674422,-15.203529
1570715383,-12.770676,-19.612701,-18.791489,-4.865616,-0.99217224,6.2324066,-15.849285,-12.674422,-15.203529
1570715383,3.4033508,-14.94281,17.131119,-3.2815704,7.4766846,2.844864,0.16237879,-12.81678,21.53799
1570715383,6.609787,-11.556213,16.060303,-3.4552155,7.8271637,2.606247,0.16237879,-12.81678,21.53799
1570715383,15.351624,1.5783844,17.301697,-3.670395,8.106262,1.5132904,12.6362,1.2944541,22.468285
1570715383,14.681244,7.3382263,4.593872,2.7137299,2.5274658,-3.1227417,18.415604,14.923612,12.1453085
1570715383,10.901993,5.830475,1.5287018,2.9310455,-0.31359863,-3.0215454,13.496161,11.888733,6.2070026
1570715383,8.826218,2.9783936,4.5992584,3.4903107,-7.3699036,-1.4438934,9.478848,10.247116,6.9007916
1570715383,7.7739716,-2.2481537,5.0613403,4.560913,-4.7248535,-0.72909546,8.563345,4.3013,7.71223
1570715383,-0.61291504,-15.962143,-15.962143,4.225342,-1.8230743,-0.17729187,4.2557564,-7.108636,-6.27234
1570715383,8.084625,-19.612701,17.875702,-2.9801025,-5.702759,-3.0684204,5.503273,-13.146252,6.2681975
1570715384,1.1168976,-4.2113953,3.1531677,-0.98272705,-5.5365753,-3.7448578,-0.9207507,0.49720526,2.1757956
1570715384,1.1168976,-4.2113953,3.1531677,-0.98272705,-5.5365753,-3.7448578,-0.9207507,0.49720526,2.1757956
1570715384,-9.76355,-19.612701,19.612701,11.824951,8.081757,-4.463913,-9.194066,-13.248032,19.587795
1570715384,-9.76355,-19.612701,19.612701,11.824951,8.081757,-4.463913,-9.194066,-13.248032,19.587795
1570715384,9.065048,-19.303848,19.612701,2.5432892,-5.7581635,-1.134964,5.678033,-13.842075,-4.922175
1570715384,-18.404236,-10.05983,-10.459076,-0.7345276,0.08268738,-1.2659912,-20.874012,-3.3464332,-13.317772
1570715384,-18.404236,-10.05983,-10.459076,-0.7345276,0.08268738,-1.2659912,-20.874012,-3.3464332,-13.317772
1570715384,-9.718658,-7.1042023,-5.5473633,-1.9403992,1.1063995,0.6152649,-12.344332,-2.028204,-6.601012
1570715384,-9.718658,-7.1042023,-5.5473633,-1.9403992,1.1063995,0.6152649,-12.344332,-2.028204,-6.601012
1570715384,-2.9328918,-4.292206,-0.022140503,-4.568405,2.4092255,2.2440643,-4.5551386,1.5834646,-0.78837466
1570715384,-2.9328918,-4.292206,-0.022140503,-4.568405,2.4092255,2.2440643,-4.5551386,1.5834646,-0.78837466
1570715384,-16.072876,-19.612701,7.8529816,-5.2576294,5.4644012,4.7122803,-17.345074,-13.112253,10.8154
1570715384,13.992905,-19.612701,0.29148865,-4.3638763,-0.74928284,6.856659,10.17019,-13.346304,0.8432325
1570715384,15.526398,-19.612701,3.3548737,-4.0283203,-0.8909607,6.571167,10.17019,-13.346304,0.8432325
1570715384,7.5405426,-19.612701,15.986084,-3.1643982,-0.17617798,3.5213165,16.916208,-13.644057,16.15844
1570715384,9.689331,-2.5797577,18.553268,-3.7417603,8.799744,2.2280731,8.71723,-2.0232072,20.608044
1570715384,17.29631,10.235214,10.79007,4.180603,3.8920746,-1.5706482,17.152983,17.081894,19.093927
1570715384,16.659454,9.167404,8.781937,4.3755493,3.5202942,-1.7879639,17.881922,15.759878,15.283595
1570715384,10.709259,-1.3964233,2.620453,3.8034973,-8.891098,-2.2300568,11.691855,5.2321343,4.1586065
1570715384,9.794083,-2.1655579,3.229782,3.4359894,-8.744095,-2.185318,10.982485,4.1014204,4.997072
1570715384,7.2963257,-7.268799,1.3431396,2.9651337,-3.4017944,-1.2990112,4.6950893,-0.1578536,5.792664
1570715384,19.612701,-19.612701,-7.198166,-0.92308044,-11.32843,-2.3056946,16.324724,-13.486882,-10.9408245
1570715384,19.612701,-19.612701,12.487564,-2.5976715,-13.079727,-3.9951935,19.73412,-13.4547825,4.9967213
1570715384,5.8550262,-8.802277,19.612701,-0.43411255,-7.7065277,-3.0684204,6.741755,-11.570887,17.925901
1570715384,-0.11013794,-19.612701,19.612701,3.2516937,7.770706,-6.2258606,7.491396,-13.517624,19.56999
1570715384,-0.11013794,-19.612701,19.612701,3.2516937,7.770706,-6.2258606,7.491396,-13.517624,19.56999
1570715384,-19.612701,-19.612701,-19.612701,8.562042,-8.968872,-0.60339355,-21.918707,-14.31326,-22.104317
1570715384,7.7649994,4.62619,-19.121292,2.0724487,0.87524414,-2.5762634,3.4353247,6.1194773,-11.729931
1570715384,-17.595581,-13.824127,-13.394363,-0.49591064,0.55885315,-1.9477539,-19.188152,-7.979853,-17.810457
1570715384,-14.735107,-5.699402,-12.482773,-2.0213623,0.75486755,0.83044434,-17.6561,-1.319521,-14.436207
1570715384,-13.927078,-5.2792206,-11.259933,-2.2642365,0.45765686,0.97958374,-17.6561,-1.319521,-14.436207
1570715384,-4.1102448,-4.3514557,-3.0861206,-4.2360535,1.415329,2.4283447,-7.5942307,1.5924549,-5.2649755
1570715384,-4.9625854,-19.612701,6.605606,-5.69014,1.0488892,3.9942932,-2.4511657,-10.885164,3.6178596
1570715384,-4.9625854,-19.612701,6.605606,-5.69014,1.0488892,3.9942932,-2.4511657,-10.885164,3.6178596
1570715385,-8.864532,-19.612701,-17.171814,-5.313034,5.3067474,5.3567657,-11.979191,-13.374229,-9.428476
1570715385,10.06044,-19.612701,10.451889,-4.5566864,-3.6723633,5.375931,10.235347,-13.647562,5.6855288
1570715385,-13.71817,-19.612701,14.630966,-2.3835602,5.5347137,3.9740448,-12.639167,-14.072006,21.557905
1570715385,19.612701,19.594147,19.612701,-0.46394348,6.113144,0.6355133,21.930716,23.32262,19.053108
1570715385,19.612701,19.594147,19.612701,-0.46394348,6.113144,0.6355133,21.930716,23.32262,19.053108
1570715385,12.717407,8.30249,3.6200256,3.2985687,1.173523,-3.4529724,16.179577,16.271198,8.527285
1570715385,7.186203,0.06225586,4.894943,3.1547546,-6.5581665,-2.5954437,7.5962725,7.1146836,4.2676926
1570715385,6.750458,-2.3594818,3.4500427,3.0354462,-5.860428,-1.4779816,7.6093783,3.3379173,5.488942
1570715385,8.353973,-4.206009,-5.945999,2.9630127,-1.0571442,-0.48727417,5.3968506,3.3811078,2.6506166
1570715385,3.107071,-3.9797668,-2.6036987,2.1310425,-3.6638489,0.3414917,2.9193258,-4.4414673,-10.256145
1570715385,19.612701,-19.612701,19.591751,-1.807251,-10.5390625,-5.9393005,20.233974,-13.823397,14.164022
1570715385,0.31903076,-6.582855,19.60791,1.0359497,-4.9975586,-3.5190277,1.4806201,0.32174778,20.036938
1570715385,-1.8968048,-11.58255,19.612701,2.5347748,-0.42970276,-2.5879822,-1.7553432,-2.2910833,19.892952
1570715385,8.326431,-19.612701,19.612701,3.7118835,5.4377747,-4.510788,15.252165,-13.725014,19.039976
1570715385,-19.612701,-19.612701,-19.612701,22.090897,1.558075,-2.8500366,-21.469448,-14.407812,6.9466095
1570715385,5.215164,-7.9475555,15.92923,2.8298492,-2.0744781,-1.3267059,9.33035,-6.290235,16.410463
1570715385,-18.078613,-11.680115,-10.256165,-1.2469177,-0.34768677,-1.8923645,-18.76655,-4.3319283,-15.654732
1570715385,-17.870316,-9.766541,4.68425,-1.5856628,1.526123,-0.8132477,-21.182566,-5.7219887,0.9971359
1570715385,-11.475403,-6.0974274,-6.1291504,-3.6139374,-0.06538391,2.0235443,-17.858896,-1.2604375,-17.251677
1570715385,5.1642914,-9.282913,-4.060562,-5.121277,1.333313,3.8366241,3.0619335,-3.3086767,-5.7445955
1570715385,5.1642914,-9.282913,-4.060562,-5.121277,1.333313,3.8366241,3.0619335,-3.3086767,-5.7445955
1570715385,-6.482895,-19.610306,9.946106,-5.0808105,1.5186615,4.37352,-2.6377292,-13.670187,5.9668937
1570715385,-12.940063,-19.612701,-17.132904,-4.8911896,3.8579865,4.2914886,-13.892664,-13.598817,-12.139203
1570715385,4.234146,-19.612701,2.4774017,-4.5236664,-3.171692,5.4142914,0.27326274,-13.748949,-6.7024264
1570715385,12.397171,-2.9358826,19.601334,-3.1665192,7.9986725,2.1236877,14.687864,0.0112166405,21.920576
1570715385,13.649948,-1.0761871,19.612701,-3.1420288,7.9006653,2.01503,14.687864,0.0112166405,21.920576
1570715385,19.612701,19.612106,19.612701,0.705719,6.2601624,0.24775696,21.363176,24.401367,22.635283
1570715385,9.782715,6.8964996,5.6981964,3.6426544,-4.9293823,-1.261734,10.523767,13.797718,8.134731
1570715385,9.878479,-2.5492249,2.7730865,3.254898,-4.9975586,-1.646286,10.862315,2.72678,3.967289
1570715385,10.037094,-2.6312256,2.6970673,3.2048187,-4.7557373,-1.7016754,10.862315,2.72678,3.967289
1570715385,10.33577,-11.971603,-10.39502,1.2724304,0.19134521,-3.8939972,17.299809,-3.9802604,-8.090381
1570715385,6.2243195,-16.513412,-1.0271149,0.6577759,-6.7136993,-2.4047546,3.3791857,-5.3640223,1.4731376
1570715386,-1.6352386,-8.193558,10.248978,2.8021545,-2.0489044,-3.1983795,-0.7173105,-3.5686035,11.930645
1570715386,-1.6352386,-8.193558,10.248978,2.8021545,-2.0489044,-3.1983795,-0.7173105,-3.5686035,11.930645
1570715386,-12.804794,-19.612701,19.612701,4.57901,-1.9967041,-2.9437866,-8.729189,-13.985556,18.97892
1570715386,-12.804794,-19.612701,19.612701,4.57901,-1.9967041,-2.9437866,-8.729189,-13.985556,18.97892
1570715386,9.355942,-6.400299,9.80246,2.824524,-2.5112305,-1.1360321,7.882333,-3.4501233,10.190545
1570715386,9.397842,1.6950989,-0.46806335,2.5944214,-1.1732635,-1.4449463,6.640313,4.4676743,-1.406903
1570715386,-18.297684,-9.855728,9.168594,-0.78352356,0.90826416,-0.64601135,-22.092346,-7.58279,2.2567687
1570715386,-18.297684,-9.855728,9.168594,-0.78352356,0.90826416,-0.64601135,-22.092346,-7.58279,2.2567687
1570715386,-18.585587,-7.5513153,-19.476837,-1.9489288,0.87098694,0.8805237,-20.962948,-2.3515987,-21.83352
1570715386,4.5477905,-9.094376,-5.088272,-5.171356,1.9490356,3.4818878,1.618226,-4.006787,-5.382825
1570715386,4.5561676,-9.458298,-4.873993,-5.330078,1.9532928,3.4233093,1.618226,-4.006787,-5.382825
1570715386,-15.43721,-19.612701,-19.612701,-5.039261,3.547989,5.4600983,-19.247234,-13.782969,-10.645217
1570715386,-11.693283,-19.612701,-19.578583,-5.2437897,2.7565002,5.791382,-16.616726,-13.798405,-18.27622
1570715386,12.573746,-19.612701,9.652817,-2.7286987,-2.422821,5.7956543,15.055448,-14.1446495,10.883383
1570715386,6.246475,3.2243958,19.31163,-3.1846313,7.5832214,1.4078217,10.732787,4.943155,21.692856
1570715386,6.246475,3.2243958,19.31163,-3.1846313,7.5832214,1.4078217,10.732787,4.943155,21.692856
1570715386,19.611511,8.285736,11.298233,2.2929535,5.478256,-0.78341675,20.680023,16.319164,16.484777
1570715386,15.341446,4.158127,4.2089996,2.5805817,2.0097504,-1.9914398,18.264578,9.705657,10.307919
1570715386,8.968674,-0.76794434,4.617218,3.5883179,-6.451645,-1.1786346,10.363357,6.3938236,7.401245
1570715386,12.325348,-6.6624603,-5.8550262,3.5467682,-2.584732,-0.92297363,8.497552,2.421496,1.0249915
1570715386,12.325348,-6.6624603,-5.8550262,3.5467682,-2.584732,-0.92297363,12.160772,-0.55253553,-3.5536046
1570715386,1.0815735,-9.537903,-14.797958,2.5944214,-5.7570953,-1.2723846,1.7423639,-7.2498975,-18.501675
1570715386,4.9476166,-19.612701,19.612701,-2.4336243,-8.167786,-2.9299316,6.0079384,-14.154266,13.589808
1570715386,6.0543365,-19.236206,6.6445007,-0.9401245,-4.4255066,-5.631439,7.6597457,-14.131839,8.356856
1570715386,-1.2336121,-10.304642,6.0112457,-0.15289307,-6.121414,-3.1557617,-1.2658594,-4.135888,5.64816
1570715386,19.595947,-19.612701,19.612701,3.145172,11.363831,-5.083893,18.088444,-14.174423,20.152567
1570715386,-1.3239899,-19.554047,19.612701,1.3832245,-0.8728485,-0.769577,-5.397151,-14.813139,-8.617577
1570715386,3.5906982,-17.782333,15.959152,3.9963226,-0.87498474,-1.5791779,5.3471212,-14.146816,17.371595
1570715386,-18.723251,-10.04248,-0.3136444,-1.1286774,1.1809692,-0.39353943,-21.656382,-5.503625,-4.148418
1570715386,-18.723251,-10.04248,-0.3136444,-1.1286774,1.1809692,-0.39353943,-21.656382,-5.503625,-4.148418
1570715386,-12.295425,-6.06691,-6.2243195,-1.586731,1.9682007,0.74842834,-15.64281,-2.3477407,-5.8132706
1570715386,-2.2158356,-7.0233917,-2.4534607,-3.78331,1.159668,2.5167694,-4.551917,-1.9722686,-3.781489
1570715386,0.106536865,-5.9753265,-1.5939331,-4.022995,1.1234436,2.7479248,-2.6053665,-1.5050969,-3.5792372
1570715386,-1.5945435,-12.654556,1.9207458,-4.931671,1.6731262,2.6765594,-0.79859436,-3.7180333,-0.94223654
1570715387,-18.771133,-19.612701,-17.57463,-4.9050293,3.9048615,3.8419495,-15.141139,-13.967407,-8.5364065
1570715387,-2.7281952,-19.612701,-1.0097504,-5.4632263,0.77937317,5.63266,-5.1185856,-14.009308,-5.5216565
1570715387,13.485336,-19.612701,11.578354,-2.4378815,-2.6358643,4.1082764,19.44399,-14.187975,4.6876755
1570715387,8.426987,-2.0440521,17.625519,-2.939621,5.741379,1.6411133,9.810106,1.7387257,20.130915
1570715387,19.612701,14.174271,19.612701,1.0199738,4.5109863,-0.4894104,20.701778,20.960463,22.444939
1570715387,19.612701,14.174271,19.612701,1.0199738,4.5109863,-0.4894104,20.701778,20.960463,22.444939
1570715387,7.123352,2.5671844,3.3345184,3.831192,-5.003952,-1.0188446,7.7552214,8.652239,5.5576982
1570715387,6.9509735,1.7405853,3.1328125,3.7310638,-4.7205963,-1.0231018,7.7552214,8.652239,5.5576982
1570715387,-5.981308,-13.719376,-19.612701,2.2279816,-1.5695343,-0.16983032,-4.832125,-3.1256857,-16.667524
1570715387,7.221512,-5.5437775,0.82958984,1.3224945,-10.35051,0.12631226,4.7967606,-5.816698,-8.286755
1570715387,19.612701,-19.612701,19.58397,-1.4855347,-8.127304,-4.589615,19.878738,-14.242886,19.814533
1570715387,19.612701,-19.612701,19.58397,-1.4855347,-8.127304,-4.589615,19.878738,-14.242886,19.814533
1570715387,17.277756,-18.586792,19.612106,0.29664612,4.9157867,-3.0684204,6.8905377,-4.6831117,20.200743
1570715387,17.277756,-18.586792,19.612106,0.29664612,4.9157867,-3.0684204,6.8905377,-4.6831117,20.200743
1570715387,-2.8856049,-19.612701,19.612701,8.5034485,13.235504,-7.0897827,10.144164,-14.389805,19.1197
1570715387,-19.602524,-19.612701,-19.612701,8.057098,-4.3882294,-0.84840393,-21.600258,-15.236374,-22.374268
1570715387,16.709732,4.8650208,-13.49971,3.190979,1.7732544,-1.34375,10.821384,3.6207976,-2.9653265
1570715387,-19.612701,-12.480377,-17.263992,-1.3470459,-1.9061584,-1.2595978,-20.077272,-8.931364,-22.715664
1570715387,-15.852615,-13.287827,6.913254,-1.603775,-0.50852966,0.24668884,-20.592113,-10.938596,2.5672681
1570715387,-12.884399,-5.5802917,-5.530014,-3.896225,-0.13569641,1.7167511,-16.318907,-1.4318662,-13.704086
1570715387,-0.79008484,-8.966278,-1.0935516,-5.197983,2.79805,2.9450073,-1.4712884,0.06207466,-1.884613
1570715387,-1.3048401,-11.112686,-0.7805023,-5.346054,2.7437134,2.9641724,-1.621444,-2.8082428,-2.3260028
1570715387,-4.155136,-19.612701,-15.309128,-6.411316,1.2789764,5.1927032,-6.2255287,-14.049407,-16.862398
1570715387,-4.155136,-19.612701,-15.309128,-6.411316,1.2789764,5.1927032,-6.2255287,-14.049407,-16.862398
1570715387,-17.228668,-19.612701,19.612701,-3.547882,5.064926,4.9381104,-7.227512,-14.3391,21.078665
1570715387,-16.490662,-19.612701,19.612701,-3.6341705,6.20903,4.7484894,-13.66515,-14.390376,21.196384
1570715387,19.612701,19.603119,19.612701,0.21142578,7.0601654,0.27970886,20.7791,24.08553,22.508888
1570715387,19.612701,19.603119,19.612701,0.21142578,7.0601654,0.27970886,20.7791,24.08553,22.508888
1570715387,9.6953125,1.2874756,4.3777924,3.9899292,-7.811981,-1.6675873,9.4964285,7.2455816,6.4251957
1570715387,9.634262,0.8547363,4.2987823,4.0442505,-8.117722,-1.6121979,9.896564,6.298979,6.4452896
1570715387,19.24878,-11.034271,-10.189117,2.552887,0.15725708,-1.5568085,18.924757,-3.1706944,-9.868182
1570715387,19.24878,-11.034271,-10.189117,2.552887,0.15725708,-1.5568085,18.924757,-3.1706944,-9.868182
1570715387,9.461884,-19.612701,19.612701,-0.3712616,-15.442474,-4.7888184,16.391495,-14.344857,19.817734
1570715387,7.680008,-19.612701,19.6109,-0.52253723,-14.632874,-4.385086,10.179655,-14.335556,19.863739
1570715388,17.071854,-15.311523,19.612701,-0.11987305,9.005341,-4.480957,9.031779,-0.72627544,20.04528
1570715388,18.357544,-19.612701,19.612701,0.22102356,9.779785,-4.892151,14.190115,-7.7238383,19.949532
1570715388,12.598282,-17.339401,15.313919,-0.13691711,0.75593567,1.828598,-13.4514475,-15.613609,-21.467213
1570715388,12.598282,-17.339401,15.313919,-0.13691711,0.75593567,1.828598,-13.4514475,-15.613609,-21.467213
1570715388,-9.681549,-8.20134,-19.612701,0.095321655,-1.2062836,-2.5325928,-3.7956073,-0.09797025,-22.534277
1570715388,-19.290085,-8.06308,15.346237,-1.1798096,1.6614075,-0.20924377,-22.531717,-6.204836,14.900824
1570715388,-12.767685,-6.54335,-3.4973297,-3.0812988,0.20413208,1.1926422,-16.799816,-3.306574,-10.286754
1570715388,-12.767685,-6.54335,-3.4973297,-3.0812988,0.20413208,1.1926422,-16.799816,-3.306574,-10.286754
1570715388,-4.9200897,-4.526245,-1.8076172,-4.679199,1.7828522,2.353775,-8.018557,-0.7217889,-3.7090406
1570715388,0.3070526,-8.701126,-1.1593933,-4.6717377,0.80174255,2.9045258,-1.7227689,-1.0383425,-1.5456817
1570715388,-2.7730865,-19.612701,-19.612701,-4.9060974,1.7530212,7.257187,-11.650496,-14.27719,-19.560587
1570715388,-2.7730865,-19.612701,-19.612701,-4.9060974,1.7530212,7.257187,-11.650496,-14.27719,-19.560587
1570715388,11.186905,-19.612701,14.022842,-3.5361633,-0.31892395,5.9916534,10.635873,-14.33811,13.809063
1570715388,-10.568008,-19.612701,19.612701,-3.4307098,3.6630402,4.244629,1.5830026,-14.483277,20.67767
1570715388,19.612701,14.217361,19.612701,0.59173584,7.339264,-0.7312317,20.764805,23.270323,22.126251
1570715388,19.612701,14.217361,19.612701,0.59173584,7.339264,-0.7312317,20.764805,23.270323,22.126251
1570715388,11.562195,11.312607,7.7889404,2.1033478,0.362854,-1.4140625,12.759406,14.237675,10.21261
1570715388,8.984848,0.74279785,-0.97802734,3.973938,-4.0686493,-0.5447998,9.164097,5.9051313,2.7806015
1570715388,8.984848,0.74279785,-0.97802734,3.973938,-4.0686493,-0.5447998,9.164097,5.9051313,2.7806015
1570715388,-2.8371277,-19.612701,19.470245,1.5440826,-6.250305,1.7071686,-4.785702,-14.730142,17.316086
1570715388,1.5287018,-19.612701,19.470245,1.5440826,-6.250305,1.7071686,-4.785702,-14.730142,17.316086
1570715388,9.816818,0.013168335,16.483475,0.15177917,-7.506256,-3.9206238,9.830939,5.052264,14.6754465
1570715388,9.816818,0.013168335,16.483475,0.15177917,-7.506256,-3.9206238,9.830939,5.052264,14.6754465
1570715388,-13.149551,-19.612701,19.612701,5.376892,4.02417,-6.722275,11.651504,-14.846085,19.016214
1570715388,-13.149551,-19.612701,19.612701,5.376892,4.02417,-6.722275,11.651504,-14.846085,19.016214
1570715388,8.486847,3.861847,6.910263,2.5646057,-0.22624207,-2.3163452,8.273983,4.262764,13.950615
1570715388,8.327637,6.573288,-1.0624237,2.4527435,0.618515,-2.5315247,8.273983,4.262764,13.950615
1570715388,-15.670044,-8.79689,-1.5197144,-1.3001862,1.9394379,0.009140015,-20.725933,-6.395341,-0.98362136
1570715388,-15.670044,-8.79689,-1.5197144,-1.3001862,1.9394379,0.009140015,-20.725933,-6.395341,-0.98362136
1570715388,-4.233551,-5.5533447,-2.5528107,-4.0325775,0.8368988,2.5231628,-7.1009703,-1.6448598,-5.245603
1570715388,-3.7732544,-5.5533447,-2.5528107,-4.0325775,0.8368988,2.5231628,-7.1009703,-1.6448598,-5.245603
1570715388,-2.2888641,-12.613251,2.6467896,-5.6251526,1.1426239,3.5852203,-2.8783693,-6.330425,1.5150725
1570715388,-3.1178436,-14.623184,2.557602,-5.52182,0.97857666,3.7514038,-2.8783693,-6.330425,1.5150725
1570715389,-13.1375885,-19.612701,-18.847153,-4.0506897,0.8965454,6.1141663,-17.92656,-14.542614,-18.309057
1570715389,7.1855927,-19.612701,5.1241913,-1.3502502,-3.2569122,4.5088043,7.5287256,-14.680201,5.3538356
1570715389,7.1855927,-19.612701,12.424713,-1.5824738,-2.8020477,4.3032074,7.5287256,-14.680201,5.3538356
1570715389,19.5708,10.102341,16.62474,-3.1430817,8.377899,1.8925171,21.50192,10.243568,19.470531
1570715389,19.612701,19.612701,19.612701,-0.8921814,7.4713593,0.45654297,21.23611,23.88454,21.783937
1570715389,16.318878,8.14328,6.9904633,3.0397034,2.9791412,-1.5983582,19.596893,13.8169155,13.539326
1570715389,11.998535,5.304352,7.31369,3.5467682,-3.9653168,-2.045761,13.544473,10.193721,6.709816
1570715389,12.86763,-3.2142181,-5.2672424,3.937729,-2.744522,-1.7304382,9.716205,1.6418862,1.0157951
1570715389,12.86763,-3.2142181,-5.2672424,3.937729,-2.744522,-1.7304382,9.716205,1.6418862,1.0157951
1570715389,3.9187164,-6.502655,-5.325302,2.074585,-5.9211426,-2.567749,2.7426264,-7.8013268,-13.305426
1570715389,10.552444,-17.63031,8.269577,-1.8615723,-12.119919,-3.0236816,10.31101,-14.816822,7.3995957
1570715389,10.552444,-17.63031,8.269577,-1.8615723,-12.119919,-3.0236816,10.31101,-14.816822,7.3995957
1570715389,-19.612701,-19.612701,19.612701,5.99794,16.140488,-6.8628845,-12.765255,-15.173279,19.41567
1570715389,-19.612701,-19.612701,19.612701,9.824371,15.919968,-6.189636,-12.765255,-15.173279,19.41567
1570715389,2.9544525,-18.85733,2.6713257,-0.5864563,2.881134,0.7196655,-15.950122,-15.874685,-20.640587
1570715389,-19.612701,-7.612961,-12.794617,-1.1766052,-2.6411896,-1.6612091,-17.625586,-3.7356198,-21.922083
1570715389,-19.612701,-7.612961,-12.794617,-1.1766052,-2.6411896,-1.6612091,-17.625586,-3.7356198,-21.922083
1570715389,-19.612701,-6.704361,9.222458,-1.8360138,0.7133179,0.07304382,-22.458876,-4.3032546,4.6850905
1570715389,-5.281006,-6.6600647,-0.59317017,-4.00914,2.1024323,2.5220947,-8.191037,-3.2801504,-2.6698446
1570715389,-5.281006,-6.6600647,-0.59317017,-4.00914,2.1024323,2.5220947,-8.191037,-3.2801504,-2.6698446
1570715389,2.3804321,-7.380127,0.2346344,-4.183853,0.8656616,3.0834808,0.93683386,-1.014071,-1.2086614
1570715389,-11.941086,-19.612701,-3.0466156,-4.5098267,6.386917,4.4491577,-10.317453,-14.774385,6.7084627
1570715389,-11.89859,-19.612701,-7.2987213,-4.5204773,6.5360565,4.6877747,-12.053982,-14.737814,-1.0175779
1570715389,-1.0941467,-19.612701,-9.966461,-4.9849243,2.0779266,5.954376,-1.0376816,-14.647831,-12.20055
1570715389,4.86203,-4.482544,10.779892,-2.3057861,4.088089,2.3942566,2.2127135,-4.3982034,9.460819
1570715389,7.1484833,-2.0889435,13.102264,-2.398468,3.8302917,2.431549,2.2127135,-4.3982034,9.460819
1570715389,19.612701,19.612701,17.553696,-0.34570312,5.222595,1.0488281,21.152283,23.614517,18.177156
1570715389,19.612701,14.485519,15.444397,1.7667236,4.2574615,-1.1562653,20.884167,20.581146,18.941496
1570715389,11.22821,0.94810486,2.1170654,2.954483,-5.9019623,-1.6643982,12.228423,7.1238813,1.7319442
1570715389,8.014587,-3.0777435,4.6543274,2.8543549,-5.17865,-1.6388245,9.651801,2.1271186,4.799795
1570715389,6.755234,-13.703217,-14.939224,1.948883,-1.039032,-3.1344604,9.961264,-9.750536,-19.556576
1570715389,6.755234,-13.703217,-14.939224,1.948883,-1.039032,-3.1344604,9.961264,-9.750536,-19.556576
1570715389,10.125671,-19.612701,19.612106,0.4862671,-4.0196533,-2.840454,2.9248,-14.949001,19.559757
1570715390,3.7337646,-3.8600464,4.2113953,2.3099976,-6.725418,-2.4846497,4.5596313,-3.9825044,1.9388906
1570715390,2.1326294,-19.585175,19.612701,1.2021332,2.1674042,-5.327835,8.781366,-14.685749,19.285763
1570715390,2.1326294,-19.585175,19.612701,1.2021332,2.1674042,-5.327835,8.781366,-14.685749,19.285763
1570715390,4.079117,1.5340881,-12.381607,2.907608,-0.5628662,-2.2875824,0.43840694,2.0677915,2.225026
1570715390,4.079117,1.5340881,-12.381607,2.907608,-0.5628662,-2.2875824,0.43840694,2.0677915,2.225026
1570715390,-19.181747,-14.620789,1.5861511,-0.70469666,2.6329346,-0.09207153,-21.876566,-11.576222,-0.9107816
1570715390,-19.181747,-14.620789,1.5861511,-0.70469666,2.6329346,-0.09207153,-21.876566,-11.576222,-0.9107816
1570715390,-8.43956,-5.6000366,-8.910019,-3.7183228,1.4547424,1.9180908,-11.924102,-1.8727379,-11.722399
1570715390,-7.3310394,-5.913681,-8.492828,-3.9228668,1.385498,1.9745483,-11.924102,-1.8727379,-11.722399
1570715390,-3.2758636,-19.148819,2.2086487,-5.983078,2.7778015,2.4720306,-2.2708645,-11.197915,1.1460426
1570715390,-5.73172,-19.612701,5.371994,-5.9703064,2.7948456,2.6659088,-2.2708645,-11.197915,1.1460426
1570715390,10.273514,-19.612701,3.1022797,-5.8808136,-2.009491,5.3407745,7.4124365,-14.775719,-6.3475704
1570715390,10.273514,-19.612701,3.1022797,-5.8808136,-2.009491,5.3407745,7.4124365,-14.775719,-6.3475704
1570715390,-4.7255554,-19.612701,19.595337,-3.736435,2.3005676,3.3007965,4.4262333,-14.989372,20.68925
1570715390,2.6868896,-2.2948456,15.324692,-3.2687836,5.6753235,2.0448456,-5.2017317,-8.44802,14.215317
1570715390,19.612701,19.612701,19.612701,0.055908203,7.0122375,0.3414917,20.679178,23.62209,22.060833
1570715390,17.278961,6.7492523,11.228806,3.111084,5.4068756,-1.3448181,18.323435,13.128469,18.870592
1570715390,7.826645,-0.8661041,8.106766,4.018692,-8.935837,-0.79408264,8.49956,3.5967617,8.058785
1570715390,6.38414,-1.2521667,11.185104,3.8844604,-7.9749756,-0.6470642,8.26377,3.5152578,9.247416
1570715390,7.5249786,-2.2122498,0.66319275,3.9355927,-3.2633057,-0.121902466,6.96082,2.8195415,2.4822028
1570715390,-1.0271149,-19.167984,-19.6109,1.0497894,-2.7072449,-0.29234314,-1.741085,-15.05781,-19.499126
1570715390,14.29039,-19.612106,19.611511,-0.003753662,-10.922562,-3.6308746,17.013933,-14.951744,19.521433
1570715390,5.949585,-3.9193115,14.473541,0.90704346,-6.468689,-2.6785278,5.302377,3.0493522,10.902852
1570715390,5.949585,-3.9193115,14.473541,0.90704346,-6.468689,-2.6785278,5.302377,3.0493522,10.902852
1570715390,-19.612701,-19.612701,-19.279907,19.42987,2.034256,-1.7911682,-21.486973,-15.792511,-19.766945
1570715390,-19.612701,-19.612701,-19.279907,19.42987,2.034256,-1.7911682,-21.486973,-15.792511,-19.766945
1570715390,8.425201,-8.616135,19.612701,3.841858,-2.183136,-0.7152405,9.328552,-10.586247,16.936995
1570715390,-17.62851,-10.373474,0.9391327,-1.9574432,-0.31785583,0.45014954,-20.051344,-6.912899,-1.8083351
1570715390,-15.975906,-9.876083,0.7805023,-1.9478607,0.2094574,0.78463745,-20.051344,-6.912899,-1.8083351
1570715390,-10.521317,-7.5273743,-7.1999664,-2.7233734,0.41078186,1.5303345,-12.667132,-3.3274946,-11.002299
1570715390,3.8672333,-1.6621704,1.0169373,-4.5716095,1.7125397,2.5966644,1.694373,2.6259613,0.20922065
1570715390,3.8672333,-1.6621704,1.0169373,-4.5716095,1.7125397,2.5966644,1.694373,2.6259613,0.20922065
1570715390,-10.47464,-19.612701,2.4301147,-4.181717,3.694992,3.9410248,-8.829988,-14.863139,6.9808617
1570715390,-16.191986,-19.612701,-18.727448,-4.7005005,0.27975464,4.9604797,-19.600077,-14.76811,-19.444633
1570715391,1.3970184,-19.612701,19.612701,-2.382492,-0.50320435,3.3391418,12.375998,-14.884134,14.72229
1570715391,1.3970184,-19.612701,19.612701,-2.382492,-0.50320435,3.3391418,12.375998,-14.884134,14.72229
1570715391,15.985489,17.858353,17.603363,-2.3537292,7.6322174,0.838974,12.592982,15.459872,19.594387
1570715391,18.42398,19.612701,18.316238,-2.065033,7.418091,0.69303894,16.055088,20.951607,19.763475
1570715391,19.01236,8.91301,7.802704,3.1622162,4.203125,-2.713684,19.991968,14.467098,13.327014
1570715391,6.487686,-1.6693573,3.8989563,4.3915253,-6.805313,-1.2830353,6.4213448,4.440061,5.866414
1570715391,6.487686,-1.6693573,3.8989563,4.3915253,-6.805313,-1.2830353,6.4213448,4.440061,5.866414
1570715391,1.2575531,-5.8286896,2.7437592,4.5832825,-4.6598663,-0.62683105,1.9815447,-0.8902564,4.5305095
1570715391,18.606537,-19.612701,14.794373,-3.0557404,-8.812271,-4.085739,19.44626,-14.923321,17.155203
1570715391,18.606537,-19.612701,14.794373,-3.0557404,-8.812271,-4.085739,19.44626,-14.923321,17.155203
1570715391,6.54335,-1.7609406,19.612701,-0.23918152,0.45339966,-2.2705383,4.2008886,2.222333,19.907969
1570715391,6.54335,-1.7609406,19.612701,-0.23918152,0.45339966,-2.2705383,4.2008886,2.222333,19.907969
1570715391,-11.8333435,-19.612701,19.612701,11.067535,14.02594,-8.119904,13.041334,-15.266003,19.043898
1570715391,9.885666,-6.7468567,19.612701,4.1827393,-0.8781738,-0.8910217,7.2044206,-10.44357,16.848703
1570715391,9.678558,-0.8230133,16.060303,4.1358643,1.1479492,-1.0848999,7.2044206,-10.44357,16.848703
1570715391,-18.743607,-10.3160095,-5.020035,-1.5569153,0.023025513,-0.18687439,-21.022013,-6.6050653,-11.750863
1570715391,-19.227234,-11.358093,-1.7507629,-1.6985931,0.9626007,0.40222168,-21.599077,-7.6357527,-5.652791
1570715391,-7.775772,-9.674973,-5.165497,-2.7627869,0.24993896,1.873352,-10.727491,-6.2093797,-10.942065
1570715391,1.3844452,-5.403122,-1.8465271,-4.026184,2.622284,2.3559113,-2.2842746,-2.8249278,-3.4726512
1570715391,-5.3432617,-19.612701,-1.7537537,-5.52182,7.007965,2.2632294,-7.485225,-14.94415,8.08047
1570715391,-5.3432617,-19.612701,-1.7537537,-5.52182,7.007965,2.2632294,-7.485225,-14.94415,8.08047
1570715391,-2.7461548,-19.612701,3.6828766,-6.0384827,0.39268494,4.8422394,-3.6369765,-14.706282,5.2905354
1570715391,-10.071808,-19.612701,19.597137,-2.5987396,-1.3447723,3.7279663,-1.6118602,-14.835848,20.838964
1570715391,-10.071808,-19.612701,19.597137,-2.5987396,-1.3447723,3.7279663,-1.6118602,-14.835848,20.838964
1570715391,19.612701,17.931381,19.612701,-0.2796631,4.7038116,0.2861023,20.744972,21.362251,19.011765
1570715391,19.612701,17.931381,19.612701,-0.2796631,4.7038116,0.2861023,20.744972,21.362251,19.011765
1570715391,19.612701,12.454636,12.045822,2.3366394,3.2710266,-1.5269775,20.438087,17.586176,18.713017
1570715391,4.515457,-2.9335022,1.9536743,3.3092194,-5.0412292,-2.28331,5.4394917,1.1557255,3.8311443
1570715391,4.515457,-2.9335022,1.9536743,3.3092194,-5.0412292,-2.28331,5.4394917,1.1557255,3.8311443
1570715391,5.922653,-13.951614,10.223846,2.190689,-8.793091,-1.5525513,4.0003133,-8.987835,-7.461055
1570715391,5.8885345,-19.612701,19.612701,-0.59284973,-9.451431,-3.9206238,6.4231668,-14.996532,19.718842
1570715391,2.9263153,-3.5978851,8.723877,0.8069153,-2.8286743,-2.6284637,2.37469,1.1698565,12.481666
1570715392,3.1675262,-19.612701,19.612701,0.4351349,4.0976715,-5.7337036,1.2276268,-10.967996,19.44989
1570715392,3.1675262,-19.612701,19.612701,0.4351349,4.0976715,-5.7337036,1.2276268,-10.967996,19.44989
1570715392,-19.612701,-19.612701,19.612701,20.92656,1.7434387,-4.34993,-22.033092,-15.667087,18.191322
1570715392,-15.097839,-9.003998,-19.612701,-0.48524475,-0.9942932,-1.9999542,-14.016325,-7.2335024,-22.045502
1570715392,-16.417633,-7.348404,-19.612701,-0.8453064,-1.5929718,-1.8465576,-14.016325,-7.2335024,-22.045502
1570715392,-12.974777,-6.0651093,-10.186737,-1.1936493,1.8510284,1.2554932,-16.253723,-2.8833427,-8.491124
1570715392,-12.869431,-6.153702,-12.0829315,-1.2341309,1.4962921,1.3002319,-16.253723,-2.8833427,-8.491124
1570715392,-9.1698,-7.803299,-2.1380157,-2.71698,1.2757874,2.237671,-13.127323,-5.289233,-5.909205
1570715392,-2.363083,-7.6033936,1.6136932,-3.929245,1.3130646,2.849121,-3.6984897,-1.2857299,-1.4826074
1570715392,-15.0433655,-19.612701,0.99539185,-3.9750519,5.6124725,4.008133,-14.850168,-15.046679,5.4089527
1570715392,-12.8454895,-19.612701,-10.05983,-4.213684,5.908615,4.991379,-15.905986,-14.997448,-1.6187158
1570715392,16.18779,-19.612701,6.9318085,-2.2578583,-4.584244,4.1263733,20.554152,-14.938177,6.229763
1570715392,16.18779,-19.612701,6.9318085,-2.2578583,-4.584244,4.1263733,20.554152,-14.938177,6.229763
1570715392,19.502563,12.523468,17.414825,-1.3885956,6.4092865,1.7838593,18.558878,13.574881,20.153637
1570715392,19.502563,12.523468,17.414825,-1.3885956,6.4092865,1.7838593,18.558878,13.574881,20.153637
1570715392,15.7981415,5.365402,-2.921524,2.6764526,-3.9962158,-3.619156,17.934906,10.953825,-2.3421583
1570715392,15.297745,4.712982,-1.4287415,2.5422363,-5.23938,-3.604248,17.934906,10.953825,-2.3421583
1570715392,10.814606,-3.8839874,12.782639,3.0407715,-6.216217,-1.7208557,11.314934,0.394691,12.994756
1570715392,11.805206,-4.7560883,1.8177948,4.511902,-1.1231995,-1.5344391,11.917929,0.42337132,3.7392426
1570715392,0.73083496,-12.398376,-14.719559,4.5555725,-4.508606,-1.4758453,1.931261,-8.813585,-17.51629
1570715392,3.1872864,-19.612701,19.52472,-2.793686,-10.080994,-2.5688019,2.5527568,-15.143269,19.112343
1570715392,2.4714203,-12.717407,7.652466,-0.10069275,-7.218628,-4.5842896,2.4670424,-11.089239,6.5330353
1570715392,0.44293213,-10.329788,19.612701,-1.5526428,-1.3373108,-1.3842316,-4.545201,-6.293021,19.21785
1570715392,10.481812,-19.612701,19.612701,3.015213,8.100937,-5.674057,16.505516,-15.250984,19.41812
1570715392,19.612701,-7.720108,19.612701,1.9350281,-0.9878998,-1.1775665,15.145983,-6.388543,12.275827
1570715392,6.6666565,-6.7157288,-1.6609802,2.7211914,1.6560822,-2.6923828,8.73977,-4.649296,8.476097
1570715392,-18.440735,-8.309677,-15.194199,-0.6418457,-1.2989655,-1.931778,-20.522331,-7.9409647,-18.083662
1570715392,-18.371307,-6.333267,3.1771088,-0.74731445,3.2507782,0.7132721,-22.114689,-3.863465,4.035355
1570715392,-12.559387,-7.3472137,-12.942459,-1.9776917,2.4944458,1.6325989,-15.038599,-3.8979967,-14.917009
1570715392,6.308716,-2.2200165,-3.0735626,-3.6927643,1.110672,2.4944,3.5781498,1.3840055,-3.8828654
1570715392,6.308716,-2.2200165,-3.0735626,-3.6927643,1.110672,2.4944,3.5781498,1.3840055,-3.8828654
1570715392,-16.397293,-19.612701,-15.473724,-4.5130157,5.5453644,4.4342346,-15.944336,-14.935282,-8.136451
1570715392,-16.397293,-19.612701,-15.473724,-4.5130157,5.5453644,4.4342346,-15.944336,-14.935282,-8.136451
1570715392,10.527298,-19.612701,12.346298,-2.0426636,0.44381714,6.8236237,4.635677,-14.903976,19.546047
1570715393,4.569931,-7.2879486,7.7033386,-3.176117,7.08786,2.337799,2.9992256,-7.4626546,7.958523
1570715393,4.569931,-7.2879486,7.7033386,-3.176117,7.08786,2.337799,2.9992256,-7.4626546,7.958523
1570715393,19.602524,12.801193,19.051254,-1.8860779,6.2494965,1.8211517,21.303999,15.90815,18.8721
1570715393,19.612701,15.146912,19.612106,1.1936035,6.478531,0.13270569,21.053795,19.822872,21.440666
1570715393,8.821442,2.0655975,5.5593414,2.9172058,-5.336319,-2.8340607,10.292092,9.220921,6.953333
1570715393,4.450821,-2.7132263,3.8564606,3.241043,-6.040451,-1.8934326,4.9556084,1.1283402,5.127269
1570715393,4.3574524,-2.518097,3.9474335,3.2655487,-5.989319,-1.9168701,4.6900496,1.4306087,4.370986
1570715393,6.0938416,-8.720886,10.254364,4.144394,-3.092865,-1.6516113,2.248101,0.012516499,6.974916
1570715393,14.039001,-19.612701,-2.6533813,-2.6690369,-4.3711853,-2.0723877,6.462247,-15.161126,-7.9898143
1570715393,3.49852,-13.436859,3.4745789,-0.8655548,-7.682022,-3.4561768,5.2501025,-10.866849,2.422042
1570715393,17.583618,-9.855133,19.612701,1.6687164,2.116272,-2.012741,7.430867,-4.1774917,19.615833
1570715393,17.583618,-9.855133,19.612701,1.8743134,4.031616,-2.3600159,13.609914,-5.3279285,19.529928
1570715393,-18.372513,-19.612701,19.612701,18.93985,9.873535,-4.2529907,-11.773755,-15.628019,17.989233
1570715393,12.047623,-2.3965912,3.2746735,2.4048157,-0.5575409,-1.9179382,9.146988,-6.8054104,16.758465
1570715393,11.858475,0.9133911,-5.73291,2.0692444,0.23928833,-2.1725311,9.581404,-0.88526225,5.695127
1570715393,-17.2574,-7.174225,10.072403,-2.0277557,1.3237152,-0.06437683,-21.6513,-4.2651005,8.466488
1570715393,-17.2574,-7.174225,10.072403,-2.0277557,1.3237152,-0.06437683,-21.6513,-4.2651005,8.466488
1570715393,-5.149933,-1.2060852,-2.2158356,-3.5990143,2.036377,1.6847992,-8.942541,2.3018873,-4.168027
1570715393,-5.149933,-1.2060852,-2.2158356,-3.5990143,2.036377,1.6847992,-8.942541,2.3018873,-4.168027
1570715393,-0.8343811,-11.1073,-0.509964,-5.440857,1.3119965,2.9599152,-2.0138564,-6.454987,-0.54085475
1570715393,-0.8343811,-11.1073,-0.509964,-5.440857,1.3119965,2.9599152,-2.0138564,-6.454987,-0.54085475
1570715393,-1.0414734,-19.612701,-4.7183685,-2.859726,-3.1269531,7.322174,-1.2200888,-14.855431,-9.57133
1570715393,1.0205231,-19.612701,-2.3187866,-2.5561218,-2.7977905,7.3306885,-1.2200888,-14.855431,-9.57133
1570715393,9.1931305,-6.637924,17.942154,-3.4605408,7.9517975,2.366562,12.660874,-3.569357,18.276274
1570715393,8.523361,-5.9352264,18.750183,-3.5095367,7.9805603,2.2216797,12.660874,-3.569357,18.276274
1570715393,19.599533,19.612701,19.612701,-1.7433319,8.710266,1.092514,21.045387,23.784515,21.295841
1570715393,12.624619,6.218338,4.8793793,2.6839142,-3.4071198,-1.8295135,14.019588,9.796673,5.4820304
1570715393,12.624619,6.218338,4.8793793,2.6839142,-3.4071198,-1.8295135,14.019588,9.796673,5.4820304
1570715393,9.472061,-2.1338348,1.5281067,3.241043,-6.6806793,-1.7187195,10.458768,2.5527496,1.5667337
1570715393,10.579971,-12.819748,-9.026733,3.4274597,-3.5615845,-1.8263245,11.110339,-6.362322,-5.9109063
1570715393,8.97168,-13.83429,-9.623489,3.4050903,-4.1496124,-1.7655945,11.110339,-6.362322,-5.9109063
1570715393,1.0684052,-8.0816345,7.9409637,-0.090042114,-6.580536,-3.9707031,-0.83509445,-10.625967,8.7497835
1570715393,1.0684052,-8.0816345,7.9409637,-0.090042114,-6.580536,-3.9707031,-0.83509445,-10.625967,8.7497835
1570715394,5.9831085,-10.611099,19.612701,-0.18591309,5.7530823,-2.0478973,-0.23658538,-5.2029877,19.398254
1570715394,-19.612701,-19.612701,19.612701,8.125275,0.95939636,-6.0650024,-10.641411,-15.706297,18.894192
1570715394,18.286316,-11.581345,16.375137,0.42341614,-1.8465118,-0.27529907,-12.0249195,-16.483938,-21.802814
1570715394,9.162613,-10.957062,-9.970657,2.12677,1.5218658,-3.141922,6.760109,-7.420927,-7.9594536
1570715394,-19.612701,-2.8772278,14.756058,-1.0136261,2.5402527,0.36279297,-22.570187,-0.38467288,13.685877
1570715394,-19.612701,-2.62883,12.091324,-0.8879242,3.153839,0.5939636,-22.570187,-0.38467288,13.685877
1570715394,-7.597397,-7.7272797,-1.5610199,-2.8874207,2.529602,2.8416748,-12.763811,-4.5419474,-7.9216223
1570715394,-1.5430603,-11.506531,6.3105164,-3.6427002,1.399353,3.2485962,-2.0688334,-4.1447535,1.6951132
1570715394,-1.5430603,-11.506531,6.3105164,-3.6427002,1.399353,3.2485962,-2.0688334,-4.1447535,1.6951132
1570715394,-5.1008453,-19.612701,2.0470428,-3.7129974,4.2414856,4.3852386,-6.1688757,-15.499687,8.274279
1570715394,-2.8730469,-19.612701,7.6698303,-2.973709,1.0563354,6.87796,-3.9839058,-15.028019,6.0747013
1570715394,-2.8730469,-19.612701,7.6698303,-2.973709,1.0563354,6.87796,-3.9839058,-15.028019,6.0747013
1570715394,17.659637,3.1447906,15.155899,-3.5510864,6.984543,2.4017181,14.290275,2.9966998,12.819274
1570715394,18.51616,4.4532166,18.305466,-3.5201874,6.9951935,2.2962494,19.132532,6.501892,14.93609
1570715394,19.612701,19.612701,19.397217,-2.1513214,7.9528656,1.3907776,21.750946,21.523468,20.233208
1570715394,18.832794,15.808914,14.594452,1.6719055,4.834839,-2.3195343,21.144423,22.563591,19.53416
1570715394,8.052902,-2.9502563,3.3794098,3.6351929,-4.8335114,-2.5411072,10.225004,2.4413776,2.234033
1570715394,8.052902,-2.9502563,3.3794098,3.6351929,-4.8335114,-2.5411072,10.225004,2.4413776,2.234033
1570715394,9.692932,-10.992386,-0.44532776,3.4721985,-8.535309,0.52685547,8.112382,-6.4076304,2.6033342
1570715394,4.4095154,-19.612701,17.278961,-0.82933044,-8.580048,-5.0807037,7.94791,-15.229287,17.941368
1570715394,4.4095154,-19.612701,17.278961,-0.82933044,-8.580048,-5.0807037,7.94791,-15.229287,17.941368
1570715394,10.787674,1.8896179,15.653885,1.964859,-7.9621887,-3.540329,6.733745,4.1627975,11.5862255
1570715394,19.612701,-19.60672,19.612701,-0.1443634,5.7349854,-6.330261,17.813175,-12.411512,18.680998
1570715394,19.421173,-19.582169,19.612701,-0.15501404,5.2396393,-7.042923,17.659695,-15.504063,18.609648
1570715394,-19.612701,-19.612701,19.612701,18.042892,9.14595,-5.05513,-21.986668,-16.015272,17.72798
1570715394,11.677124,-5.1002502,19.612701,0.39039612,-3.0694275,-0.3690338,-6.400259,-7.9518867,-10.161595
1570715394,-19.612701,-7.7260895,-3.3357239,-1.7103119,-2.7711487,-1.1083374,-22.381224,-6.678236,-13.042055
1570715394,-18.140274,-3.59729,5.3779755,-1.5675659,1.2033386,0.47251892,-22.2965,-0.6489122,6.1670427
1570715394,-13.833694,-6.968918,-9.6983185,-2.447464,0.01876831,1.5814667,-16.654644,-3.6315193,-13.729949
1570715394,-3.0256653,-5.4055023,-1.625061,-4.362808,2.1418457,2.719162,-5.6376,-1.8239663,-3.489142
1570715394,-4.344879,-8.515579,1.5939331,-5.0509796,2.227066,3.0003967,-4.6715946,-2.2945306,-2.4373927
1570715394,8.304886,-19.612701,-14.814117,-5.182007,0.4693756,7.9336395,6.9955945,-15.065401,-17.279211
1570715394,8.304886,-19.612701,-14.814117,-5.182007,0.4693756,7.9336395,6.9955945,-15.065401,-17.279211
1570715394,7.1047974,-19.612701,12.983154,-3.5084686,-0.43395996,6.573288,5.857777,-15.05072,7.5998263
1570715395,-11.573578,-19.612701,19.612701,-1.5430603,-2.0073547,5.5730133,-3.4584184,-15.149862,10.376144
1570715395,19.612701,19.582169,17.368134,-1.474884,7.6418,0.37345886,21.549368,22.86224,14.961799
1570715395,19.612701,19.612701,19.612701,-0.7164154,7.44899,-0.07821655,21.477802,23.568619,17.889967
1570715395,15.005066,9.394241,6.901886,2.4367676,3.3498535,-3.205841,17.325016,14.80117,10.552255
1570715395,9.580994,2.0464478,6.0106506,2.6732635,-5.1403046,-2.949112,10.513095,7.0428934,7.083613
1570715395,7.6033936,-5.205002,2.600708,4.116684,-2.3684845,-1.7251129,6.9771357,-0.96950626,4.382218
1570715395,11.76152,-15.156494,-9.11113,3.9941864,1.0776367,-1.6750488,12.434227,-7.253319,-4.7753444
1570715395,9.239822,-19.612701,-12.586914,0.09211731,-7.8269043,-0.9176483,5.417782,-7.4585443,-8.966868
1570715395,19.612701,-19.612701,19.612701,-3.512741,-8.588562,-4.6972046,19.152449,-15.289969,17.89311
1570715395,10.941498,-9.095566,8.349777,0.6417999,-10.188599,-2.699829,8.551933,-10.6160145,7.8743005
1570715395,4.902725,-19.612106,19.612701,2.0490112,8.023163,-8.445877,17.607697,-15.446698,19.098028
1570715395,4.902725,-19.612106,19.612701,2.0490112,8.023163,-8.445877,17.607697,-15.446698,19.098028
1570715395,-19.6109,-19.612701,-19.612701,21.750015,2.9152222,-2.969345,-21.848885,-16.22489,-11.361956
1570715395,5.1140137,-11.100723,14.064133,2.8511505,-0.3902893,-2.5475006,1.6991048,-15.832003,17.114058
1570715395,-19.598938,-7.9403687,-12.84729,-1.5537109,-2.252365,-1.547226,-22.249718,-4.066959,-21.663485
1570715395,-19.612701,-9.7821045,8.038528,-1.9904633,-0.5660553,0.36813354,-22.495476,-6.9081783,0.80455744
1570715395,-10.551254,-4.4807434,-3.648758,-2.205658,2.3964386,0.80381775,-13.111549,-1.1336584,-2.44311
1570715395,-11.330566,-8.114548,-5.644928,-4.140167,1.6635437,1.9170227,-16.517477,-4.8301463,-9.3759165
1570715395,0.509964,-13.6792755,9.544479,-4.866684,0.20625305,3.2198334,-0.9071739,-7.321805,6.394506
1570715395,-6.0100403,-19.60791,17.665024,-3.9356384,3.47023,4.3213196,-4.6565747,-15.488079,14.4086
1570715395,-0.69132996,-19.612701,-13.001709,-6.9269104,2.4774017,6.5189667,-2.7236807,-15.053713,-13.835275
1570715395,1.95607,-19.612701,8.24025,-1.0849915,-5.2649384,5.6614227,4.570484,-15.040584,20.352211
1570715395,4.9542084,-8.344391,16.579254,-4.0805206,10.222946,2.9652405,-0.6427021,-10.403818,20.754818
1570715395,19.612701,13.630188,19.604324,-3.547882,8.323578,1.7082367,19.77409,13.423031,21.32888
1570715395,17.915207,14.499878,19.612701,1.0668335,8.191483,0.09329224,17.39096,21.651093,21.704485
1570715395,11.917145,3.1459808,5.6640778,3.9824677,-5.6985016,-0.59487915,11.979328,8.326139,7.663792
1570715395,11.917145,3.1459808,5.6640778,3.9824677,-5.6985016,-0.59487915,11.979328,8.326139,7.663792
1570715395,14.295181,-12.619232,-10.390244,2.204544,-0.37217712,-1.9168701,15.36684,-5.918176,-11.124712
1570715395,13.293808,-14.214981,-10.573395,2.2471466,-0.50320435,-1.9168701,15.36684,-5.918176,-11.124712
1570715395,19.612701,-19.612701,12.397781,-1.1041718,-10.152374,-0.37756348,17.132666,-15.280155,14.4179325
1570715395,19.612701,-19.612701,18.567627,-1.1808624,-12.474655,-2.6231384,19.40914,-15.265091,14.388431
1570715395,13.990524,-4.052185,19.612106,0.13153076,-9.873276,-3.078003,13.738531,-5.0890555,20.165926
1570715395,6.969528,-16.342224,19.612701,-1.2202911,7.3009186,-4.438339,4.0937743,-9.211233,19.949951
1570715396,-18.009186,-19.612701,-19.612701,3.1483612,-1.9264069,-0.7631836,-22.005775,-16.216904,-21.411283
1570715396,-18.009186,-19.612701,-19.612701,3.1483612,-1.9264069,-0.7631836,-22.005775,-16.216904,-21.411283
1570715396,-3.5045166,-4.2951965,-4.8117523,2.9598083,0.088012695,-1.37677,-6.3100686,-8.131355,7.471716
1570715396,-15.2803955,-4.399948,4.2126007,-0.63438416,0.934906,0.21260071,-18.738424,-1.3114669,1.4252313
1570715396,-10.29686,-4.139572,1.2695312,-0.83891296,2.2994995,0.9870453,-13.959019,-1.3688579,1.1692655
1570715396,-11.059418,-6.296158,-3.1483765,-0.80270386,1.9426422,1.3087616,-12.912759,-2.3860822,-4.0005684
1570715396,-4.5448,-8.10437,-3.0101166,-1.7198944,1.1277161,2.4730835,-7.9178925,-4.7786074,-5.4439774
1570715396,2.2667084,-4.878784,-0.30465698,-2.78302,0.6781769,2.9268951,0.17494512,-1.5901189,-1.965559
1570715396,-6.807312,-14.352646,-12.2960205,-4.6174164,-1.3287811,3.926117,-5.8136444,-8.182644,-18.172562
1570715396,-7.0694733,-14.866196,-10.015549,-4.7761383,-1.5226593,4.1253204,-7.075161,-9.760034,-14.258981
1570715396,-9.214691,-19.612701,3.909134,-4.1849213,-3.4305573,5.95224,-9.486505,-15.195185,-10.078227
1570715396,2.6414032,-19.612701,18.534119,-1.4961853,0.45126343,6.783142,1.4948454,-15.288374,15.3189745
1570715396,4.641159,-19.612701,16.948547,-1.9403992,5.4335175,5.2299957,8.049561,-15.406668,17.996347
1570715396,19.612701,18.241425,14.76265,-1.9329529,7.6045227,1.0882416,21.473192,11.8985615,17.597363
1570715396,19.612701,18.241425,14.76265,-1.9329529,7.6045227,1.0882416,21.473192,11.8985615,17.597363
1570715396,19.612701,11.596313,4.130005,3.317749,3.8942108,-2.507019,20.776995,18.825619,7.3801236
1570715396,13.144165,4.274246,4.8015747,2.9662018,-0.638504,-3.8204956,15.44482,8.727538,6.1496296
1570715396,-0.40760803,-9.05307,13.736725,3.638382,-5.7730713,-2.5688019,2.8760898,-1.42768,8.941564
1570715396,1.5711975,-12.603073,4.727356,4.3329315,-4.876114,-1.6803741,0.75529057,-6.1554303,10.538254
1570715396,3.7241821,-13.18248,-4.3825836,4.3755493,-7.4945374,0.70687866,4.216503,-8.543982,-5.110313
1570715396,17.833206,-15.941788,5.2720337,-1.7518463,-8.836777,-2.0510864,17.148567,-13.018305,5.517558
1570715396,5.2822113,-3.7457275,10.846329,-2.0107117,-6.7318115,-4.2135773,5.2818584,-0.3947196,8.55716
1570715396,3.1124573,-6.7618256,19.60672,-1.922287,-2.1096344,-3.7949219,3.5062094,0.0676465,19.92404
1570715396,-19.612701,-19.612701,1.2180481,19.734528,-1.0976257,-3.9078522,-21.74753,-15.738934,18.35351
1570715396,-19.612701,-19.612701,1.2180481,19.734528,-1.0976257,-3.9078522,-21.74753,-15.738934,18.35351
1570715396,-19.141037,-0.7559662,-17.747025,-0.20295715,-0.36898804,-1.8976898,-19.521551,4.2211437,-21.701384
1570715396,-19.141037,-0.7559662,-17.747025,-0.20295715,-0.36898804,-1.8976898,-19.521551,4.2211437,-21.701384
1570715396,-11.342529,-8.051697,-13.290207,-2.1332092,0.14553833,1.2001038,-17.47604,-5.4621515,-14.920961
1570715396,-11.342529,-8.051697,-13.290207,-2.1332092,0.14553833,1.2001038,-17.47604,-5.4621515,-14.920961
1570715396,3.1675262,-4.7339325,-1.1085205,-3.960144,0.5801697,2.6019897,0.32625723,-2.043927,-2.2245698
1570715396,3.1675262,-4.7339325,-1.1085205,-3.960144,0.5801697,2.6019897,0.32625723,-2.043927,-2.2245698
1570715396,-1.4784241,-11.215042,6.703766,-5.056305,0.17536926,2.0736084,-0.6433592,-5.0375338,4.74068
1570715396,-19.612701,-19.612701,-0.25378418,-4.3351135,4.1488037,3.816391,-17.319632,-15.23908,7.3678374
1570715397,-0.97624207,-19.612701,4.4370575,-3.6618652,-2.8169556,6.6116486,-2.10147,-15.091704,-8.076537
1570715397,-1.1396332,-19.612701,15.480911,-3.2485504,-2.727478,6.615906,-0.16239908,-15.099367,0.88072556
1570715397,-5.136154,-14.733917,18.505981,-1.3129578,7.00264,3.530899,-3.5440898,-14.840118,20.372997
1570715397,11.052826,-1.5029602,15.771805,-2.0277557,9.35582,2.2525787,10.990072,-0.26586008,16.20231
1570715397,19.612701,10.767929,7.815872,3.0375824,5.617798,-1.0635834,20.575838,15.141262,12.670589
1570715397,15.786774,7.7667847,-1.3341675,3.2687378,1.5271912,-2.185318,18.377283,13.21374,1.8694073
1570715397,9.076416,6.628952,3.312378,2.8671417,-4.240158,-2.1277924,10.801451,11.478106,1.8172704
1570715397,8.136093,-1.5083466,4.624405,2.714798,-4.9165955,-1.7634735,9.385853,4.2129574,4.726457
1570715397,3.0089111,-6.846817,-6.127365,1.549408,-6.880951,0.124176025,1.1635762,-6.0872836,-11.195285
1570715397,4.4298706,-4.977539,-4.195236,1.5643158,-7.7810974,0.12524414,1.1635762,-6.0872836,-11.195285
1570715397,9.061462,-19.030914,19.612701,-1.6218872,-8.274307,-3.9749603,7.512711,-15.270212,12.611829
1570715397,8.838791,-14.581879,19.612701,-1.1627655,-7.489212,-3.7075806,7.512711,-15.270212,12.611829
1570715397,19.58397,-19.612701,19.612701,2.5539398,9.053284,-4.492676,17.988825,-12.816702,19.510475
1570715397,19.58397,-19.612701,19.612701,2.5539398,9.053284,-4.492676,17.988825,-12.816702,19.510475
1570715397,4.8296967,-17.836807,-12.143387,-0.80696106,1.112793,1.1990356,-6.7703476,-16.358818,-22.047726
1570715397,4.8296967,-17.836807,-12.143387,-0.80696106,1.112793,1.1990356,-6.7703476,-16.358818,-22.047726
1570715397,-14.401123,-13.773239,-18.33899,-1.2181549,-3.7330933,-2.1277924,-13.869695,-10.668409,-22.044188
1570715397,-16.451752,-4.037216,3.1286163,-1.5025787,1.9490356,-0.15385437,-20.006517,-0.63031125,4.8106656
1570715397,-16.451752,-4.037216,3.1286163,-1.5025787,1.9490356,-0.15385437,-20.006517,-0.63031125,4.8106656
1570715397,-6.5810547,-2.0344696,-1.6418304,-3.3241882,1.8510284,2.7596436,-9.235193,1.9633398,-3.2301621
1570715397,-6.5810547,-2.0344696,-1.6418304,-3.3241882,1.8510284,2.7596436,-9.235193,1.9633398,-3.2301621
1570715397,-9.98262,-19.612701,1.4873962,-3.7939606,3.4276123,6.4710236,-12.949986,-15.256805,5.107543
1570715397,-9.98262,-19.612701,1.4873962,-3.7939606,3.4276123,6.4710236,-12.949986,-15.256805,5.107543
1570715397,19.468445,-19.612701,4.42688,-3.1345673,-3.7959442,2.1694946,20.571774,-15.031803,-2.431281
1570715397,19.468445,-19.612701,4.42688,-3.1345673,-3.7959442,2.1694946,20.571774,-15.031803,-2.431281
1570715397,5.901703,-4.308365,11.944672,-2.620041,4.947754,3.4083862,2.5075927,-2.595388,9.105388
1570715397,16.652863,3.9618073,18.927368,-2.0181732,6.016205,2.68721,16.09807,5.558696,20.528507
1570715397,19.612701,18.672974,19.612701,1.3118439,6.573349,-0.3679657,21.182278,23.195248,20.964712
1570715397,17.654251,16.490662,3.9073334,2.8437042,2.5604858,-1.7112732,19.561447,20.92097,9.013884
1570715397,7.316086,-3.9210968,2.1936798,3.176056,-2.9991302,-1.676117,8.561851,0.177248,3.177649
1570715397,7.316086,-3.9210968,2.1936798,3.176056,-2.9991302,-1.676117,8.561851,0.177248,3.177649
1570715397,-0.051467896,-19.563019,-16.62294,1.408783,-3.6574554,-0.54693604,2.749858,-15.376827,-19.410343
1570715397,18.727448,-19.612701,9.561249,-0.068740845,-11.848282,-1.6686554,14.095609,-15.285309,-6.0713654
1570715397,19.612701,-19.612701,4.8201294,-0.8751373,-12.299942,-2.809555,19.669014,-15.24332,10.224431
1570715398,11.686096,-6.5672913,19.611511,-1.4450531,-8.486298,-2.234314,10.983045,-7.752039,19.57386
1570715398,15.597626,-19.612701,19.612701,4.0133667,10.209091,-5.0412903,17.099442,-15.330767,18.96386
1570715398,13.789398,-19.612701,18.120514,3.3571625,8.272446,-5.9190674,13.397849,-15.395117,18.494806
1570715398,-19.610306,-19.612701,-19.612701,21.120438,-3.2633057,-3.3230133,-21.9394,-16.398127,-14.488015
1570715398,7.6937714,-6.249466,-14.463379,2.1171875,0.6643219,-3.270813,5.962567,-2.8848631,-10.600348
1570715398,-19.023132,-12.554001,-0.7475891,-1.8796844,-3.8481445,-1.1956787,-20.368559,-10.849926,-11.0577545
1570715398,-18.977646,-11.448471,1.7980499,-1.9563751,-3.8151093,-1.0103302,-21.746788,-10.164508,-4.4382772
1570715398,-9.091385,-1.7507629,0.17837524,-1.570755,2.9311981,0.16358948,-12.806055,2.3494751,0.9237422
1570715398,-12.0984955,-2.0266876,-9.832382,-1.7816772,2.3655548,0.36706543,-13.737071,1.2032096,-8.948827
1570715398,-5.032608,-12.604279,3.9312744,-4.914627,0.4171753,3.3444824,-7.011136,-6.428494,1.5557668
1570715398,-5.032608,-12.604279,3.9312744,-4.914627,0.4171753,3.3444824,-7.011136,-6.428494,1.5557668
1570715398,3.684082,-19.612701,-17.900848,-5.9266205,2.2845917,6.3229523,3.556245,-15.157749,-19.29762
1570715398,3.2986145,-19.612701,-16.181808,-6.031021,1.6869812,6.2643585,3.556245,-15.157749,-19.29762
1570715398,15.604813,-19.612701,4.074936,-4.4139404,-1.3000336,4.869934,6.334281,-15.030638,-0.41112608
1570715398,-11.444885,-19.612701,19.612701,-2.5689087,1.1511536,6.3410645,-10.428489,-15.033604,19.186678
1570715398,19.612701,10.630859,19.612701,-3.4541473,8.8349,2.4219513,20.997194,6.2240715,21.122393
1570715398,19.612701,19.612701,19.612701,-1.779541,8.915863,1.6741333,20.894806,19.661314,21.310768
1570715398,13.535019,7.2400665,5.412094,2.952362,-3.9301605,-2.0095367,14.061529,12.740742,7.452265
1570715398,13.3871765,6.285385,5.273224,2.9992218,-4.17305,-2.0148773,14.061529,12.740742,7.452265
1570715398,6.3194885,-10.015549,-10.708664,3.923874,-4.65242,-1.8976898,5.4410396,-2.260962,-3.3570423
1570715398,6.3194885,-10.015549,-10.708664,3.923874,-4.65242,-1.8976898,5.4410396,-2.260962,-3.3570423
1570715398,8.113358,-19.612701,19.612701,0.3658905,-7.5786896,1.3162079,2.3046086,-15.370459,6.9733095
1570715398,16.703156,-19.561234,3.6254272,-1.9233551,-11.610718,-1.9339142,13.605683,-15.297953,5.5205
1570715398,7.700348,-0.41059875,19.612701,-1.6325378,-6.982147,-3.1323395,6.5597405,-0.62724495,19.97974
1570715398,8.767563,-19.612701,19.612701,1.8189087,11.0858,-3.9035797,4.8934135,-13.183775,19.410055
1570715398,-19.612701,-19.612701,-19.41278,18.796036,-2.3365326,-2.380249,-21.7796,-16.25158,1.278441
1570715398,-19.612701,-19.612701,-19.41278,18.796036,-2.3365326,-2.380249,-21.7796,-16.25158,1.278441
1570715398,-14.796173,-9.356537,-19.612701,0.78240967,0.7708435,-2.8020935,-14.44096,-3.7947443,-22.092854
1570715398,-14.796173,-9.356537,-19.612701,0.78240967,0.7708435,-2.8020935,-14.44096,-3.7947443,-22.092854
1570715398,-14.134171,-7.2197113,0.9714508,-1.2586365,2.9684906,0.602478,-20.765041,-6.4805346,1.4393971
1570715398,-9.265564,-2.2475586,-18.012772,-2.0266876,1.0158539,1.427002,-11.004675,-0.06299567,-14.032852
1570715398,-5.937027,-4.3305054,-6.056732,-3.8749237,-0.23902893,2.0405884,-9.812731,0.123049974,-15.797202
1570715399,0.25857544,-19.612701,2.952652,-5.392929,1.0126648,2.2802734,3.4990902,-10.838704,0.30072463
1570715399,0.25857544,-19.612701,2.952652,-5.392929,1.0126648,2.2802734,3.4990902,-10.838704,0.30072463
1570715399,-17.696747,-19.612701,-1.9422913,-5.471756,5.240692,2.8736267,-15.568797,-15.3129425,2.0137382
1570715399,7.515396,-19.612701,19.575592,-3.5031433,-1.3500977,5.3461,8.164523,-15.153151,19.524977
1570715399,9.770142,-19.612701,19.612701,-2.1342773,-1.9594269,5.0062866,8.699087,-15.168784,20.498583
1570715399,-8.707108,-19.28888,8.02536,-2.1875458,6.288925,3.7130585,-15.593407,-15.260845,13.515682
1570715399,15.480911,0.39804077,17.623123,-2.6456146,6.962158,2.0171509,14.579072,2.3655791,19.120121
1570715399,17.179596,15.256454,19.612701,-1.1467743,9.041565,0.838974,20.651964,18.488655,21.481876
1570715399,13.560165,6.692993,3.1292267,3.5371857,2.4880524,-1.4428253,15.732121,13.394443,9.020312
1570715399,9.995789,3.6415863,-1.0229187,3.8535767,-6.660431,-1.0998077,10.073022,8.376699,0.5082184
1570715399,9.615112,-3.5033112,7.3466034,3.5680847,-5.623932,-0.17408752,10.151664,1.0240445,7.397704
1570715399,17.86554,-5.9795227,-2.6150665,2.572052,2.0640717,-1.2510681,15.798346,-0.03005743,0.25302055
1570715399,-1.0827789,-10.3190155,-16.2303,0.02394104,-1.4619446,-1.3213806,-2.2960413,-10.650421,-19.265484
1570715399,19.612701,-19.611511,19.612701,-0.8740692,-11.173965,-8.053848,19.135681,-15.315674,15.641676
1570715399,4.6615143,-19.412186,18.487427,-0.36061096,-2.7658234,-2.7946472,-0.6704885,-15.367243,19.899763
1570715399,-1.9704285,-19.612701,19.612701,1.0039825,4.5610657,-2.4463043,-5.098665,-15.365139,16.914198
1570715399,-1.9704285,-19.612701,19.612701,1.0039825,4.5610657,-2.4463043,-3.5737596,-15.363573,18.059803
1570715399,-19.612701,-19.612701,19.612701,11.012146,0.6163788,-4.1187744,-21.353016,-15.482714,18.733065
1570715399,-3.9288788,-19.582779,-17.252625,-0.47673035,2.1780548,1.2554932,-14.295759,-16.26296,-21.979946
1570715399,14.870392,3.81456,-8.0546875,2.0830994,-1.0113373,-0.35838318,10.916477,-0.006482601,-0.20552659
1570715399,-12.950836,-7.091629,4.6543274,-1.7337494,2.4731445,-1.0689087,-14.918218,-3.680907,5.7312555
1570715399,-12.950836,-7.091629,4.6543274,-1.7337494,2.4731445,-1.0689087,-14.918218,-3.680907,5.7312555
1570715399,-13.946823,-4.067154,-7.0467377,-1.8796844,-0.06112671,1.0424347,-16.413223,-0.672858,-8.54033
1570715399,-11.295837,-1.5394745,-7.636307,-3.3465576,-0.7993469,2.2333984,-14.137485,1.3294718,-9.336315
1570715399,-1.8471222,-10.171768,-4.021057,-5.4824066,0.12849426,4.197754,-4.891692,-4.999379,-5.618548
1570715399,-10.557236,-19.612701,6.4607544,-5.363098,-0.39135742,6.729889,-11.267414,-15.2210455,2.3682048
1570715399,-0.22625732,-19.612701,-12.4618225,-2.2578583,1.8190613,6.926956,-5.5550985,-15.115361,-3.3217936
1570715399,-5.604828,-19.612701,14.208389,-0.8399811,1.4313049,5.8936462,0.5938026,-15.229143,18.414286
1570715399,17.354965,8.221085,19.574997,-2.3633118,7.163498,2.0107574,19.139877,6.313184,17.835463
1570715399,17.354965,8.221085,19.574997,-2.3633118,7.163498,2.0107574,19.139877,6.313184,17.835463
1570715399,17.820038,8.08342,3.779251,2.6807098,0.020904541,-2.028717,19.453506,12.762808,6.989587
1570715399,17.820038,8.08342,3.779251,2.6807098,0.020904541,-2.028717,19.453506,12.762808,6.989587
1570715399,9.965271,-3.059784,1.3904266,2.8266602,-4.361603,-1.4630585,10.767048,1.6110039,1.9760545
1570715399,9.965271,-3.059784,1.3904266,2.8266602,-4.361603,-1.4630585,10.767048,1.6110039,1.9760545
1570715399,7.831436,-7.2484436,-7.4962463,2.4335785,-2.9948578,-1.6952972,9.011386,-1.1199002,-5.832851
1570715400,15.526993,-19.612701,15.699982,-2.3633118,-8.576843,-6.866089,15.206603,-15.424152,11.469736
1570715400,-4.2778473,-9.840775,5.5868683,-0.75050354,-2.4494476,-2.9597626,-4.6665525,-4.8726554,4.3906336
1570715400,-4.2778473,-9.840775,5.5868683,-0.75050354,-2.4494476,-2.9597626,-4.6665525,-4.8726554,4.3906336
1570715400,-6.6977844,-15.309128,19.612701,-2.0565186,9.310013,-1.0401459,-6.872213,-7.9709816,19.748201
1570715400,19.612701,-19.56601,-19.609116,-0.03465271,0.8155823,0.09436035,6.7972536,-16.114145,-21.63012
1570715400,19.612701,-19.56601,-19.609116,-0.03465271,0.8155823,0.09436035,6.7972536,-16.114145,-21.63012
1570715400,-16.008224,-12.216415,-17.341202,-0.8282623,-4.30513,-2.2918396,-15.414261,-5.803188,-21.357721
1570715400,-16.008224,-12.216415,-17.341202,-0.8282623,-4.30513,-2.2918396,-15.414261,-5.803188,-21.357721
1570715400,-19.612701,-7.219116,12.287643,-2.0565186,-2.361023,-1.0188446,-22.35183,-8.328801,4.8478603
1570715400,-9.239227,-1.6184845,-7.048523,-1.8775482,2.4592896,1.7497711,-13.449825,1.6747148,-9.236985
1570715400,-4.645355,-2.6743164,-0.59495544,-2.654129,1.5612793,2.5061188,-8.206808,0.8859415,-3.8070648
1570715400,-2.8000183,-19.549255,19.555237,-2.845871,2.194046,3.1463318,0.15218961,-14.136478,17.295147
1570715400,-2.8000183,-19.549255,19.555237,-2.845871,2.194046,3.1463318,0.15218961,-14.136478,17.295147
1570715400,5.471344,-19.612701,-18.081009,-3.3305664,1.0691223,5.649704,1.6750073,-15.317703,-20.193575
1570715400,2.8484955,-19.612701,7.8404083,-3.3976898,-1.6291962,5.647583,3.3334935,-15.016595,3.8854904
1570715400,-14.022842,-19.612701,-19.465454,3.1590118,-3.8002014,3.0099792,-7.6011376,-14.961172,-19.507523
1570715400,-14.022842,-19.612701,-19.465454,3.1590118,-3.8002014,3.0099792,-7.6011376,-14.961172,-19.507523
1570715400,11.26532,-6.1967926,9.541489,0.025009155,5.20874,2.01503,13.42333,-2.586534,6.495049
1570715400,19.612701,3.541031,11.873444,-0.5864563,7.9858856,0.92526245,21.43576,6.5586405,11.642007
1570715400,16.193176,8.3797,6.9126587,0.3105011,5.76268,-0.70033264,19.267448,12.959993,9.1710615
1570715400,10.11969,3.5134888,0.8056488,1.7507324,0.87098694,-0.4617157,12.724221,10.035456,2.0297127
1570715400,10.11969,3.5134888,0.8056488,1.7507324,0.87098694,-0.4617157,12.724221,10.035456,2.0297127
1570715400,-0.09158325,-19.612701,-19.612701,-0.43199158,4.1935425,0.14761353,2.0912132,-13.958618,-19.295238
1570715400,5.5611267,2.9664154,10.285492,-0.17951965,-8.696152,-0.27529907,5.976517,5.9790826,1.1971922
1570715400,4.323929,-19.612701,11.789642,-1.4866028,-8.04422,-8.485291,5.409321,-15.102404,11.794307
1570715400,0.2454071,-1.2617493,10.109512,-0.31375122,0.06990051,-1.8337708,-1.1760108,2.653545,11.256051
1570715400,0.50457764,-1.695694,10.207672,-0.26367188,0.6611328,-1.7677307,-1.1760108,2.653545,11.256051
1570715400,6.30632,-19.612701,16.949158,-0.3201294,10.642654,-0.5075226,3.1807163,-14.8763275,16.744541
1570715400,-11.615463,-19.612701,0.83677673,11.6406555,-0.42118835,0.80062866,-11.62617,-15.228813,-2.3796287
1570715400,-11.547241,-19.612701,0.37528992,11.877136,-0.6033478,1.1649475,-11.62617,-15.228813,-2.3796287
1570715400,4.570526,-11.85968,-19.612701,1.4641876,-9.30336,0.72499084,13.489172,-6.772794,-22.454601
1570715400,1.2180481,-2.8766327,-9.360138,0.41809082,-1.2499542,-1.390625,1.2271326,3.5368035,-13.1850195
1570715401,-15.472534,-8.825027,-10.445908,-1.633606,-0.35620117,-1.2276459,-15.463827,-4.5020485,-11.320768
1570715401,-15.472534,-8.825027,-10.445908,-1.633606,-0.35620117,-1.2276459,-15.463827,-4.5020485,-11.320768
1570715401,-0.52433777,-6.665451,-2.6497803,-3.8589478,1.5644684,2.7543182,-3.430327,-3.142117,-4.7637734
1570715401,1.7328033,-6.7654114,1.2162476,-4.5045013,2.0395813,2.6882782,0.13332939,-2.452261,-2.108424
1570715401,3.4907532,-19.612701,-0.76434326,-2.6349487,0.2840271,4.9679413,1.0594532,-14.718502,-1.0476402
1570715401,3.4907532,-19.612701,-0.76434326,-2.6349487,0.2840271,4.9679413,1.0594532,-14.718502,-1.0476402
1570715401,18.330002,-19.612701,-9.633072,-2.6338959,0.90400696,1.9777374,14.937946,-14.655272,-5.146947
1570715401,-4.656128,-19.612701,0.13586426,-1.9446716,-0.9559479,1.5590973,-1.9646276,-14.503609,2.3209894
1570715401,6.041168,-2.3331451,5.19841,-2.1470642,3.5895386,0.4394989,5.8395195,3.5140972,6.250332
1570715401,6.0501404,-3.0891113,4.8913574,-2.2035217,3.6246948,0.21685791,6.919447,2.99431,6.0033584
1570715401,4.671692,4.9320526,6.1644745,0.04737854,1.0510101,-0.10379028,5.8438354,9.883647,7.3683596
1570715401,4.671692,4.9320526,6.1644745,0.04737854,1.0510101,-0.10379028,5.8438354,9.883647,7.3683596
1570715401,3.4446564,5.9519806,3.3225555,0.08999634,1.8084106,-0.3679657,4.118033,10.849868,5.6420217
1570715401,3.423111,-3.8792114,3.5518036,0.84846497,3.8888702,-0.87716675,1.6423917,3.325573,6.126833
1570715401,3.6266174,-4.165909,3.2160187,1.0998688,4.3703766,-0.8707733,3.3871305,1.2471805,4.7536736
1570715401,1.538269,-19.404404,-19.143433,-2.2780914,-8.277512,0.8634796,-12.319605,-14.755413,-18.922514
1570715401,8.185181,-17.049103,-8.061874,-2.1971283,-8.728119,0.80062866,-12.319605,-14.755413,-18.922514
1570715401,4.399353,-2.3690643,1.8309631,0.060165405,-4.127243,-0.40419006,5.3916707,2.185378,3.965722
1570715401,3.9534302,-2.4097595,1.8261719,0.0068969727,-4.051605,-0.47875977,4.6392612,2.593554,2.6814513
1570715401,-1.177948,-8.8884735,4.3622284,-0.963562,-1.4129486,-0.99861145,0.5890716,-0.636601,4.6835833
1570715401,-0.83917236,-19.591751,9.562439,-0.22425842,6.623413,-1.7538757,-1.6390216,-12.704622,11.936876
1570715401,-7.001251,-19.460068,4.8015747,4.416031,4.873184,-1.3363037,-8.38028,-14.566966,7.0393605
1570715401,-4.94104,-19.612701,-11.550232,8.111435,2.4752655,0.34895325,-5.834255,-14.4486,-9.412465
1570715401,-4.554367,-10.624268,-6.621765,3.5520935,3.1293488,-1.0955505,-3.3500147,3.0675545,3.7454824
1570715401,-4.554367,-10.624268,-6.621765,3.5520935,3.1293488,-1.0955505,-3.3500147,3.0675545,3.7454824
1570715401,-0.1993103,-2.7521362,4.628586,-0.17526245,0.20199585,-0.22949219,-0.73181033,0.62248087,-3.8592775
1570715401,-1.6418304,-13.370422,-1.1312561,0.30943298,1.7753906,0.25627136,-2.1013925,-5.47296,-2.3080862
1570715401,-2.4935608,-19.612701,2.237381,-2.43042,4.5908813,1.6421814,-2.4925952,-14.605714,0.45605838
1570715401,-1.9363098,-14.129974,-2.4049683,-2.7201843,0.3394165,0.6174011,0.049340636,-10.689758,-1.3765998
1570715401,19.026718,-15.840042,-7.984665,-1.3353271,-5.194626,1.9138184,18.527775,-12.477676,-11.767282
1570715401,19.026718,-15.840042,-7.984665,-1.3353271,-5.194626,1.9138184,18.527775,-12.477676,-11.767282
1570715401,3.4177246,-10.899597,10.271118,-2.3260345,-2.1287994,1.317276,5.1319504,-6.3154936,7.257587
1570715401,3.4177246,-10.899597,10.271118,-2.3260345,-2.1287994,1.317276,5.1319504,-6.3154936,7.257587
1570715401,-4.225174,-7.3065033,6.3709717,-2.6360168,0.48641968,-0.3455963,-2.8353596,-0.4835925,8.308387
1570715402,-6.333267,-10.205887,1.3102264,-1.5334778,-0.5863037,0.17318726,-5.009327,-4.741972,2.830939
1570715402,0.7122803,-2.683899,3.4332886,-1.8754272,0.3426056,1.7423248,-0.89007413,2.906733,3.1726818
1570715402,0.7122803,-2.683899,3.4332886,-1.8754272,0.3426056,1.7423248,-0.89007413,2.906733,3.1726818
1570715402,4.6309814,-4.552582,6.051941,-1.4205475,1.3460846,0.7313843,5.9455957,1.5707512,5.219543
1570715402,4.552582,-7.4070587,-0.5404968,0.8377991,1.255539,-1.4204559,6.3562407,-2.44027,1.1592386
1570715402,2.2361908,-11.394012,-0.09815979,2.4665985,-0.28163147,-1.8167267,2.6037292,-2.560546,-0.15361214
1570715402,2.301422,-12.258911,-0.723053,2.6625977,-0.27098083,-1.7059479,2.6635242,-5.0092535,0.7278644
1570715402,-3.0119019,-10.522522,-19.607315,0.36802673,-5.2361755,-1.7347107,-1.634497,-4.214558,-19.767862
1570715402,-3.0119019,-10.522522,-19.607315,0.36802673,-5.2361755,-1.7347107,-1.634497,-4.214558,-19.767862
1570715402,1.4173737,-15.771805,7.944565,1.2149048,-1.0326385,1.9042358,-1.09807,-11.046831,12.13424
1570715402,6.766617,-12.25412,8.607758,2.0799103,-1.8955078,0.002746582,7.2268867,-6.232489,7.153017
1570715402,-0.6937256,-17.026367,4.1515503,1.8934784,1.688034,-2.0862427,0.71330696,-11.245766,4.2804494
1570715402,-17.343597,-19.612701,14.195816,1.9786987,-0.40519714,0.81340027,-16.977695,-11.570015,10.812101
1570715402,-16.437988,-19.612701,14.185043,2.09375,-0.19534302,1.2395172,-16.977695,-11.570015,10.812101
1570715402,-4.4526215,-16.639694,-1.419754,4.559845,-2.6827393,2.606247,-7.546175,-11.879154,-1.3955114
1570715402,0.6937256,-6.4140625,-11.052826,2.12677,-4.7919617,-0.46385193,1.4375371,-1.7104506,-18.559097
1570715402,-3.008316,-6.312912,2.3145905,1.1786957,-3.970642,-1.3064728,-2.8922794,-0.5848026,-4.5253205
1570715402,-3.9665985,-7.5764465,3.9085388,1.6016083,-3.7160492,-2.6316528,-4.7483587,-1.879313,0.2705338
1570715402,-5.3977203,-10.632645,9.713272,2.0830994,-4.0281677,-5.6985474,-7.7822456,-6.3613286,5.3066697
1570715402,-5.3977203,-10.632645,9.713272,2.0830994,-4.0281677,-5.6985474,-7.7822456,-6.3613286,5.3066697
1570715402,-6.7534485,-10.631454,5.4497986,-0.6652832,3.3072357,-3.8183594,-11.103105,-7.5384297,3.3391895
1570715402,-8.041519,-11.014526,3.731369,-1.7614441,4.6260376,-2.5261993,-10.445168,-7.427269,-0.7932136
1570715402,-6.467331,-10.477631,9.160217,-1.078598,2.2292023,0.77931213,-10.4660845,-6.931492,4.309972
1570715402,2.1763306,-9.591766,17.536331,1.104126,1.2917633,3.59375,-1.3028054,-6.4148993,12.716148
1570715402,2.4845886,-9.397842,17.744629,1.1936035,1.368454,3.6661835,-0.5896871,-5.9263124,12.984485
1570715402,7.284958,-9.2404175,17.23526,2.7467651,1.5985565,4.0976105,4.4738455,-5.35165,13.063171
1570715402,10.059235,-7.5997925,14.905701,3.383789,0.34474182,2.2696228,8.734157,-4.3710155,8.783323
1570715402,10.238205,-7.62912,14.600433,2.8522186,1.811615,1.4035645,9.083333,-4.3523517,9.310722
1570715402,8.667007,-7.47171,10.390244,2.3898926,3.1293488,0.58117676,8.545132,-5.026948,5.224995
1570715402,3.3865967,-4.6555176,4.604645,2.2908325,0.91252136,0.14016724,3.603216,-3.1084921,-1.7234373
1570715402,3.3865967,-4.6555176,4.604645,2.2908325,0.91252136,0.14016724,3.603216,-3.1084921,-1.7234373
1570715402,2.8862152,-4.056381,3.225586,0.7749481,0.9008179,-0.3168335,3.3859425,-2.7691329,-3.3027587
1570715402,2.7437592,-4.11145,3.0532074,0.7184906,0.94555664,-0.32643127,3.2268589,-2.8249216,-3.3653946
1570715403,1.6513977,-2.6557617,3.9929352,-0.647171,0.81025696,-0.4883423,1.5837635,-1.4339705,-4.684897
1570715403,2.3965912,-2.5809479,6.1842194,-0.64930725,0.84754944,-0.5405426,2.0681405,-1.3959535,-3.3662024
1570715403,-5.5677185,-4.379593,2.9723969,2.332367,-0.99961853,-1.2542725,-7.883364,-5.0834646,-0.07461262
1570715403,-5.253479,-4.735138,2.090744,2.4964294,-1.3969727,-1.2137909,-4.950332,-3.1864142,-2.8915982
1570715403,-2.2110443,-4.195236,14.451401,3.1728668,-3.8172455,-0.43295288,-6.006628,-5.331598,1.8223553
1570715403,-2.834732,-2.0685883,4.7022095,1.7997437,-0.66192627,-1.4342957,-2.522164,-2.0373962,-2.076335
1570715403,-2.198471,-2.09552,7.999634,0.9880066,-0.85154724,-1.5301819,-2.362487,-2.4667232,-0.21321869
1570715403,-1.9704285,-1.9231415,10.71106,0.75045776,-0.6651306,-1.7336426,-1.7888182,-1.86188,4.6379857
1570715403,-1.9015961,-1.8160095,9.588181,0.5874634,-1.2339783,-1.7378998,-2.0957396,-2.3485613,2.81805
1570715403,-0.54289246,-1.8938141,11.89978,0.2359314,-1.850769,-1.9094086,-0.9778101,-2.3249564,4.709374
1570715403,-0.95648193,0.4878235,14.009674,-0.50442505,0.82836914,-1.6068726,-1.7252016,-0.58781135,6.3664184
1570715403,-0.9624634,0.6105194,14.09407,-0.5427704,0.91252136,-1.5940857,-1.5111046,-0.0946669,7.0316963
1570715403,-0.040100098,1.5496521,13.52066,-0.7302704,1.1543427,-1.4651947,-0.36460313,1.130194,6.7488637
1570715403,0.28970337,-0.52671814,11.658569,-0.50868225,-0.22410583,-1.4076691,0.06038776,-0.4575406,4.880955
1570715403,0.7972717,-2.5857391,8.233658,-0.47247314,-0.45207214,-1.0444183,0.5085566,-2.5494826,1.5515723
1570715403,0.7972717,-2.5857391,8.233658,-0.47247314,-0.45207214,-1.0444183,0.5085566,-2.5494826,1.5515723
1570715403,1.4472961,-2.6300354,7.7883453,-0.47779846,0.0113220215,-0.6832886,0.8958495,-2.569362,0.8505554
1570715403,1.9243469,-2.1128845,7.7925262,-0.2689972,-0.2688446,-0.69714355,1.380456,-2.0564382,0.48564148
1570715403,1.9243469,-2.1128845,7.7925262,-0.2689972,-0.2688446,-0.69714355,1.380456,-2.0564382,0.48564148
1570715403,1.1875305,-2.4253235,7.9744873,-0.2743225,-0.36898804,-0.65345764,0.9662888,-1.9282908,0.8914013
1570715403,-0.056259155,-3.2441406,9.854538,-0.045303345,-0.9378357,-0.11869812,-0.7663311,-2.796256,2.5815325
1570715403,-0.2346344,-3.5404205,10.65181,0.1379242,-1.1476898,0.17744446,-1.055234,-3.147156,3.3699455
1570715403,0.32980347,-4.2940063,11.732193,0.3147583,-0.9207916,0.93058777,-0.958151,-3.8688817,4.771211
1570715403,0.022750854,-4.681259,11.887207,-0.47886658,0.9753723,1.4291229,-1.0666873,-4.0620856,4.993886
1570715403,0.022750854,-4.681259,11.887207,-0.47886658,0.9753723,1.4291229,-1.0666873,-4.0620856,4.993886
1570715403,2.8078003,-3.2872314,14.216171,0.12727356,0.44487,0.9380493,1.2410107,-3.1960154,5.436013
1570715403,2.8078003,-3.2872314,14.216171,0.12727356,0.44487,0.9380493,1.2410107,-3.1960154,5.436013
1570715403,2.7611084,-0.1885376,12.339111,0.565094,-0.2368927,-0.06010437,2.1140747,0.11806369,5.9296994
1570715403,2.6952667,-0.25437927,12.0159,0.48840332,-0.26139832,-0.070755005,2.0284839,0.19699404,5.1163077
1570715403,2.3181915,-1.3610992,9.046494,-0.2700653,-0.2869568,0.19555664,1.1899209,-1.0839397,1.5948429
1570715403,2.4456787,-1.3634949,9.07402,-0.26261902,-0.24647522,0.20939636,1.1899209,-1.0839397,1.5948429
1570715403,2.3846283,-1.8076172,9.244614,-0.051696777,0.017700195,0.39050293,1.3275518,-1.388339,1.8728356
1570715403,1.8632812,-1.5658112,9.005783,-0.101760864,-0.18789673,0.3095398,1.1274383,-1.1206067,1.6884012
1570715403,1.5047607,-2.221817,8.866333,-0.13796997,-0.34448242,0.22218323,0.5732628,-1.4072771,1.4330812
1570715404,0.7398071,-3.265686,7.9798737,-0.182724,0.17216492,0.18276978,-0.30090034,-2.415395,0.5116601
1570715404,0.5674286,-3.5230713,8.238449,-0.123062134,0.37776184,0.21472168,-0.45248938,-2.8074472,0.721663
1570715404,0.43455505,-3.4650116,9.096176,-0.05381775,0.65579224,0.27864075,-0.5472393,-2.776736,1.3613634
1570715404,0.4728546,-3.533844,9.3906555,0.17308044,0.5705719,0.24668884,-0.25388062,-2.8034258,1.7678657
1570715404,0.36631775,-3.3488922,9.76355,0.41490173,0.37350464,0.11672974,-0.1805048,-2.6265066,2.2206197
1570715404,0.09815979,-3.4009705,9.929352,0.34565735,0.3948059,0.06665039,-0.43405724,-2.703635,2.2218976
1570715404,-0.5919647,-3.7984009,9.92038,-0.10708618,0.7601929,0.002746582,-0.5995791,-3.1511037,2.4934502
1570715404,-0.29508972,-4.1413727,11.750137,-0.47247314,1.2459564,0.0048675537,0.06632306,-3.029642,3.5251555
1570715404,-1.7238312,-4.656723,11.12944,-0.4096222,1.2225189,0.23815918,-1.5605607,-3.635455,3.6027212
1570715404,-3.7493134,-7.5908203,11.121063,-0.32546997,0.6504669,1.6389923,-3.1733851,-6.7316694,3.5095525
1570715404,-3.81456,-7.5405426,11.1073,-0.32440186,0.6089325,1.7380524,-3.1733851,-6.7316694,3.5095525
1570715404,-4.1832733,-7.5207825,10.775101,-0.6557007,0.45339966,2.6456604,-3.3409696,-6.4963245,2.9465609
1570715404,-6.130356,-6.885727,14.810532,-0.35849,-0.5894928,4.505615,-4.3639994,-5.3765616,6.362391
1570715404,-8.4257965,-6.6911926,14.574097,-0.088974,-0.8579407,6.5381317,-7.5611777,-5.679931,7.332731
1570715404,-0.5698242,-4.9386444,14.119202,-0.1869812,-0.7886963,7.6215057,-0.018598199,-4.5678988,6.3363385
1570715404,2.0099335,-3.9366608,14.70578,0.9049225,-0.65766907,7.9517517,2.9476097,-2.7364578,6.424593
1570715404,5.8083344,-4.600464,6.5876465,2.7254486,-1.5322571,8.149887,6.6667895,-5.7406454,-0.5289736
1570715404,5.8083344,-4.600464,6.5876465,2.7254486,-1.5322571,8.149887,6.6667895,-5.7406454,-0.5289736
1570715404,4.3622284,1.9913788,13.269272,0.40211487,1.2800446,5.901108,3.2536387,0.06946206,6.5530205
1570715404,4.3622284,1.9913788,13.269272,0.40211487,1.2800446,5.901108,3.2536387,0.06946206,6.5530205
1570715404,2.0889435,-2.6378174,4.949417,-0.6450348,2.611618,4.7825775,1.7035358,-4.4144807,-2.5828638
1570715404,8.204926,5.5395813,12.323547,0.14324951,-0.89842224,3.9570007,1.5052414,0.580148,1.1087079
1570715404,6.372162,5.254669,12.915527,0.21781921,-0.48509216,3.515976,4.699949,3.305478,4.224784
1570715404,4.007889,5.3618164,7.9643097,0.8825531,0.012374878,0.99557495,3.0645351,4.4788747,0.508677
1570715404,0.63386536,2.8239594,7.4932556,1.1222382,-0.7940216,0.52897644,0.24734211,1.9105058,-0.29936075
1570715404,2.8856049,0.9038086,7.6387024,1.170166,-0.90374756,1.0435028,0.12108326,-1.2510228,2.610003
1570715404,5.348053,5.565323,4.695633,-0.11773682,-1.3181305,0.8112793,2.834492,1.931463,-3.4887757
1570715404,3.2148132,5.946594,6.6935883,-1.52388,0.0113220215,0.32444763,1.3647704,5.3837113,-0.8335438
1570715404,2.537262,0.03831482,11.79982,-1.3715515,-0.10800171,0.20088196,0.15718651,-0.69431806,3.4187298
1570715404,2.8149872,0.34176636,14.016251,-0.70788574,0.15405273,0.24562073,0.3252008,-1.2745694,5.8181524
1570715404,1.9638367,2.4815826,11.304825,0.87509155,0.40759277,0.32125854,-0.040611267,1.2166598,4.0478535
1570715404,1.9237366,2.434906,11.12944,0.82502747,0.36817932,0.34469604,-0.040611267,1.2166598,4.0478535
1570715404,1.9967651,2.0428467,11.591522,-0.31800842,0.019836426,0.70687866,0.05996251,1.0860864,3.3189702
1570715404,1.9458923,0.94750977,13.39975,-0.6897888,0.013442993,0.85494995,-0.21460676,-0.15117395,5.174064
1570715405,1.2210388,-0.17297363,12.873032,-0.008010864,1.2033386,0.3894348,-0.1473862,-0.7394419,5.4135036
1570715405,1.0875702,-0.2753296,12.651566,0.048446655,1.1564789,0.37664795,-0.1473862,-0.7394419,5.4135036
1570715405,-0.30107117,-0.5201416,10.354324,0.68014526,0.46618652,0.32019043,-1.5692276,-1.5772443,2.7874794
1570715405,0.17358398,0.7302246,8.772949,1.3214417,-1.1562195,0.5779877,-1.679157,-0.7280686,0.6631632
1570715405,0.17358398,0.7302246,8.772949,1.3214417,-1.1562195,0.5779877,-1.679157,-0.7280686,0.6631632
1570715405,2.3750458,0.49679565,8.577225,0.3115692,-0.24008179,0.9465637,0.110780716,-1.2222317,0.6964545
1570715405,2.9777832,0.80384827,8.750214,0.26895142,-0.27311707,0.92633057,0.447711,-1.0265795,0.74144316
1570715405,3.5523987,1.7567444,9.13089,0.31263733,0.29467773,0.4160614,1.3192677,-0.021482944,1.2662983
1570715405,3.5523987,1.7567444,9.13089,0.31263733,0.29467773,0.4160614,1.3192677,-0.021482944,1.2662983
1570715405,1.9207458,2.004547,8.236649,0.09211731,0.17855835,0.522583,-0.34225154,0.12325406,0.49961329
1570715405,1.9207458,2.004547,8.236649,0.09211731,0.17855835,0.522583,-0.34225154,0.12325406,0.49961329
1570715405,3.863037,2.6036987,9.480438,-0.10920715,0.4129181,0.5130005,1.4563019,0.8471397,1.5294404
1570715405,3.863037,2.6036987,9.480438,-0.10920715,0.4129181,0.5130005,1.4563019,0.8471397,1.5294404
1570715405,3.1166534,3.0585938,9.717468,0.07400513,1.3247833,0.20301819,1.3661973,1.3080137,1.7758579
1570715405,2.9670105,3.115448,9.637863,0.083602905,1.3482208,0.19555664,1.3661973,1.3080137,1.7758579
1570715405,0.7739258,2.585144,10.475235,0.043121338,0.04006958,0.16358948,-0.33246183,1.0724257,2.006835
1570715405,0.7739258,2.585144,10.475235,0.043121338,0.04006958,0.16358948,-0.33246183,1.0724257,2.006835
1570715405,0.6769562,3.2273865,16.115372,-0.11454773,0.79748535,0.39901733,0.27977264,1.440366,3.3569717
1570715405,0.6769562,3.2273865,16.115372,-0.11454773,0.79748535,0.39901733,0.27977264,1.440366,3.3569717
1570715405,-5.269638,3.5613708,10.823593,2.4335785,0.43528748,0.89863586,-5.210829,1.4223735,10.989059
1570715405,3.5212708,2.6300354,6.28598,1.6431427,0.5290375,0.7388458,1.4712,-0.86464214,-0.54313946
1570715405,1.2862854,3.0801392,8.806473,1.02742,-0.54901123,-0.26463318,0.24440956,0.0644362,1.0595112
1570715405,1.0917511,3.1220398,8.802277,1.0348816,-0.58203125,-0.25079346,0.24440956,0.0644362,1.0595112
1570715405,1.438324,3.9193115,7.1969757,0.4873352,-0.006790161,0.112457275,-0.3032055,0.35297585,-0.47651958
1570715405,2.2020721,2.9652252,6.668457,-0.29457092,0.25419617,-0.072891235,0.87651265,-0.005391121,-1.1752081
1570715405,2.5091248,1.9895782,10.029312,-1.0242767,0.14979553,0.04109192,0.74379086,-1.2318108,2.1608787
1570715405,2.5091248,1.9895782,10.029312,-1.0242767,0.14979553,0.04109192,0.74379086,-1.2318108,2.1608787
1570715405,3.4745789,2.260727,8.99202,-0.6184082,0.31278992,-0.7184448,2.429376,-0.5452306,0.6412096
1570715405,3.3572693,2.3032227,9.157227,-0.6173401,0.32556152,-0.75572205,2.429376,-0.5452306,0.6412096
1570715405,1.4371185,1.5675964,11.568787,-0.5885773,-0.15167236,-0.74827576,0.19232285,-0.7290044,3.3237238
1570715405,1.4371185,1.5675964,11.568787,-0.5885773,-0.15167236,-0.74827576,0.19232285,-0.7290044,3.3237238
1570715405,-1.1324615,0.95947266,11.096527,-0.5480957,0.2840271,-0.1133728,-2.0324392,-1.2600763,2.8728838
1570715405,0.1993103,1.4257507,10.688919,-0.51934814,0.30000305,0.23176575,-1.3309789,-0.8128252,2.4651613
1570715406,1.6382294,2.1811218,10.270523,-0.4138794,0.1306305,0.26052856,0.5622333,0.097774744,1.9632998
1570715406,1.0654144,2.3786469,9.464279,-0.23918152,0.22329712,-0.031341553,0.548577,0.58613575,1.1822901
1570715406,1.2150574,2.3924103,9.038712,-0.35209656,0.27017212,0.21366882,0.46365082,0.586537,0.454751
1570715406,1.1875305,2.3924103,9.038712,-0.35209656,0.27017212,0.21366882,0.46365082,0.586537,0.454751
1570715406,0.87687683,2.6096802,10.888824,-0.32759094,0.39694214,0.2584076,0.39657396,1.0798968,2.3703785
1570715406,0.87687683,2.6096802,10.888824,-0.32759094,0.39694214,0.2584076,0.39657396,1.0798968,2.3703785
1570715406,0.7667389,2.6551666,10.746368,-0.36061096,0.42144775,0.39901733,0.24556154,1.3422892,1.9601812
1570715406,0.7667389,2.6551666,10.746368,-0.36061096,0.42144775,0.39901733,0.24556154,1.3422892,1.9601812
1570715406,0.90800476,2.7216034,11.224609,-0.064468384,0.3617859,0.40327454,0.5585625,1.3594393,2.7020912
1570715406,0.94869995,2.6898804,10.250183,-0.018661499,0.4044037,0.35214233,0.7215468,1.3707576,1.5735292
1570715406,0.94869995,2.6898804,10.250183,-0.018661499,0.4044037,0.35214233,0.7215468,1.3707576,1.5735292
1570715406,1.2024841,2.3690643,10.885239,-0.010147095,0.3149109,0.30314636,1.1070483,1.0623883,2.0113773
1570715406,-0.022750854,2.5067291,11.041458,0.7099762,0.1817627,0.2637329,1.1095023,1.5261774,2.4672327
1570715406,0.84036255,2.388214,11.049835,0.72169495,0.17749023,0.32551575,1.1095023,1.5261774,2.4672327
1570715406,1.1611938,2.937088,10.7104645,0.16349792,0.47151184,0.23071289,1.1207966,1.3837361,1.8744841
1570715406,1.1611938,2.937088,10.7104645,0.16349792,0.47151184,0.23071289,1.1207966,1.3837361,1.8744841
1570715406,0.80804443,1.0965424,12.456436,-0.57048035,0.7836304,0.030441284,1.2084461,-0.5095509,3.5577116
1570715406,-0.27174377,0.38008118,13.196838,-0.3595581,0.63342285,0.04322815,0.22324929,-1.1600012,4.3494225
1570715406,-1.3174133,1.0857697,10.641037,0.47880554,0.5450134,0.13589478,0.4195559,-0.58117986,2.403223
1570715406,-0.59077454,1.572998,7.997238,0.7238159,0.28295898,0.10926819,0.035449564,-0.56814134,-0.34229088
1570715406,-0.509964,1.6777344,8.031952,0.2646942,-3.9672852E-4,-0.017501831,0.055117667,-0.31292343,-0.6502056
1570715406,-0.509964,1.6777344,8.031952,0.2646942,-3.9672852E-4,-0.017501831,0.055117667,-0.31292343,-0.6502056
1570715406,-1.1755524,0.72784424,9.031525,-0.6088257,0.12742615,0.2626648,-0.2373361,-1.1942444,-0.27591515
1570715406,-1.1755524,0.72784424,9.031525,-0.6088257,0.12742615,0.2626648,-0.2373361,-1.1942444,-0.27591515
1570715406,-1.8130035,0.87028503,10.85231,-0.344635,0.012374878,0.6078186,-1.1966443,-1.167023,2.2288227
1570715406,-1.4838104,1.4341278,10.386642,-0.3819275,0.27763367,0.41712952,-0.75875515,-0.18864655,1.3965778
1570715406,-1.4838104,1.4341278,10.386642,-0.3819275,0.27763367,0.41712952,-0.75875515,-0.18864655,1.3965778
1570715406,-1.138443,1.2916718,12.355881,0.08253479,-0.291214,0.30847168,-1.3832607,-0.3616377,7.593869
1570715406,-0.0077819824,1.7872772,11.215637,0.6023865,-0.27204895,0.12950134,0.7094399,0.06420219,2.737484
1570715406,-0.35075378,2.0967255,9.287109,0.5800171,-0.20280457,-0.022827148,0.378532,0.17714179,0.7617254
1570715406,-0.2753296,2.7293854,8.400055,0.017547607,-0.007858276,0.040023804,0.26027626,0.6630683,-0.4178896
1570715406,-0.24839783,2.778473,8.3414,-0.026123047,0.008117676,0.040023804,0.26027626,0.6630683,-0.4178896
1570715406,-0.6691742,2.6509857,9.641449,-0.4564972,0.19134521,0.06665039,-0.028733969,0.73417985,0.5639324
1570715407,-0.45429993,2.5354614,9.697113,-0.50442505,0.21157837,0.079437256,0.17201543,0.6923418,0.8614569
1570715407,-0.6003418,2.3846283,9.664795,-0.6375885,0.0113220215,-4.5776367E-4,0.050114453,0.774734,0.7698097
1570715407,-0.6003418,2.3846283,9.664795,-0.6375885,0.0113220215,-4.5776367E-4,0.050114453,0.774734,0.7698097
1570715407,-1.3060303,1.9512787,11.816589,-0.4426422,-0.12930298,-0.117630005,0.22886258,0.79174423,2.5867634
1570715407,-0.09996033,2.3756409,10.657791,0.18586731,-0.20173645,-0.108047485,0.51912487,1.0365162,1.9863949
1570715407,-0.09996033,2.3756409,10.657791,0.18586731,-0.20173645,-0.108047485,0.51912487,1.0365162,1.9863949
1570715407,-0.25138855,2.197876,10.748764,-0.0026855469,-0.25712585,-0.2710266,0.27123818,0.9491538,1.4544764
1570715407,-0.25138855,2.197876,10.748764,-0.0026855469,-0.25712585,-0.2710266,0.27123818,0.9491538,1.4544764
1570715407,-0.62249756,2.4869843,9.914993,0.5991821,-0.26565552,-0.19645691,-0.2558259,0.86185896,1.3359718
1570715407,-0.5680237,2.929306,9.706696,0.49798584,-0.44995117,-0.13574219,-0.2997646,1.1013265,0.6560755
1570715407,-0.4405365,3.2052307,9.939529,0.36695862,-0.48936462,-0.0899353,-0.22358598,1.3411977,0.89450264
1570715407,-0.13946533,3.2220001,10.47583,0.07081604,-0.41053772,-0.043060303,-0.17707673,1.3251927,1.465086
1570715407,-0.13407898,3.2046356,10.438126,0.058029175,-0.3934784,-0.043060303,-0.17707673,1.3251927,1.465086
1570715407,0.41419983,2.3415222,11.593323,-0.10494995,-0.3072052,-0.121902466,0.23360626,0.50866365,2.3528624
1570715407,0.19752502,1.798645,10.484207,0.4085083,-0.33276367,-0.13360596,-0.09687969,-0.20442748,1.6579962
1570715407,0.19572449,1.8411407,10.323196,0.42980957,-0.3306427,-0.13467407,-0.09687969,-0.20442748,1.6579962
1570715407,0.010177612,1.977005,8.6436615,0.29026794,-0.3157196,-0.11230469,-0.45057678,-0.15236998,-0.3466816
1570715407,0.51416016,1.822586,9.301468,-0.035705566,-0.11758423,-0.1133728,-0.0838604,-0.31531,0.18885422
1570715407,0.51416016,1.822586,9.301468,-0.035705566,-0.11758423,-0.1133728,-0.0838604,-0.31531,0.18885422
1570715407,1.3383636,1.1492157,9.949707,-0.69937134,0.5141144,-0.37861633,1.22702,-0.819108,0.68185616
1570715407,1.3383636,1.1492157,9.949707,-0.69937134,0.5141144,-0.37861633,1.22702,-0.819108,0.68185616
1570715407,0.8271942,1.3605042,11.241974,0.35523987,-0.30293274,-0.15917969,0.6250491,-0.40935457,2.229868
1570715407,0.8271942,1.3605042,11.241974,0.35523987,-0.30293274,-0.15917969,0.6250491,-0.40935457,2.229868
1570715407,1.6214752,1.7968445,10.228622,0.27108765,0.08161926,0.0826416,1.1554248,-0.3187549,1.095459
1570715407,1.6214752,1.7968445,10.228622,0.27108765,0.08161926,0.0826416,1.1554248,-0.3187549,1.095459
1570715407,1.7519531,2.7126312,9.793488,0.14112854,0.4683075,0.5119324,1.2177222,0.62343526,1.0933313
1570715407,1.7519531,2.7126312,9.793488,0.14112854,0.4683075,0.5119324,1.2177222,0.62343526,1.0933313
1570715407,3.0771484,4.8518524,6.7223206,-0.45436096,-0.17723083,-0.36691284,4.284796,3.6915653,-2.020874
1570715407,3.0771484,4.8518524,6.7223206,-0.45436096,-0.17723083,-0.36691284,4.284796,3.6915653,-2.020874
1570715407,0.48303223,3.4009705,8.277359,-0.74731445,-0.34555054,-0.59487915,0.19268015,1.1563296,-0.84476566
1570715407,-0.012573242,2.1601715,11.121063,-0.47991943,-0.16551208,-0.18048096,-0.776002,0.54394853,1.6852131
1570715407,0.1490326,2.0979156,11.210251,-0.45755005,-0.13781738,-0.1410675,-0.5092541,0.5079757,1.9060373
1570715408,1.2904816,3.312378,9.249405,-0.12519836,0.39694214,0.011260986,0.89847434,1.7145523,0.07596016
1570715408,1.2904816,3.312378,9.249405,-0.12519836,0.39694214,0.011260986,0.89847434,1.7145523,0.07596016
1570715408,0.19332886,2.7964325,11.145615,-0.45436096,1.2715149,-0.20498657,0.51670474,1.4440241,1.9789886
1570715408,0.19332886,2.7964325,11.145615,-0.45436096,1.2715149,-0.20498657,0.51670474,1.4440241,1.9789886
1570715408,-0.5279236,2.0727844,11.456848,-0.22532654,0.7878876,0.25733948,0.16297352,0.9422511,2.0954952
1570715408,-0.5279236,2.0727844,11.456848,-0.22532654,0.7878876,0.25733948,0.16297352,0.9422511,2.0954952
1570715408,-0.5279236,2.0727844,11.456848,-0.22532654,0.7878876,0.25733948,0.16297352,0.9422511,2.0954952
1570715408,-0.5279236,2.0727844,11.456848,-0.22532654,0.7878876,0.25733948,0.16297352,0.9422511,2.0954952
1570715408,0.17597961,2.8036041,12.195465,0.39253235,-0.064315796,0.3968811,0.7421315,1.4161493,2.858657
1570715408,0.17597961,2.8036041,12.195465,0.39253235,-0.064315796,0.3968811,0.7421315,1.4161493,2.858657
1570715408,0.042495728,0.88345337,12.050018,-0.98379517,0.22117615,0.36706543,0.9630438,-0.43390596,2.0889177
1570715408,0.042495728,0.88345337,12.050018,-0.98379517,0.22117615,0.36706543,0.9630438,-0.43390596,2.0889177
1570715408,0.6171112,0.09336853,12.43309,-0.90815735,0.1583252,0.20301819,1.4015639,-1.3382568,3.0802212
1570715408,0.6171112,0.09336853,12.43309,-0.90815735,0.1583252,0.20301819,1.4015639,-1.3382568,3.0802212
1570715408,0.6171112,0.09336853,12.43309,-0.90815735,0.1583252,0.20301819,1.4015639,-1.3382568,3.0802212
1570715408,-2.0925293,0.41958618,9.616913,0.24658203,0.1306305,-0.28381348,-0.4962275,-0.9980072,0.24802971
1570715408,-2.0925293,0.41958618,9.616913,0.24658203,0.1306305,-0.28381348,-0.4962275,-0.9980072,0.24802971
1570715408,-1.8261719,0.0035858154,9.712082,-0.12945557,-0.13676453,0.037887573,-0.38478076,-1.323766,0.31586456
1570715408,-1.0402832,0.21009827,10.612305,-0.3819275,-0.1900177,0.2637329,0.20087838,-1.3137103,1.1377401
1570715408,-1.0402832,0.21009827,10.612305,-0.3819275,-0.1900177,0.2637329,0.20087838,-1.3137103,1.1377401
1570715408,-1.0402832,0.21009827,10.612305,-0.3819275,-0.1900177,0.2637329,0.20087838,-1.3137103,1.1377401
1570715408,-1.0402832,0.21009827,10.612305,-0.3819275,-0.1900177,0.2637329,0.20087838,-1.3137103,1.1377401
1570715408,-1.0402832,0.21009827,10.612305,-0.3819275,-0.1900177,0.2637329,0.20087838,-1.3137103,1.1377401
1570715408,-3.1567535,1.9123688,8.413818,1.3470001,0.39268494,-0.12828064,-1.284532,-0.26521802,-0.43821716
1570715408,-3.170517,1.9129639,8.251022,1.2788239,0.3852234,-0.12295532,-1.284532,-0.26521802,-0.43821716
1570715408,-2.439087,2.7611084,7.1855927,0.5352783,0.19773865,-0.0068511963,-0.802668,-0.041763306,-1.882906
1570715408,-2.439087,2.7611084,7.1855927,0.5352783,0.19773865,-0.0068511963,-0.802668,-0.041763306,-1.882906
1570715408,-2.439087,2.7611084,7.1855927,0.5352783,0.19773865,-0.0068511963,-0.802668,-0.041763306,-1.882906
1570715408,-2.439087,2.7611084,7.1855927,0.5352783,0.19773865,-0.0068511963,-0.802668,-0.041763306,-1.882906
1570715408,-1.948883,2.5809479,8.965088,-0.03251648,-0.26245117,0.23071289,-0.1466924,0.15830326,-0.19250965
1570715408,-1.7818909,2.7305908,9.0542755,-0.10920715,-0.37643433,0.24455261,-0.06231165,0.2526965,-0.058089256
1570715408,-1.7609406,2.8143768,9.05307,-0.19869995,-0.37963867,0.24987793,-0.0952791,0.33912158,-0.1665945
1570715408,-1.6047211,2.9550476,9.157227,-0.28604126,-0.37217712,0.2392273,-0.067974806,0.55572486,-0.06493187
1570715408,-1.6047211,2.9550476,9.157227,-0.28604126,-0.37217712,0.2392273,-0.067974806,0.55572486,-0.06493187
1570715408,-1.6047211,2.9550476,9.157227,-0.28604126,-0.37217712,0.2392273,-0.067974806,0.55572486,-0.06493187
1570715409,-1.1186981,2.6982727,10.499176,-0.5150757,-0.18682861,0.11352539,0.19240475,0.8169832,0.14041805
1570715409,-1.2054749,2.7263947,10.675751,-0.23065186,-0.417984,-0.09100342,0.011969209,0.7426797,1.2512474
1570715409,-1.0462646,2.6300354,11.270706,-0.11027527,-0.4137268,-0.09207153,-0.026202917,0.75771666,1.7470541
1570715409,-0.8535309,2.6042938,11.018112,0.040985107,-0.35087585,-0.09313965,0.16390967,0.6791172,1.6962109
1570715409,-0.9115906,2.629425,10.943893,0.07507324,-0.35301208,-0.08886719,0.1549331,0.7356055,1.6081934
1570715409,-0.9115906,2.629425,10.943893,0.07507324,-0.35301208,-0.08886719,0.1549331,0.7356055,1.6081934
1570715409,-0.9115906,2.629425,10.943893,0.07507324,-0.35301208,-0.08886719,0.1549331,0.7356055,1.6081934
1570715409,-0.2813263,2.3912048,10.231018,0.08572388,-0.34448242,-0.12934875,0.10766831,0.33030272,0.9074869
1570715409,-0.25558472,2.3888092,10.182541,0.069747925,-0.3306427,-0.13360596,0.097839445,0.26588106,0.8237562
1570715409,-0.4734497,2.0099335,9.970657,-0.1166687,-0.1857605,-0.16664124,-0.028995752,-0.15621471,0.45705318
1570715409,-0.9109955,1.8968048,9.914993,-0.12625122,-0.18894958,-0.1048584,-0.52189976,-0.22189355,0.45903778
1570715409,-0.9109955,1.8968048,9.914993,-0.12625122,-0.18894958,-0.1048584,-0.52189976,-0.22189355,0.45903778
1570715409,-0.9109955,1.8968048,9.914993,-0.12625122,-0.18894958,-0.1048584,-0.52189976,-0.22189355,0.45903778
1570715409,-0.9109955,1.8968048,9.914993,-0.12625122,-0.18894958,-0.1048584,-0.52189976,-0.22189355,0.45903778
1570715409,0.8439636,1.6549988,10.205292,0.47135925,0.2680359,-0.24758911,0.78146595,-1.0937567,0.8395443
1570715409,0.8439636,1.6549988,10.205292,0.47135925,0.2680359,-0.24758911,0.78146595,-1.0937567,0.8395443
1570715409,0.707489,2.0428467,9.950897,0.29878235,0.52690125,-0.26783752,1.1421903,-0.63221264,0.48283577
1570715409,0.707489,2.0428467,9.950897,0.29878235,0.52690125,-0.26783752,1.1421903,-0.63221264,0.48283577
1570715409,0.707489,2.0428467,9.950897,0.29878235,0.52690125,-0.26783752,1.1421903,-0.63221264,0.48283577
1570715409,0.707489,2.0428467,9.950897,0.29878235,0.52690125,-0.26783752,1.1421903,-0.63221264,0.48283577
1570715409,-0.9468994,2.8293457,9.88266,-0.44903564,-0.4552765,0.089019775,-0.11500049,0.49513054,-0.12707424
1570715409,-0.9468994,2.8293457,9.88266,-0.44903564,-0.4552765,0.089019775,-0.11500049,0.49513054,-0.12707424
1570715409,-0.20829773,3.1447906,10.902603,-0.07299805,-0.37217712,-0.27316284,1.4350067,0.3950305,1.4642296
1570715409,-1.1013336,2.5115204,10.435135,0.12301636,-0.25712585,-0.2944641,0.16547441,0.26424503,1.2627201
1570715409,-0.9929962,2.7257996,10.010162,0.15071106,-0.21452332,-0.2710266,0.0014954805,0.22284102,0.92167854
1570715409,-0.9929962,2.7257996,10.010162,0.15071106,-0.21452332,-0.2710266,0.0014954805,0.22284102,0.92167854
1570715409,-0.9929962,2.7257996,10.010162,0.15071106,-0.21452332,-0.2710266,0.0014954805,0.22284102,0.92167854
1570715409,-0.9929962,2.7257996,10.010162,0.15071106,-0.21452332,-0.2710266,0.0014954805,0.22284102,0.92167854
1570715409,-0.6578064,2.426529,10.08078,-0.5534363,0.121032715,-0.053710938,0.28870392,0.6221442,0.51969147
1570715409,-1.6687622,2.8227692,10.562027,-0.09855652,0.27017212,0.05281067,-0.38349926,0.99832904,1.1692028
1570715409,-1.6094971,3.305191,10.4500885,0.091049194,0.062454224,0.21792603,-0.5822016,1.5163897,0.85727215
1570715409,-1.5867615,3.3979645,10.547653,0.091049194,0.035812378,0.23071289,-0.5822016,1.5163897,0.85727215
1570715410,-1.5867615,3.3979645,10.547653,0.091049194,0.035812378,0.23071289,-0.5822016,1.5163897,0.85727215
1570715410,-1.5867615,3.3979645,10.547653,0.091049194,0.035812378,0.23071289,-0.5822016,1.5163897,0.85727215
1570715410,-1.0253143,3.4680023,11.370071,0.1847992,0.09120178,0.22431946,0.13816893,1.3321142,1.5524702
1570715410,-1.0253143,3.4680023,11.370071,0.1847992,0.09120178,0.22431946,0.13816893,1.3321142,1.5524702
1570715410,-2.7222137,2.589325,10.83197,0.15710449,0.1902771,0.2722473,-1.3496462,0.82316613,1.536252
1570715410,-2.1039124,2.8215637,10.2795105,0.071884155,-0.18043518,0.37557983,-1.2513416,0.59133434,0.8433237
1570715410,-2.1039124,2.8215637,10.2795105,0.071884155,-0.18043518,0.37557983,-1.2513416,0.59133434,0.8433237
1570715410,-2.1039124,2.8215637,10.2795105,0.071884155,-0.18043518,0.37557983,-1.2513416,0.59133434,0.8433237
1570715410,-2.1039124,2.968811,10.1185,0.071884155,-0.18043518,0.37557983,-1.2513416,0.59133434,0.8433237
1570715410,-0.93014526,1.391037,11.508926,-0.52467346,-0.87498474,0.37878418,-0.9134214,0.84513164,0.5589256
1570715410,-0.36332703,1.0091553,9.372101,0.67163086,-0.21026611,0.65574646,0.07043341,-0.19504178,-0.15675545
1570715410,-0.3471527,1.0965424,8.185181,0.5714874,0.15086365,0.5939636,-0.16033211,-0.1256566,-1.2818623
1570715410,-0.3471527,1.0965424,8.185181,0.5714874,0.15086365,0.5939636,-0.16033211,-0.1256566,-1.2818623
1570715410,-0.3471527,1.0965424,8.185181,0.5714874,0.15086365,0.5939636,-0.16033211,-0.1256566,-1.2818623
1570715410,-0.3471527,1.0965424,8.185181,0.5714874,0.15086365,0.5939636,-0.16033211,-0.1256566,-1.2818623
1570715410,-0.3471527,1.0965424,8.185181,0.5714874,0.15086365,0.5939636,-0.16033211,-0.1256566,-1.2818623
1570715410,-0.106536865,1.5167236,9.178772,-0.031448364,0.14234924,0.34042358,0.26997983,0.45095897,-0.56224155
1570715410,-0.106536865,1.5167236,9.178772,-0.031448364,0.14234924,0.34042358,0.26997983,0.45095897,-0.56224155
1570715410,-0.24182129,1.6107025,9.270355,-0.0655365,0.10612488,0.31166077,0.114087254,0.4768027,-0.62829876
1570715410,-0.24182129,1.6107025,9.270355,-0.0655365,0.10612488,0.31166077,0.114087254,0.4768027,-0.62829876
1570715410,-0.24182129,1.6107025,9.270355,-0.0655365,0.10612488,0.31166077,0.114087254,0.4768027,-0.62829876
1570715410,-0.24182129,1.6107025,9.270355,-0.0655365,0.10612488,0.31166077,0.114087254,0.4768027,-0.62829876
1570715410,-0.0023956299,2.1404114,10.190323,-0.17419434,-0.2645874,0.20301819,0.21515326,1.0981681,0.20580196
1570715410,0.09516907,2.1948853,10.390244,-0.14117432,-0.26245117,0.184906,0.2648425,1.1697625,0.5225477
1570715410,0.48182678,2.166748,11.369461,-0.030380249,-0.28909302,0.05067444,0.57723576,1.268738,1.3246489
1570715410,0.48182678,2.166748,11.369461,-0.030380249,-0.28909302,0.05067444,0.57723576,1.268738,1.3246489
1570715410,0.48901367,2.1715393,11.605301,-0.016540527,-0.2880249,0.025115967,0.53607386,1.2103873,1.4587898
1570715410,0.48901367,2.1715393,11.605301,-0.016540527,-0.2880249,0.025115967,0.53607386,1.2103873,1.4587898
1570715410,0.48901367,2.1715393,11.605301,-0.016540527,-0.2880249,0.025115967,0.53607386,1.2103873,1.4587898
1570715410,1.5921478,0.9139862,11.185715,0.2082367,-0.6864319,-0.6087189,0.87076664,1.077673,2.5338554
1570715410,1.8770599,0.2753296,11.271896,-0.12945557,-0.54901123,-0.6609192,1.2286181,-0.88293433,1.4179325
1570715410,1.3682861,-0.046691895,11.504135,-0.344635,-0.32424927,-0.6470642,0.59842527,-1.1664975,1.6185732
1570715410,1.043869,-0.16758728,11.6202545,-0.32759094,-0.20387268,-0.62683105,0.35070378,-1.2389299,1.6061792
1570715410,1.043869,-0.16758728,11.6202545,-0.32759094,-0.20387268,-0.62683105,0.35070378,-1.2389299,1.6061792
1570715410,1.043869,-0.16758728,11.6202545,-0.32759094,-0.20387268,-0.62683105,0.35070378,-1.2389299,1.6061792
1570715411,1.043869,-0.16758728,11.6202545,-0.32759094,-0.20387268,-0.62683105,0.35070378,-1.2389299,1.6061792
1570715411,0.85832214,0.13825989,9.88327,-0.37446594,0.041137695,-0.4894104,0.4789935,-0.89377344,-0.23806953
1570715411,0.78889465,0.12869263,10.690704,-0.4841919,-0.04194641,-0.45425415,0.32145566,-0.9093313,0.78896046
1570715411,1.1887207,0.3728943,10.552444,-0.31054688,0.05606079,-0.37756348,0.7097154,-0.54302,0.6532545
1570715411,1.1887207,0.3728943,10.552444,-0.31054688,0.05606079,-0.37756348,0.7097154,-0.54302,0.6532545
1570715411,1.1887207,0.3728943,10.552444,-0.31054688,0.05606079,-0.37756348,0.7097154,-0.54302,0.6532545
1570715411,1.1887207,0.3728943,10.552444,-0.31054688,0.05606079,-0.37756348,0.7097154,-0.54302,0.6532545
1570715411,1.1887207,0.3728943,10.552444,-0.31054688,0.05606079,-0.37756348,0.7097154,-0.54302,0.6532545
1570715411,0.8882446,1.4287415,10.014938,-0.01121521,0.16471863,-0.054779053,0.7041453,0.80645424,0.011013985
1570715411,0.75956726,1.5706024,10.445297,-0.010147095,0.20625305,-0.049453735,0.61295897,0.94405615,0.3245592
1570715411,0.9355316,1.5837708,10.886429,0.07400513,0.2094574,-0.07182312,0.8196707,1.000493,0.83595467
1570715411,0.9355316,1.5837708,10.886429,0.07400513,0.2094574,-0.07182312,0.8196707,1.000493,0.83595467
1570715411,0.9355316,1.5837708,10.886429,0.07400513,0.2094574,-0.07182312,0.8196707,1.000493,0.83595467
1570715411,0.9355316,1.5837708,10.886429,0.07400513,0.2094574,-0.07182312,0.8196707,1.000493,0.83595467
1570715411,0.81762695,1.8267822,11.416748,0.5437927,0.48216248,-0.09526062,0.89861584,1.0735731,1.3437376
1570715411,-0.46028137,1.8112183,11.371262,0.51823425,0.9061432,-0.06010437,0.16245943,0.46907163,1.3780003
1570715411,-1.6705475,1.711853,11.9596405,0.23486328,0.85287476,0.10180664,-0.6669305,0.17489505,2.051032
1570715411,-1.6358337,1.4891968,11.151596,0.19970703,0.57164,0.14974976,-0.71887696,-0.025709748,1.550355
1570715411,-1.6358337,1.4891968,11.151596,0.19970703,0.57164,0.14974976,-0.71887696,-0.025709748,1.550355
1570715411,-1.6358337,1.4891968,11.151596,0.19970703,0.57164,0.14974976,-0.71887696,-0.025709748,1.550355
1570715411,-1.6358337,1.4891968,11.151596,0.19970703,0.57164,0.14974976,-0.71887696,-0.025709748,1.550355
1570715411,-1.6358337,1.4891968,11.151596,0.19970703,0.57164,0.14974976,-0.71887696,-0.025709748,1.550355
1570715411,-1.9662323,0.45310974,7.3507996,0.658844,0.13595581,-0.0856781,-0.958755,-1.1577392,-2.5814457
