time,ax,ay,az,gx,gy,gz,la_x,la_y,la_z,fox,foy,foz
1570715373,7.2304893,-4.1419687,5.827487,-0.33343795,0.95024484,0.8479764,1.1252748,1.6328455,0.770933
1570715373,7.2113357,-4.012682,6.531382,-0.30147904,0.75742614,0.351548,1.3359646,1.9153614,1.3790601
1570715373,6.909666,-4.247314,5.722142,-0.32491556,0.78618914,0.1384886,1.1827357,1.7621324,0.49799395
1570715373,6.4787097,-5.118803,5.717354,-0.2748466,0.81708276,0.22584295,0.9624691,1.0247183,0.3878607
1570715373,6.9479733,-5.4300494,6.2009826,-0.070309594,0.4495553,0.16405573,1.5179238,0.7086837,0.81402856
1570715373,7.1490865,-5.626374,6.1387334,0.119313255,0.47192654,0.039415985,1.7717092,0.45489833,0.6368576
1570715373,6.727707,-5.765238,6.3829417,0.25993246,0.74783844,-0.046873067,1.5370775,0.30166942,0.8619126
1570715373,5.683835,-5.0421886,5.7029886,0.16831692,0.5859133,-0.07563608,0.521936,0.93852705,-0.10055647
1570715373,5.1235914,-5.3582234,4.6016555,-0.09800732,0.63065577,0.28549957,0.08619126,0.7757214,-1.1971009
1570715373,5.1666875,-5.9041014,7.1586633,0.13209683,0.39309457,0.3835069,0.22505496,0.047884032,0.8762778
1570715373,5.1906295,-5.171476,6.6654577,0.2087982,-0.74570787,0.23756121,0.4357447,0.80445176,0.770933
1570715373,4.8362875,-5.0038815,6.0525417,0.29082605,-1.6085984,0.6402435,-0.04309563,1.1444284,0.35434186
1570715373,5.4061074,-5.5641246,6.766014,0.6839206,-2.0741332,1.384886,0.31124622,1.8148049,1.1875241
1570715373,5.3007627,-5.5258174,6.967127,0.14594568,-2.216883,1.2549198,-0.17238252,0.17238252,2.5713725
1570715373,6.775591,-5.4922986,5.650316,-0.56354207,-1.8056782,1.230418,1.9297266,0.33039984,0.6368576
1570715373,3.0454245,-7.2831616,1.6328455,-1.6437532,-1.6661245,1.3870167,-2.054225,0.1436521,-1.5035586
1570715373,3.4380736,-8.058883,2.6240451,-1.3582536,-1.1473248,1.4104532,-1.8243817,-0.20590134,-1.4317327
1570715373,4.999093,-8.595184,1.7381904,-0.6455699,-2.0219336,1.2708993,-0.46926352,-1.2401965,-1.2162545
1570715373,5.693412,-6.813898,0.29688102,-0.21518998,-1.4839586,1.0429257,0.90021986,0.94331545,-2.408567
1570715373,3.2513258,-7.335834,0.9816227,-0.01065297,-0.04154658,0.8351928,-0.9816227,0.8619126,-2.0590134
1570715373,2.2888567,-8.298303,4.606444,-0.045807768,0.057526033,0.7925809,-2.4947581,-0.047884032,0.89543146
1570715373,4.6160207,-8.049306,4.6112323,-0.19388404,-0.67646354,0.9577019,-0.5793968,-0.038307227,1.6232687
1570715373,5.5401826,-8.106767,2.408567,-0.7297284,0.08522376,0.9960526,1.4748282,0.36391866,-0.8714894
1570715373,4.8602295,-8.078036,3.2273839,-1.2559851,0.61361104,1.2538545,0.9768343,-0.18195933,0.91458505
1570715373,4.6016555,-9.174581,1.6041151,-1.4733057,0.29721785,1.2155038,0.90021986,0.23463176,-0.93852705
1570715374,2.5713725,-7.675811,1.3359646,-1.6565367,0.26845482,1.2282873,0.5746084,0.02873042,0.33039984
1570715374,1.3503298,-9.849746,1.1875241,-1.6352308,1.3816901,0.98007315,-1.4987702,-0.34476504,-1.733402
1570715374,1.2976574,-12.330139,-0.17717093,-0.60082746,-0.19814523,0.20134112,-1.7525556,-2.8682537,-1.3359646
1570715374,3.41892,-11.784261,-0.61291564,0.05113425,-0.005326485,-0.1747087,0.78529817,-2.4516625,-1.3359646
1570715374,3.2848446,-13.005303,0.29209262,0.39415985,0.5177343,-0.7563608,0.51714754,-3.7828386,-0.61291564
1570715374,4.0222588,-11.812991,1.1923125,0.58378273,0.6903124,-1.0333381,0.9816227,-2.6001031,-0.24899697
1570715374,6.0238113,0.4261679,6.895301,0.6935083,1.2868787,-0.8564987,0.01436521,1.4173675,-0.90979666
1570715374,3.1124623,-8.872911,3.9695864,-0.20240642,-0.01384886,0.61041516,0.49799395,1.3311762,3.9025488
1570715374,2.6144683,-10.213664,-1.4556746,-0.3163932,-0.31106672,0.5315832,-0.46926352,-1.0390835,-3.0550013
1570715374,2.5139117,-9.260772,2.4851813,0.19281875,-0.015979454,0.092680834,-0.50278234,-0.07182605,0.8379706
1570715374,2.9735985,-8.7532015,1.6280571,-0.033024207,-0.25141007,0.19814523,-0.023942016,0.4357447,-0.019153614
1570715374,2.7102363,-9.02614,1.661576,-0.15872924,-0.05646074,0.12890093,-0.2633622,0.17238252,0.038307227
1570715374,2.5617957,-9.758766,0.9624691,-0.10652969,-0.044742472,0.09055024,-0.39743748,-0.545878,-0.62728083
1570715374,1.5801731,-8.058883,2.5474305,-0.113986775,-0.005326485,0.07670138,-1.364695,1.1587936,0.9720459
1570715374,3.2752678,-5.741296,1.958457,-1.1686307,-0.12996623,-0.11824796,0.30645782,3.514688,0.6703765
1570715374,3.6296098,-7.7667904,-0.15801731,-1.2613115,0.22690825,0.36965802,0.6943185,1.541866,-1.1013328
1570715374,2.8299465,-6.919243,-0.2633622,-0.60082746,0.0085223755,0.49003658,0.04309563,2.456451,-0.9624691
1570715374,3.5673606,-9.524135,0.22984336,0.3440909,-0.059656627,0.26738954,0.8810662,-0.11492168,-0.47405192
1570715374,3.5003228,-9.169792,0.82360536,0.91722065,0.28763017,-0.01065297,0.842759,0.22505496,-0.08619126
1570715374,2.4851813,-10.55843,2.111686,1.1771531,0.32917675,-0.064983115,-0.16759412,-1.1971009,0.8571242
1570715374,2.006341,-10.927136,2.791639,0.6072193,0.17896989,-0.32917675,-0.7134721,-1.9871874,1.1540052
1570715374,3.3135753,-9.02614,1.982399,0.04900366,-0.10652969,-0.18536167,0.50278234,0.23942018,0.4357447
1570715374,3.2800562,-8.346188,1.4221559,0.10759499,-0.1033338,0.089484945,0.49799395,0.6607997,-0.01436521
1570715374,2.4181437,-9.165004,1.484405,0.43251055,0.07776668,0.07776668,-0.33518824,0.30645782,-0.110133275
1570715374,3.2273839,-9.557653,2.1452048,0.64450467,0.20347172,-0.3494174,0.21547815,-0.31124622,-0.023942016
1570715374,3.4141316,-9.902418,2.566584,0.40055165,0.09587672,-0.029828314,0.5267244,-0.7469909,0.5602432
1570715374,3.1986535,-9.840169,2.030283,0.19921052,-0.017044751,0.070309594,0.2873042,-0.6607997,0.22984336
1570715374,2.873042,-11.066,2.327164,-0.3771151,-0.43890235,0.11292148,-0.062249243,-2.5953147,0.7757214
1570715374,3.5865142,-10.1226845,1.4269443,-0.012783563,-0.36646214,0.29189137,0.79008657,-0.91458505,-0.36870706
1570715374,3.074155,-9.600749,2.2457612,0.17683929,-0.27165073,0.37604982,0.23463176,-0.15801731,-0.1388637
1570715374,2.9496565,-9.097966,1.9776106,0.2066676,-0.41653112,0.43570644,0.22505496,0.033518825,0.18674773
1570715374,2.6384103,-9.457097,2.4851813,0.12570503,-0.32917675,0.47086126,0.16280572,-0.038307227,0.5363012
1570715374,1.934515,-9.44752,2.3319526,-0.08522376,-0.32811147,0.4154658,-0.48841715,-0.23463176,0.49799395
1570715375,2.3654714,-9.313444,1.9536686,-0.16299044,-0.29828313,0.46553475,-0.076614454,-0.047884032,0.009576807
1570715375,2.528277,-9.241618,1.7860745,-0.17151281,0.036220096,0.6231987,0.23463176,0.12449849,-0.019153614
1570715375,2.207454,-7.2352777,3.41892,0.27058542,0.09374613,0.2865649,-0.1388637,1.2641385,1.3024458
1570715375,1.685518,-8.983045,3.2225955,-0.039415985,-0.1395539,0.40268224,-1.0247183,-0.20111294,0.41180268
1570715375,1.0151415,-7.953538,2.0015526,-0.13316211,-0.0010652969,0.37072334,-0.8331822,1.0869676,-0.05746084
1570715375,1.6376339,-7.038953,2.3223755,-0.2066676,-0.064983115,0.42718408,-0.10055647,3.0693667,0.641646
1570715375,1.9680338,-8.7292595,2.3942018,-0.19814523,-0.11079088,0.39629045,-0.4309563,0.91937345,1.0390835
1570715375,2.6767175,-8.7771435,3.5482068,-0.15446806,-0.14701098,0.43996763,1.067814,0.9624691,1.9919758
1570715375,1.6711528,-10.271125,3.394978,0.14168449,-0.16192514,0.42292288,-0.009576807,-0.80445176,1.7812861
1570715375,1.2306197,-10.261548,2.542642,0.24501829,-0.26952013,0.65089643,-0.11492168,-0.6943185,0.8331822
1570715375,0.46926352,-9.56723,2.1739352,0.17896989,-0.2077329,0.6988348,-0.7086837,0.0047884034,0.41180268
1570715375,1.0151415,-9.634268,2.873042,0.05219955,-0.40374753,0.6200028,0.0,-0.04309563,1.0869676
1570715375,0.89543146,-9.045294,2.528277,-0.07776668,-0.33343795,0.7329243,0.02873042,0.5602432,0.7613561
1570715375,-1.2210429,-10.635044,3.2273839,-0.05646074,-0.13209683,0.5219955,-1.8962077,-1.0055647,1.4796166
1570715375,-0.24420857,-10.275913,3.2321723,-0.19814523,-0.25354066,0.4452941,-0.80445176,-0.63206923,1.5227122
1570715375,-0.59376204,-11.477803,3.107674,-0.32704616,-0.40055165,0.54543203,-1.0103531,-1.8148049,1.4796166
1570715375,-0.11492168,-10.869676,1.9488802,-0.574195,-0.57739097,0.54223615,-0.40222588,-1.1779473,0.46926352
1570715375,-0.50757074,-11.022904,1.733402,-0.36220095,-0.40800872,0.6647453,-0.6368576,-1.3072342,0.39743748
1570715375,-0.36870706,-9.552865,2.825158,-0.18642697,-0.117182665,0.67326766,-0.31124622,0.16759412,1.5562311
1570715375,-0.08140286,-4.841076,4.4101195,-0.50814664,-0.15979454,0.3771151,0.1436521,4.88896,3.2321723
1570715375,0.7374141,-9.059659,3.3518825,-0.5550197,0.35580918,0.6200028,1.1492168,0.6847417,2.3511062
1570715375,2.6862943,-7.666234,3.145981,-0.5731298,0.35367858,0.49855897,3.265691,2.0829554,2.3080103
1570715375,1.1540052,-7.240066,2.2170308,-0.74357724,0.37391922,0.1384886,2.327164,2.0015526,4.2999864
1570715375,1.982399,-8.954314,5.482722,-0.28869548,0.6967042,-0.6359823,2.5474305,0.82360536,5.0134583
1570715375,3.5577838,-10.390836,6.1626754,0.56780326,-0.3771151,-0.7244019,3.8115692,-0.5410896,5.6886234
1570715375,1.8818425,-13.311762,5.602432,1.5617253,-1.3699719,-0.8607599,2.6431987,-2.7581203,5.0517654
1570715375,0.90500826,-15.629349,4.285621,1.9132733,-1.8632044,-1.7641318,0.320823,-6.0381765,2.9831753
1570715375,3.6631286,-15.868769,2.1930888,0.9332001,-1.1569124,-1.8706614,2.5905263,-6.291962,0.35913026
1570715375,1.8339585,-14.06354,0.92895025,0.5518238,-1.1025823,-1.1611737,1.0247183,-4.8745947,-0.9864111
1570715375,1.8387469,-8.748413,2.360683,0.7957768,-2.0965044,-0.85436815,-0.15322891,-0.7613561,0.2825158
1570715375,1.6663644,-2.1308396,0.62728083,1.6522756,-1.765197,-1.5201787,-0.22026655,7.5848308,-1.8531121
1570715375,0.7565677,-2.7629087,-0.0047884034,1.162239,-1.1345413,-1.5830313,-1.6663644,5.9807158,-2.15957
1570715375,-1.1923125,-3.715801,0.89064306,1.2975317,-0.9033718,-1.9697341,-4.213795,5.6407394,-1.9009962
1570715376,0.91937345,-5.535394,0.18674773,1.5521376,-0.5113425,-1.7481523,-3.4859576,3.3518825,-2.834735
1570715376,2.5761611,-6.459556,2.96881,1.7577399,0.15979454,-0.84584576,-1.7429788,2.4133554,-0.1388637
1570715376,5.2002063,-8.523358,3.0789435,1.384886,0.4527512,-0.043677174,0.29688102,-0.62728083,-0.94810385
1570715376,6.483498,-5.5258174,7.005434,0.5486279,0.57206446,0.36965802,2.1787236,1.4317327,1.9153614
1570715376,8.6813755,-3.8786068,11.343728,0.07563608,-0.64876586,0.6200028,4.865018,4.6495395,7.848193
1570715376,8.959103,-5.00867,5.7987566,0.23330003,-0.98007315,0.6785942,3.940856,2.0590134,-0.320823
1570715376,0.7422025,-10.31901,5.511452,-0.5219955,-0.9949873,1.2751604,-1.8291701,0.38307226,0.90500826
1570715376,2.6192567,-18.435352,4.687847,0.09907261,0.7680791,0.15340276,-1.4748282,-14.518439,2.4277205
1570715376,5.1235914,-7.192182,1.6998832,-0.04793836,1.5734435,0.0063917814,3.2752678,-1.3838485,-2.873042
1570715376,-0.19153613,-12.521675,2.1883004,-1.2826176,1.0056403,0.82027864,-4.0940847,-2.9592333,-1.388637
1570715376,0.8858546,-14.197616,5.118803,-1.3625147,2.0144765,0.839454,-2.1164744,-5.793968,0.9576807
1570715376,2.6479871,-14.259866,5.554548,-1.7321728,2.124202,1.2559851,0.19153613,-5.2720323,1.8579005
1570715376,1.910573,-13.852851,6.3206925,-2.1327245,2.5119703,1.266638,0.019153614,-4.7548847,3.1794999
1570715376,6.579266,-13.464991,8.274361,-2.8241022,1.5553335,1.4179102,5.257667,-4.414908,5.770026
1570715376,5.4539914,-14.403518,6.861782,-3.321596,1.8408331,2.1337898,4.7548847,-4.7740383,5.1140146
1570715376,2.408567,-11.702858,6.253655,-2.6195652,1.6501449,1.1366718,2.2697031,-1.9393034,5.3342814
1570715376,8.485051,-3.3997664,9.160215,-1.8685309,1.1206924,0.43570644,8.5473,6.4020953,8.90643
1570715376,9.481039,0.58418524,5.5880666,-0.74570787,0.08415846,0.41226992,9.667787,10.386047,5.66947
1570715376,8.279149,4.6495395,3.572149,0.3813763,-1.3998002,-0.064983115,8.523358,14.451402,3.691859
1570715376,2.384625,6.823475,1.1779473,1.9750605,-1.6948874,-0.25460598,2.566584,16.620548,0.90021986
1570715376,-3.8498764,3.6631286,3.107674,2.9316971,-1.298597,-0.5219955,-3.8019924,13.412318,2.0494366
1570715376,-4.697424,-6.8809357,4.7070007,2.5822797,-1.4509344,-1.804613,-5.046977,2.7389667,2.8395233
1570715376,-3.6774938,-14.317327,4.927267,2.0581536,-2.2158177,-3.7498453,-5.0038815,-4.912902,2.4708161
1570715376,3.9695864,-33.810917,7.2831616,2.2722783,-3.2385027,-5.4117084,1.0821792,-24.880545,4.4196963
1570715376,14.33648,-18.358738,-4.630386,3.081904,-1.5350928,-2.4704237,10.271125,-10.0748005,-7.9583263
1570715376,14.33648,-9.706094,6.5265937,3.6070955,-2.3415227,-3.1969562,9.375694,-2.2170308,2.585738
1570715376,11.664551,-18.243816,13.244724,1.5670518,0.14701098,-1.4562609,9.155427,-11.760319,9.907207
1570715376,1.043872,-14.470555,-0.02873042,1.6544062,-0.60615396,-0.80749506,-4.620809,-7.953538,-4.673482
1570715376,3.0693667,1.1252748,4.9416323,-0.51666903,-1.1143006,0.49749365,-2.767697,7.551312,0.3878607
1570715376,-0.47405192,0.866701,2.2361844,-1.600076,-0.63917816,1.9154038,-7.216124,7.943961,-1.9057846
1570715376,-8.925584,1.7286136,2.4181437,-1.6149901,0.070309594,2.3436532,-12.421119,8.485051,-1.8531121
1570715376,-5.33907,0.31124622,0.5746084,-1.2218956,2.245646,1.1920673,-9.993398,8.149862,-3.0310593
1570715376,2.3894134,-2.9975405,-1.1109096,-0.87993526,2.245646,0.33237264,-3.3183637,5.5258174,-4.0797195
1570715376,11.573571,-8.1163435,-3.620033,-1.5372235,2.271213,-0.36220095,6.066907,1.6711528,-6.2009826
1570715377,4.4915223,-48.731583,11.36767,-0.092680834,1.4296285,0.3451562,5.1906295,-34.88352,9.260772
1570715377,-1.2976574,0.37828386,5.8705826,-0.98753023,0.32811147,0.24501829,-7.3166804,7.1107793,1.2641385
1570715377,-2.0159178,-13.057976,2.873042,-1.660798,3.7583675,1.1579778,-5.8322754,-0.59376204,-1.8962077
1570715377,7.0102224,-17.750612,7.1107793,-2.6195652,2.0549579,0.5550197,4.7979803,-12.976573,3.4763808
1570715377,14.30775,-12.607866,9.9790325,-3.2225232,0.5475626,1.3124459,11.654974,-4.936844,11.592725
1570715377,4.8267107,-11.822568,9.3661175,-3.3887095,1.7332381,2.245646,3.2944214,-1.9393034,6.7708025
1570715377,7.1347213,-9.246407,10.184934,-2.9402196,1.0322727,1.4211061,5.5880666,-3.371036,9.040505
1570715377,7.632715,-2.087744,5.93762,-2.2658865,0.4825795,1.0333381,7.225701,8.236053,7.8529816
1570715377,7.881712,2.542642,3.9983168,-0.66368,-0.33024204,0.96409374,6.981492,11.070788,5.793968
1570715377,9.56723,7.771579,3.7062242,1.610729,-1.1771531,0.62639457,9.471462,17.166426,2.3175871
1570715377,0.30645782,9.753978,4.807557,2.6675036,-2.245646,-0.5230608,1.9776106,19.541473,5.473145
1570715377,-4.534618,1.0821792,4.3766007,3.5069575,-2.5013173,-1.1899366,-5.2241483,13.560759,2.9257145
1570715377,-3.5817258,-13.302185,3.8067808,2.791078,-2.7175725,-2.2104912,-4.7979803,-3.8019924,1.6807296
1570715377,-6.363788,-34.94098,23.563734,3.5325246,-2.733552,-3.2928329,-8.566454,-25.814283,20.719421
1570715377,13.9198885,-36.521152,-7.627927,2.8858893,-1.5297664,-5.574699,5.056554,-31.76148,-6.0046577
1570715377,17.477673,-10.912771,-4.2425256,4.722461,-2.0027583,-2.001693,14.642938,-10.175357,-9.605537
1570715377,13.541605,-11.903971,16.385916,1.7598705,-0.15766394,-1.5052645,8.054094,-5.1666875,11.832145
1570715377,3.9360676,-18.741812,2.1739352,1.0141627,-0.9150901,-0.9907262,-1.8674773,-12.354081,-2.4756045
1570715377,-1.1444284,-0.3878607,1.958457,0.4932325,-0.6551576,-0.42505348,-7.177817,2.4229321,-4.630386
1570715377,-6.229713,1.6759412,-0.9911995,-2.0325866,-1.2208303,1.043991,-12.430696,7.872135,-5.377377
1570715377,-11.745954,3.763685,3.6056678,-2.4853377,-0.39096397,2.4991865,-17.654844,10.620679,-0.15801731
1570715377,-2.5713725,1.3215994,-3.5338416,-2.1146145,1.3763636,2.0666761,-7.872135,8.834604,-6.933608
1570715377,6.483498,-2.3654714,-1.6903064,-1.1249535,1.9473628,0.16299044,1.6089035,5.4683566,-5.00867
1570715377,12.243947,-6.8426285,-2.753332,-0.3835069,1.219765,-1.6778426,7.2687964,0.89064306,-6.1530986
1570715377,12.765883,-66.5205,18.119318,0.58484805,1.1196271,0.10120321,7.843405,-58.93088,14.322115
1570715377,-9.749189,6.4164605,3.1172507,-0.31106672,0.43251055,0.45914298,-14.810532,13.9438305,-0.59855044
1570715377,-0.8858546,-10.103531,3.3662477,-2.8251674,2.5876062,0.5187996,-5.583278,-2.2888567,-0.24899697
1570715377,17.290924,-33.868378,11.032481,-3.494174,2.1316593,0.41866168,13.01488,-25.646688,7.809886
1570715377,13.383588,-11.832145,9.648633,-2.662177,0.43570644,2.4384646,9.624691,-3.1172507,7.1730285
1570715377,7.5944076,-6.9479733,12.5025215,-3.701907,1.6096637,1.6895609,5.2049947,1.2018893,10.888829
1570715377,5.4061074,-5.3582234,9.251195,-3.310943,0.9523755,1.1217576,1.6807296,2.1260512,6.555324
1570715377,7.393295,1.4317327,4.630386,-2.3287392,0.74996907,0.9289389,4.1706996,10.658986,3.442862
1570715377,8.365341,9.677363,4.865018,0.56993383,0.31745848,0.96302843,5.2145715,18.50239,3.3997664
1570715378,3.3614593,8.748413,5.8801594,1.7992865,-0.9672896,0.7467731,3.1124623,18.818426,7.73806
1570715378,-4.4340615,5.133168,0.023942016,2.2115564,-1.8493555,-0.18855755,-5.2768207,16.639702,0.9816227
1570715378,-3.0262709,-5.2145715,0.7661445,2.8251674,-1.8291148,-1.1696961,-5.48751,5.693412,-1.163582
1570715378,-3.7253778,-11.9374895,1.9393034,2.3084984,-1.9100775,-2.109288,-5.985504,-1.3215994,0.89064306
1570715378,2.8874073,-33.92105,26.326641,4.583973,-2.4810765,-3.1309078,-2.8060043,-14.858416,18.511967
1570715378,19.077,-0.8331822,11.597513,2.557778,-1.5510724,-1.6959528,13.311762,5.66947,7.0485296
1570715378,17.310078,-6.646304,13.479356,2.00915,-1.5627906,-1.3710371,13.311762,5.66947,7.0485296
1570715378,12.674904,-12.871228,14.312538,1.5915536,-1.600076,-1.1462595,9.11712,-4.735731,9.615114
1570715378,1.4269443,-17.353174,-0.6991069,1.0610358,-0.7989727,-1.2570504,-2.456451,-11.243171,-0.93373865
1570715378,-2.7102363,-0.23942018,5.032612,0.4932325,0.23223473,0.08202787,-9.816227,4.2185836,-2.1691468
1570715378,-9.203311,0.7374141,4.9703627,-2.644067,-1.2932705,2.2179482,-14.082694,5.932832,-0.8283938
1570715378,-6.229713,4.1706996,2.1547816,-2.7101154,0.70735717,2.0400436,-13.88637,11.645397,-0.29688102
1570715378,2.7102363,-0.6464345,-3.2800562,-1.8429637,1.6991487,0.88952297,-3.8977604,7.091625,-7.153875
1570715378,6.6175733,-6.5984197,-2.3080103,-1.4051267,0.40481284,-0.15020686,0.46926352,2.2361844,-4.060566
1570715378,16.74026,-50.666096,15.409082,0.5283873,3.2587433,-2.2658865,5.195418,-25.895685,9.414001
1570715378,-6.397307,-0.16759412,2.0733786,0.094811425,0.7925809,-0.18642697,-7.627927,5.616797,-3.0597897
1570715378,-4.4340615,-9.792285,0.0,-2.127398,1.9921052,2.898673,-13.460202,1.5131354,-6.694188
1570715378,9.346964,-32.25947,11.899182,-3.486717,3.716821,0.8820659,4.721366,-24.339455,8.418014
1570715378,23.013067,-10.970232,10.400413,-3.9884717,-0.8714129,0.21305938,18.550274,-2.7006595,7.5800424
1570715378,3.9600096,-7.5704656,15.433024,-3.5026963,2.0560231,2.67283,0.062249243,1.1971009,13.412318
1570715378,7.3406224,-5.1235914,9.864111,-3.5591571,0.2119941,1.1185617,2.6431987,1.340753,11.137826
1570715378,9.753978,-1.6472107,1.4556746,-3.142626,0.3898987,1.0567746,6.7708025,7.690176,1.2210429
1570715378,10.433931,10.0987425,2.825158,0.022371236,-0.22903883,1.6448184,7.833828,19.55105,2.9975405
1570715378,4.1659107,7.5465236,8.0924015,1.7002139,-1.2453321,1.5734435,2.054225,17.118542,7.9248075
1570715378,-7.0581064,7.73806,1.8052281,2.4640317,-2.704789,-0.18536167,-9.030929,17.324444,1.2210429
1570715378,-5.12838,-4.4340615,2.432509,4.50088,-2.5620391,-1.3721025,-7.4363904,4.975151,0.92416185
1570715378,-3.3087866,-12.042834,9.801862,4.418852,-2.5908022,-2.404375,-6.339846,-3.0597897,7.2831616
1570715378,1.2737153,-37.110126,20.355503,3.4792597,-2.3702857,-5.086793,-0.9528923,-28.893227,17.017986
1570715378,15.897499,-20.915747,-6.0525417,2.6216958,-2.2488418,-3.4590192,10.309433,-13.656527,-9.552865
1570715378,20.408175,-2.944868,8.212111,4.1898127,0.8980453,-2.101831,14.341269,3.4572272,3.9264908
1570715378,16.472107,-12.909535,11.128249,2.489599,-0.3451562,-1.4818281,10.0508585,-7.2783732,6.301539
1570715378,3.1364043,-13.55597,2.1883004,1.3902125,-0.7222713,-0.7680791,-3.5051112,-8.327033,-2.7820623
1570715378,-1.2258313,0.47405192,2.767697,-0.33237264,-1.1164312,-0.15659864,-8.054094,5.5018754,-2.1499932
1570715379,-9.739613,-0.34955344,3.8307228,-1.9292527,-1.5063299,1.550007,-16.64449,5.0517654,-0.5554548
1570715379,-12.306197,-1.6519991,1.7812861,-2.119941,-0.24608359,2.174271,-19.6133,4.644751,-1.4700398
1570715379,-1.7908629,0.62249243,-0.3878607,-1.951624,1.7822418,1.1451942,-9.931149,7.0724716,-3.7205894
1570715379,7.9822683,-2.4516625,-0.61291564,-0.9747467,0.9694202,-0.02450183,0.59376204,5.185841,-4.0078936
1570715379,13.206416,-33.767822,9.121908,-1.2762257,3.5208063,-0.88845766,2.4181437,-15.006856,-12.516887
1570715379,-4.285621,-0.12928689,-1.7956513,-0.6796594,0.8437152,-0.83732337,-1.5897499,-1.1444284,-6.5026517
1570715379,-5.889736,-6.5840545,8.556877,-2.6664383,1.392343,1.0088362,-16.917429,5.5641246,2.3654714
1570715379,16.424223,-28.85013,13.144167,-3.7221475,2.7463355,0.67646354,9.02614,-20.84871,5.056554
1570715379,18.195932,-5.851429,9.457097,-4.4529414,0.5241261,1.4807627,13.656527,-0.9720459,8.7053175
1570715379,9.232041,-10.079589,13.40753,-4.23349,1.503134,2.7431395,5.765238,-1.5275006,11.722012
1570715379,8.839393,-9.916783,9.902418,-3.8190894,0.7584914,1.5350928,4.357447,-3.4620156,10.065224
1570715379,5.971139,-0.94331545,4.6495395,-3.3748608,0.36007038,0.68605125,2.60968,6.9479733,4.7740383
1570715379,8.7532015,11.204864,3.3662477,-0.11292148,-0.08522376,1.0418605,3.8307228,18.631678,2.4181437
1570715379,6.0381765,10.611102,12.176909,1.7556094,-0.3185238,1.2314832,4.8506527,19.541473,10.16578
1570715379,-4.4436383,8.815451,1.4939818,2.522623,-2.418224,0.33769912,-5.645528,18.995596,4.3143516
1570715379,-2.777274,-0.79966336,1.0965444,4.168507,-2.6856136,-0.46340418,-5.961562,10.793061,-0.23463176
1570715379,-2.791639,-9.792285,6.2249246,3.4952393,-2.4246159,-1.3188376,-5.6982,0.8331822,4.0701427
1570715379,-0.320823,-24.540567,24.976313,5.215694,-3.2246537,-2.3255432,-6.129156,-7.177817,15.562311
1570715379,19.517532,-54.238247,-4.146757,3.3642077,-2.7026584,-5.0857277,11.18571,-49.042828,3.2225955
1570715379,14.274231,1.9201498,-2.6144683,5.2284775,-0.84158456,-1.7620012,7.16824,1.0821792,-9.840169
1570715379,15.500062,-8.686164,16.893488,2.3415227,-0.8767394,-1.1473248,9.3182335,-2.6910827,12.196063
1570715379,6.9383965,-15.131354,5.0613422,1.062101,-1.5521376,-0.8735435,0.35913026,-9.509769,0.4405331
1570715379,-2.3127987,-6.5505357,-5.5497594,1.5649211,0.64876586,-0.20027582,-9.035717,-1.2785037,-10.357317
1570715379,-13.517663,-2.528277,2.0446482,-2.2808008,-1.5446806,1.3635801,-20.221428,2.9975405,-2.4947581
1570715379,-10.960655,5.0278234,3.9983168,-2.5780187,0.38883337,2.195577,-17.420212,11.295844,0.10534488
1570715379,3.0119057,-0.5746084,-5.094861,-1.6501449,2.3937223,0.92041653,-2.9592333,6.2105594,-8.887277
1570715379,11.27669,-4.060566,0.20590134,-0.9949873,1.1601083,-0.61787224,5.506664,2.8634653,-3.6535518
1570715379,6.7947445,-9.188946,-3.1603463,-1.6032718,1.7098016,-0.6647453,0.9576807,-2.27928,-6.95755
1570715379,21.461624,-66.08955,19.637243,0.868217,0.50921196,0.011718267,16.031574,-58.997917,15.586253
1570715379,-11.736377,10.01734,3.845088,-0.4431635,0.907633,0.61787224,-17.429789,17.00362,-0.0047884034
1570715379,8.384495,-14.188039,5.2720323,-3.4845862,2.7537925,1.4839586,3.3375173,-6.8091097,1.2306197
1570715379,29.051243,-23.300371,10.745177,-5.589613,2.160422,0.60189277,24.521414,-15.217546,7.52737
1570715379,8.537724,-16.060305,9.543288,-3.2129354,0.117182665,3.13943,4.5872903,-7.3789296,7.240066
1570715379,-2.6192567,-7.240066,11.903971,-4.183421,1.2048508,1.4104532,-5.8945246,1.910573,10.611102
1570715380,4.381389,0.038307227,7.038953,-3.8936603,1.5393541,0.6200028,1.364695,9.361329,6.7324953
1570715380,12.694057,16.01721,0.16280572,-0.7329243,-0.21412468,0.22158176,9.763555,25.368961,0.4357447
1570715380,5.425261,10.266336,8.690952,1.8269843,-0.5997622,1.0013791,2.705448,19.685127,8.686164
1570715380,-4.1036615,6.483498,2.6048915,2.4832072,-1.9974318,0.30467492,-5.094861,16.543934,4.5777135
1570715380,-2.432509,-5.401319,0.2633622,3.9511864,-1.8056782,-0.9672896,-5.2385135,3.8881836,-1.1300632
1570715380,-0.19632454,-9.452309,2.2601264,3.5026963,-2.2371235,-1.7311075,-3.2561142,-1.0486604,1.0007763
1570715380,2.4899697,-39.29364,25.694572,5.151776,-2.7836208,-2.7761638,-3.53863,-23.898922,20.982784
1570715380,18.2917,-32.767044,-8.293514,2.7474008,-2.5236886,-4.248404,11.947066,-29.735985,-7.9343843
1570715380,17.314867,4.3478703,8.259995,4.043867,1.0013791,-2.1966424,11.348516,10.850522,3.9791632
1570715380,17.219099,-15.342045,11.45865,2.3106291,-1.2964664,-1.3752984,10.912771,-9.500193,6.727707
1570715381,3.098097,5.707777,2.4516625,-2.9295666,0.8618252,0.9704855,0.25857377,12.291832,4.630386
1570715381,3.098097,5.707777,2.4516625,-2.9295666,0.8618252,0.9704855,0.25857377,12.291832,4.630386
1570715381,3.098097,5.707777,2.4516625,-2.9295666,0.8618252,0.9704855,0.25857377,12.291832,4.630386
1570715381,3.098097,5.707777,2.4516625,-2.9295666,0.8618252,0.9704855,0.25857377,12.291832,4.630386
1570715381,3.098097,5.707777,2.4516625,-2.9295666,0.8618252,0.9704855,0.25857377,12.291832,4.630386
1570715381,3.098097,5.707777,2.4516625,-2.9295666,0.8618252,0.9704855,0.25857377,12.291832,4.630386
1570715381,3.098097,5.707777,2.4516625,-2.9295666,0.8618252,0.9704855,0.25857377,12.291832,4.630386
1570715381,3.098097,5.707777,2.4516625,-2.9295666,0.8618252,0.9704855,0.25857377,12.291832,4.630386
1570715381,3.098097,5.707777,2.4516625,-2.9295666,0.8618252,0.9704855,0.25857377,12.291832,4.630386
1570715381,3.098097,5.707777,2.4516625,-2.9295666,0.8618252,0.9704855,0.25857377,12.291832,4.630386
1570715381,3.098097,5.707777,2.4516625,-2.9295666,0.8618252,0.9704855,0.25857377,12.291832,4.630386
1570715381,4.0414124,7.4603324,-0.29688102,-2.2392542,0.28549957,0.87567407,1.4030021,16.883911,0.31124622
1570715381,4.0414124,7.4603324,-0.29688102,-2.2392542,0.28549957,0.87567407,1.4030021,16.883911,0.31124622
1570715381,11.133038,14.939818,2.1883004,0.23330003,-0.21625528,0.5923051,8.623915,24.387339,2.9257145
1570715381,11.133038,14.939818,2.1883004,0.23330003,-0.21625528,0.5923051,8.623915,24.387339,2.9257145
1570715381,11.133038,14.939818,2.1883004,0.23330003,-0.21625528,0.5923051,8.623915,24.387339,2.9257145
1570715381,11.133038,14.939818,2.1883004,0.23330003,-0.21625528,0.5923051,8.623915,24.387339,2.9257145
1570715381,11.133038,14.939818,2.1883004,0.23330003,-0.21625528,0.5923051,8.623915,24.387339,2.9257145
1570715381,11.133038,14.939818,2.1883004,0.23330003,-0.21625528,0.5923051,8.623915,24.387339,2.9257145
1570715381,11.133038,14.939818,2.1883004,0.23330003,-0.21625528,0.5923051,8.623915,24.387339,2.9257145
1570715381,11.133038,14.939818,2.1883004,0.23330003,-0.21625528,0.5923051,8.623915,24.387339,2.9257145
1570715381,11.133038,14.939818,2.1883004,0.23330003,-0.21625528,0.5923051,8.623915,24.387339,2.9257145
1570715381,11.133038,14.939818,2.1883004,0.23330003,-0.21625528,0.5923051,8.623915,24.387339,2.9257145
1570715381,11.133038,14.939818,2.1883004,0.23330003,-0.21625528,0.5923051,8.623915,24.387339,2.9257145
1570715381,11.133038,14.939818,2.1883004,0.23330003,-0.21625528,0.5923051,8.623915,24.387339,2.9257145
1570715381,11.133038,14.939818,2.1883004,0.23330003,-0.21625528,0.5923051,8.623915,24.387339,2.9257145
1570715381,11.133038,14.939818,2.1883004,0.23330003,-0.21625528,0.5923051,8.623915,24.387339,2.9257145
1570715381,6.129156,10.089166,11.003751,2.0048888,-0.5102772,0.50921196,5.9902925,21.049822,10.089166
1570715381,-3.6535518,4.5920787,-0.12928689,3.3152041,-1.9537545,-0.0692443,-4.8841715,15.605407,1.6663644
1570715381,-0.038307227,-6.742072,5.4683566,3.827612,-1.7822418,-0.6796594,-3.9456444,3.9743748,2.4037786
1570715381,-1.5131354,-13.651738,9.691729,4.937651,-2.8965423,-1.2037855,-4.1276035,-0.45010993,4.074931
1570715381,2.2888567,-38.254555,18.119318,4.2814283,-3.5399816,-4.2313595,-3.2082303,-27.724855,22.744917
1570715381,17.865534,-26.695349,-7.714118,4.696894,-3.3375752,-3.5975077,14.192827,-25.445576,-14.020445
1570715381,20.130447,1.3072342,13.642161,3.9650352,0.76168734,-2.116745,13.397953,11.99495,4.1515455
1570715381,9.715671,-14.5759,10.448297,2.3575022,-0.70948774,-1.2559851,6.3542113,-8.355764,6.0285997
1570715381,-0.9959879,-11.262324,-1.8100165,1.998497,0.2418224,-1.043991,-6.8761473,-9.112331,-6.9479733
1570715381,-6.1243677,-1.1779473,-1.316811,-1.3390783,-1.9004897,0.39309457,-12.852075,4.462792,-4.5920787
1570715381,-18.066647,-0.48841715,4.999093,-2.9274359,-1.0194892,2.4235506,-25.718515,4.8219223,2.7964275
1570715381,-3.016694,1.1204864,-2.4181437,-2.9199789,1.1377372,2.1518998,-9.279925,7.536947,-6.3781533
1570715381,8.781932,-1.5610195,-1.733402,-1.5659865,1.6554714,0.1054644,2.8874073,5.291186,-5.535394
1570715381,12.440272,-7.038953,-1.0486604,-0.71587956,0.3813763,-1.3412088,6.4643445,-0.22026655,-4.7884035
1570715381,27.499802,-84.51053,19.057846,0.19068815,3.4515622,-0.85330284,21.65316,-77.811554,14.911088
1570715381,-11.45865,11.57836,2.303222,-1.054644,0.06178722,-0.036220096,-17.530344,18.148048,-1.7046716
1570715381,1.6376339,-11.535264,5.741296,-3.7359962,2.6387405,1.2463974,-4.0892963,-4.5441947,1.934515
1570715381,20.580557,-29.410374,15.188815,-4.4785085,2.3042374,1.0013791,15.418659,-21.71062,11.980585
1570715381,18.411411,-6.493075,10.658986,-3.8585055,0.0063917814,2.7921433,13.723564,1.8435353,8.48984
1570715381,3.0502129,-10.793061,12.943054,-4.0310836,0.7222713,2.8464735,-0.79487497,-1.8626889,11.645397
1570715381,6.1866174,-3.6343982,8.480263,-4.416721,0.8905882,0.5912398,2.695871,5.5258174,8.255207
1570715381,5.7508726,11.224017,-0.6943185,-2.3511102,-0.16192514,0.7968421,2.4181437,20.417751,0.033518825
1570715381,8.39886,11.559206,8.51857,1.3880819,0.1736434,1.5340276,5.4061074,20.87265,9.179369
1570715381,-4.9320555,8.983045,4.462792,2.2115564,-1.8610737,0.57632565,-7.5800424,18.420988,4.697424
1570715381,-3.9360676,2.8203697,0.1340753,4.003386,-2.331935,-0.5891092,-7.1347213,14.528016,-0.272939
1570715381,-0.36391866,-11.702858,1.6472107,4.0151043,-2.1732059,-1.3422742,-3.7301662,-1.2018893,2.1930888
1570715381,0.5602432,-37.019146,28.802246,5.4660387,-2.313825,-1.6490797,-3.0454245,-28.289886,26.159048
1570715381,8.748413,-40.744526,4.5154643,3.0542064,-2.8326244,-5.141123,0.40701428,-33.08308,5.81791
1570715381,16.352398,-0.46447513,-2.815581,4.6265845,-1.5297664,-1.8717268,10.496181,6.517017,-6.4404025
1570715382,16.697163,-9.217676,8.968679,2.966852,-1.7002139,-1.0929947,10.496181,-2.9400797,4.6830587
1570715382,3.8546648,-15.605407,5.530606,1.6991487,-0.8671517,-0.7307937,0.24899697,-8.054094,2.0254946
1570715382,-4.213795,-5.78918,0.90979666,1.5052645,0.23756121,-0.4847101,-10.103531,-4.1706996,-5.5162406
1570715382,-10.893618,0.9768343,0.6607997,-1.747087,-2.1412468,1.628839,-15.777789,6.2392898,-5.5258174
1570715382,-11.741165,2.834735,0.61770403,-2.6877441,-0.14701098,2.1859894,-19.709068,8.973468,-1.412579
1570715382,0.9768343,0.81402856,-4.381389,-2.163618,2.095439,0.55075854,-6.823475,8.154651,-8.7532015
1570715382,9.763555,-3.9839516,4.4101195,0.0042611877,0.10120321,-0.82880104,2.5091233,3.6343982,1.0151415
1570715382,11.022904,-22.093693,-17.391481,-0.059656627,3.4920433,-0.5901745,7.0820484,-4.8362875,-17.123331
1570715382,5.377377,-7.6135616,-2.9879637,-0.14381509,-1.6437532,-1.5958148,9.346964,-24.167072,5.827487
1570715382,-17.879898,15.389929,6.847417,-0.9108289,0.3398297,1.5297664,-23.113623,24.05215,3.0502129
1570715382,9.428367,-36.35835,3.0119057,-3.4291909,1.553203,2.5311456,-2.6671407,-20.245369,-3.2944214
1570715382,26.886885,-11.678916,15.634137,-5.582156,1.3827554,1.015228,21.11207,-11.9853735,14.259866
1570715382,7.8050976,-6.8426285,10.491392,-4.1088505,1.2623769,2.992419,8.331821,3.1316159,6.9000893
1570715382,1.5514427,-10.783484,10.271125,-4.187682,1.0067056,1.3028581,-2.9017725,-2.8778305,8.916007
1570715382,6.6367273,1.1587936,4.984728,-3.8031101,1.2645074,0.90869826,3.394978,10.414778,5.0517654
1570715382,11.827356,18.05228,2.255338,0.19175345,0.13529271,1.1206924,8.887277,27.389668,2.767697
1570715382,-0.80924016,9.26556,7.0006456,1.8269843,-1.3305559,0.5347791,-0.8858546,19.910181,10.927136
1570715382,-3.8307228,0.7326257,0.05267244,3.8148284,-1.8877062,-0.5283873,-6.6654577,12.756307,-0.641646
1570715382,-2.303222,-9.078813,2.3558946,3.5612876,-1.2623769,-1.0013791,-5.2145715,0.18195933,0.9720459
1570715382,-0.17717093,-10.084377,8.920795,3.8883338,-1.6085984,-2.1284633,-3.41892,-0.35913026,2.954445
1570715382,7.240066,-35.338417,23.884556,5.244457,-2.9253054,-3.3919055,3.0262709,-27.068844,20.709845
1570715382,20.269312,-32.02484,-6.9527617,3.3535547,-1.9100775,-3.8158937,14.762648,-24.736893,-10.529699
1570715382,17.51119,7.656657,7.52737,3.9884717,1.1633042,-2.0634801,11.496957,14.053964,3.1603463
1570715382,12.947843,-12.425907,8.762778,2.160422,-1.9601463,-0.8671517,6.6510925,-6.6079965,3.9935284
1570715382,-1.1061212,-15.768212,-5.3199162,1.356123,-1.1515859,-0.88313115,-7.819463,-10.352529,-9.983821
1570715382,-6.6750345,0.25378537,1.9680338,-0.26525894,-0.4495553,0.28549957,-13.40753,5.473145,-2.882619
1570715382,-18.598158,1.2689269,8.030152,-2.1795976,-1.6213819,2.2573643,-25.28277,7.005434,3.7205894
1570715382,-4.0557775,0.62249243,-3.0454245,-2.4033098,1.5574641,1.728977,-10.323798,7.062895,-6.9623384
1570715382,9.844957,-2.633622,-0.19153613,-0.9960526,1.7747847,-0.36007038,3.9073372,4.1180267,-4.098873
1570715382,13.254301,-4.936844,1.910573,-0.574195,0.7797974,-1.3934084,7.192182,1.685518,-2.030283
1570715382,26.05849,-75.48439,20.245369,0.5891092,3.168193,-0.36113566,20.254946,-68.88597,15.8783455
1570715382,-11.33894,9.193734,2.7964275,-0.3504827,0.74038136,0.6785942,-17.27656,15.629349,-1.6089035
1570715382,2.5809495,-9.706094,5.602432,-3.3748608,1.6437532,1.1707613,-2.9400797,-2.825158,1.3215994
1570715382,20.87744,-29.951464,15.298949,-4.1450706,2.7474008,0.42931467,15.897499,-22.395363,11.506534
1570715383,15.787366,-9.299079,8.920795,-4.847101,-0.07563608,2.3617632,12.923901,-1.4700398,6.315904
1570715383,6.38773,-11.104307,17.630901,-4.542426,1.7385646,2.5204926,3.5913026,-2.657564,14.848839
1570715383,3.8307228,-6.967127,8.887277,-4.830056,1.424302,1.0823417,-0.6799533,1.283292,9.615114
1570715383,8.7292595,11.200075,-0.7326257,-2.8443427,0.24714889,0.5262567,4.697424,15.916653,2.303222
1570715383,10.644621,12.320562,5.693412,0.89698005,-0.37072334,1.266638,9.203311,23.233334,3.1651347
1570715383,-0.4357447,10.548853,8.643068,2.4512482,-1.9292527,0.2769772,-1.757344,20.09214,9.5385
1570715383,-5.463568,-1.9153614,-0.02873042,4.1088505,-2.43953,-0.4570124,-8.288726,10.299856,-0.5793968
1570715383,-0.79008657,-8.121132,8.499416,3.992733,-1.8802491,-0.9140248,-4.855441,1.0295067,4.309563
1570715383,-0.6560113,-14.93503,16.989256,4.660674,-2.8059921,-1.940971,-5.305551,-1.5227122,6.7708025
1570715383,13.488933,-55.62688,9.797073,3.3929708,-3.5367858,-4.942978,5.779603,-40.73016,18.26776
1570715383,11.319786,-5.841852,-6.143522,4.896105,-0.703096,-2.0229988,6.7803793,-9.916783,-12.157756
1570715383,15.911864,-6.6510925,14.800955,2.5748227,-0.7840586,-0.9385266,10.309433,5.2385135,9.610326
1570715383,7.5082164,-14.84405,5.482722,1.5169828,-1.4157796,-0.60402334,3.4093432,-6.2967505,3.8977604
1570715383,-3.8833952,-6.5936313,-4.3143516,1.8216578,0.7169448,-0.6285252,-9.940725,-5.0182467,-9.131485
1570715383,-14.743494,2.9879637,2.327164,-1.6213819,-1.4072572,0.77340555,-18.555063,7.656657,-5.094861
1570715383,-12.081141,0.9576807,2.2361844,-2.1401815,-0.25993246,2.00915,-23.333889,7.359776,-1.1875241
1570715383,5.2385135,-2.815581,-6.253655,-2.163618,2.4874682,1.0493175,-3.1794999,3.9456444,-10.366894
1570715383,14.777013,-7.2927384,3.4763808,-0.8671517,0.36539686,-0.3920293,7.5800424,0.05746084,-1.958457
1570715383,12.981361,-31.933863,-10.146626,-1.4509344,3.5740712,-0.8309316,7.005434,-11.860875,-23.467964
1570715383,1.364695,-10.170568,-3.6631286,-0.3877681,-1.6149901,-2.24245,-4.7022123,-3.7014358,-7.848193
1570715383,-19.383457,10.477027,2.9735985,-1.704475,0.72333664,2.073068,-25.3115,17.199945,-0.9959879
1570715383,17.391481,-27.542896,5.2049947,-3.9192274,2.3649592,1.13028,12.0571995,-20.135237,1.6089035
1570715383,22.601265,-8.283937,8.360553,-5.816521,0.9097636,1.2144386,17.635689,-0.33039984,5.4779334
1570715383,6.909666,-11.15698,13.474567,-4.3346934,1.4647833,2.8677793,2.7150247,-2.504335,11.525687
1570715383,6.301539,-7.714118,11.391612,-4.639368,0.6711371,1.4413468,2.7724855,1.3982137,10.577583
1570715383,6.6415157,1.6711528,4.7070007,-3.724278,1.1249535,0.4932325,3.347094,10.903194,4.975151
1570715383,10.070012,15.562311,3.2992098,0.47512242,0.16512102,0.89698005,6.9240313,24.827871,3.8977604
1570715383,1.0103531,11.971008,8.959103,2.1071572,-0.5933704,1.434955,-1.70946,21.389797,9.11712
1570715383,-2.504335,5.9041014,1.3551182,4.1205688,-2.6792219,-0.14061919,-5.104438,15.337256,0.7757214
1570715383,-1.0486604,-5.48751,8.604761,4.4071336,-2.3979833,-0.9310695,-3.9073372,3.7445314,6.9479733
1570715383,-1.7812861,-8.408437,5.544971,4.09074,-3.7210822,-2.2371235,-5.2480903,0.4357447,3.1172507
1570715383,8.212111,-42.67904,30.363266,5.4404716,-3.609226,-3.8574402,3.6966474,-34.63452,27.030537
1570715383,11.013328,-22.562958,-10.271125,5.07614,-0.6551576,-2.5524514,5.291186,-15.638926,-14.207192
1570715384,18.215086,2.6001031,8.872911,4.828991,0.015979454,-2.4278116,9.859323,9.097966,-0.62249243
1570715384,13.077129,-12.076353,10.395624,1.8173965,-1.1633042,-1.0961906,6.5361705,-6.9048777,5.2241483
1570715384,0.34476504,-11.722012,-4.237737,1.7992865,-0.4570124,-0.6700718,-3.8307228,-9.174581,-6.631939
1570715384,-4.247314,-0.25378537,0.641646,-1.3934084,-1.395539,0.34302562,-9.610326,3.7493198,-2.3798366
1570715384,-17.013197,-1.4460979,4.6686935,-2.607847,-1.5468111,2.486403,-22.175097,4.0078936,-0.39743748
1570715384,-5.875371,0.20590134,-1.8626889,-2.8059921,1.2272221,2.5599086,-15.217546,6.373365,-4.8027687
1570715384,6.4978633,-3.0885203,-2.3894134,-1.8589431,1.7215198,0.7297284,-1.3551182,4.43885,-7.9343843
1570715384,15.409082,-10.156203,-1.067814,-0.043677174,0.7957768,-1.2346791,8.628703,-1.0199299,-2.504335
1570715384,22.725763,-61.63154,19.800049,-0.05113425,2.6675036,-0.5880439,14.446613,-41.874588,7.393295
1570715384,-13.560759,7.038953,1.5849615,-0.8820659,0.5401055,1.5095258,-17.472883,12.425907,-4.7309427
1570715384,5.482722,-11.439496,2.2170308,-4.012974,1.0450563,0.6945736,-5.305551,0.320823,1.5514427
1570715384,16.443377,-18.210299,19.685127,-4.9845243,3.0904264,0.83306223,11.09473,-16.050728,19.13446
1570715384,16.242264,-11.616667,12.607866,-3.8158937,0.47512242,3.293898,12.86644,-2.9352913,10.879252
1570715384,8.441956,-12.052411,15.562311,-4.892909,0.79471153,2.9359584,6.9144545,-3.3327289,15.222335
1570715384,4.3287168,-5.1762643,4.663905,-4.8918433,1.0333381,1.6810386,2.255338,3.1268275,7.5225816
1570715384,8.748413,13.64695,0.7422025,-1.1238883,0.46340418,1.0109668,4.390966,19.910181,0.047884032
1570715384,5.884948,14.365211,7.7189064,1.5457458,-0.22371235,1.324164,5.9424086,24.449587,10.156203
1570715384,-1.9728222,7.4268136,2.030283,3.785,-1.998497,0.014914157,-3.074155,18.373104,2.1739352
1570715384,-2.2457612,-9.519346,6.6606693,4.3634562,-1.7140628,-0.87993526,-4.074931,2.1547816,4.9895163
1570715384,-1.6280571,-13.359646,3.5673606,4.5722547,-3.3088124,-1.8504208,-3.1986535,-1.9776106,1.5227122
1570715384,-1.2306197,-35.48686,23.44881,4.16105,-3.2704616,-3.989537,-4.7165775,-23.410503,24.416069
1570715384,19.25417,-32.05836,-7.666234,4.1312213,-2.8006656,-4.4721165,14.66688,-31.713596,-11.645397
1570715384,24.009054,8.791509,10.261548,4.44868,1.6416225,-2.8816283,15.47612,14.432248,-0.33997664
1570715384,12.957419,-12.20564,14.369999,2.4299424,-1.980387,-1.4136491,10.156203,-5.9663506,8.346188
1570715384,-4.390966,-15.710752,-6.2345014,1.7225852,-0.986465,-1.5510724,-8.935161,-12.885593,-8.78672
1570715384,-13.541605,0.7326257,-0.22505496,-0.99711794,-1.1015171,-0.28123838,-20.398598,5.602432,-5.257667
1570715384,-15.682021,-0.6751649,3.4476504,-2.2286012,-0.2056023,2.6344793,-27.11194,4.1515455,0.4405331
1570715384,-0.37828386,0.12928689,-6.0381765,-3.1767154,1.2634422,2.5087743,-6.6415157,6.4308257,-10.180145
1570715384,11.87524,-2.4372973,-0.6751649,-2.3447185,2.5503209,0.3771151,6.129156,4.486734,-4.5681367
1570715384,16.850391,-6.469133,0.90979666,-0.23543063,-0.53904027,-1.5617253,11.008539,0.38307226,-2.96881
1570715384,5.554548,-42.722134,12.196063,-1.2016549,4.836448,0.8053645,-0.16280572,-35.86993,8.12592
1570715384,-6.105214,8.389283,-5.4779334,-1.2474627,-0.7925809,-0.009587673,-11.932701,15.260642,-9.337387
1570715384,-9.983821,3.4284968,11.975797,-2.586541,2.0965044,0.8085604,-15.260642,10.6877165,8.030152
1570715385,20.867863,-32.24032,20.231005,-4.4465494,2.90613,1.6458838,15.8783455,-24.406492,17.075447
1570715385,19.895817,-16.73547,11.477803,-3.8212202,-0.15553336,3.6081607,15.701175,-8.145074,9.275137
1570715385,3.8977604,-7.2352777,15.246277,-5.2135634,1.4669139,1.6011413,0.4261679,1.8626889,14.101848
1570715385,0.05746084,-2.944868,2.6479871,-4.3890233,1.5979455,0.8852618,-3.1172507,6.3302693,2.719813
1570715385,12.3876,17.712305,4.1611223,-0.14807628,0.88739234,0.47831833,9.361329,27.02096,4.7548847
1570715385,12.603078,16.156073,11.793838,1.0301422,0.35580918,1.198459,9.739613,25.52698,12.200851
1570715385,-2.5809495,3.691859,0.7613561,3.5953772,-2.245646,0.09694202,-5.161899,13.144167,0.4261679
1570715385,-2.2409728,-4.7070007,7.8386164,4.316583,-2.1625528,-0.67326766,-4.9655743,4.6160207,6.5026517
1570715385,-1.6136919,-6.9958572,7.4363904,5.035659,-3.3279877,-1.8035477,-4.879383,1.9488802,5.109226
1570715385,1.9057846,-36.11414,28.596346,6.1020207,-3.8414607,-3.2022827,-2.5330653,-23.190237,21.361067
1570715385,21.05461,-38.944084,-6.373365,3.003072,-2.4704237,-5.39999,14.106636,-40.03105,-6.3350577
1570715385,14.700398,5.8705826,3.4811692,4.3101916,1.6331002,-2.6014552,6.5265937,9.528923,-5.765238
1570715385,12.837709,-11.9135475,13.263878,2.156161,-1.1867408,-1.3326864,7.302315,-6.009446,9.208099
1570715385,3.016694,-13.053187,-4.4915223,1.5446806,0.28869548,-0.419727,-2.0829554,-8.475474,-7.086837
1570715385,-7.560889,-1.316811,1.5562311,-1.4072572,-0.89591473,-0.031958908,-11.085154,1.484405,-4.2904096
1570715385,-17.78892,4.3526587,3.3327289,-2.4448564,-1.8418984,2.3798733,-26.767176,9.753978,1.5466543
1570715385,0.095768064,0.5650316,-5.626374,-1.7108669,1.5542682,1.8813144,-7.9104424,7.967903,-8.073248
1570715385,9.471462,-5.48751,1.6663644,-1.0344033,0.68072474,0.16831692,2.6144683,2.0925324,-3.7349546
1570715385,11.295844,-6.5218053,-0.7757214,-1.3081846,0.5262567,-1.140933,6.7468605,-0.7182605,-3.5338416
1570715385,16.51999,-74.339966,24.004267,0.12463974,1.998497,1.718324,-0.5650316,-38.283287,-0.89543146
1570715385,-4.817134,12.392388,-1.8674773,-1.7279116,0.7659485,-0.64343935,-5.4204726,15.107412,-13.029245
1570715385,-11.808203,1.2114661,14.738706,-2.1806629,2.2509725,1.8813144,-20.700268,15.844827,11.243171
1570715385,18.033127,-31.210814,19.689915,-4.0161695,3.9991248,1.8195271,11.429919,-20.700268,1.8339585
1570715385,20.30762,-13.680469,5.659893,-3.2278497,-0.3451562,3.260874,21.959618,-5.8945246,1.8722657
1570715385,-0.023942016,-6.172252,13.685257,-4.803424,1.4658486,2.0709372,-2.0446482,1.5227122,11.027693
1570715385,2.5953147,-3.7253778,6.8282633,-4.4518757,1.5478765,0.50388545,-2.1260512,4.1659107,8.623915
1570715385,9.11712,15.98369,-2.9017725,-1.6416225,0.32917675,0.5358444,6.0477533,25.28277,-2.384625
1570715385,7.627927,11.9135475,11.061212,0.88419646,0.2737813,1.259181,4.807557,21.29403,11.45865
1570715385,-4.9416323,5.5401826,0.89064306,2.518362,-1.5649211,0.19068815,-7.513005,15.002068,0.8571242
1570715385,-2.6479871,-2.585738,1.9776106,4.2409472,-1.6629285,-1.1558472,-5.439626,6.766014,1.0342951
1570715385,-2.2218192,-8.389283,8.78672,5.2401958,-2.3234127,-1.1899366,-5.511452,0.61291564,6.7229185
1570715385,1.1923125,-40.81156,30.95224,5.653531,-2.7505968,-3.724278,-2.7341783,-32.47974,27.585993
1570715385,34.13174,-38.283287,-11.669339,3.619879,-2.4384646,-3.827612,28.562826,-31.16293,-15.47612
1570715385,21.677103,10.160992,9.270349,4.4976835,0.7691444,-2.363894,15.720328,16.357185,4.548983
1570715386,10.242394,-12.076353,17.06587,2.0421743,-2.6323488,-0.9949873,3.8019924,-6.5744777,12.11466
1570715386,-2.111686,-8.896853,-7.541735,1.4413468,-0.36326626,-0.8277357,-8.896853,-3.7253778,-12.378023
1570715386,-7.417237,5.2959743,3.7205894,-0.116117366,-1.4253674,0.40694344,-14.293385,10.251971,-1.2018893
1570715386,-21.361067,4.1180267,3.2082303,-2.0975697,-2.2808008,2.7505968,-28.270733,9.672575,-0.9768343
1570715386,-7.503428,-2.1883004,-2.0207062,-2.4373994,1.7769153,1.930318,-13.924677,4.1611223,-5.827487
1570715386,8.911219,-6.8426285,-0.6943185,-1.6054025,1.7002139,0.6785942,2.96881,-0.033518825,-4.5058875
1570715386,22.907722,-8.872911,3.3854012,-0.43464115,-0.4911019,-1.56066,16.864758,-2.0829554,-0.30166942
1570715386,20.38902,-57.235786,14.738706,0.1736434,4.449745,-0.7808626,14.360422,-50.58948,10.773908
1570715386,-12.919112,6.215348,2.7724855,-0.9534408,0.026632423,0.9491796,-18.938135,12.794614,-1.2976574
1570715386,1.0486604,-14.757859,3.691859,-3.885138,1.9345793,1.9441669,-4.4101195,-7.5465236,-0.095768064
1570715386,17.520767,-33.159695,15.456966,-4.182356,2.557778,1.3571883,10.43872,-28.189331,9.591172
1570715386,20.30762,-6.5026517,10.477027,-4.5339036,0.71374893,2.65472,16.136919,1.6519991,8.939949
1570715386,8.197746,-10.247183,16.658855,-4.6020827,1.600076,2.2254052,6.0238113,-1.3599066,15.859192
1570715386,4.9895163,-2.1547816,8.820239,-4.8556232,0.771275,0.43464115,1.3072342,5.674258,9.14585
1570715386,2.7964275,6.4978633,-0.7517793,-2.877367,0.2748466,1.474371,0.61291564,12.148179,2.8060043
1570715386,8.154651,15.480908,8.762778,0.87567407,1.209112,1.6224473,6.5265937,25.421633,6.459556
1570715386,-3.8738184,8.571242,3.3087866,1.6714509,-1.0248157,-0.31106672,-4.9895163,17.381905,7.192182
1570715386,-3.1507695,1.8674773,-0.36870706,4.1173725,-0.9779426,-1.230418,-6.363788,13.613431,-1.1492168
1570715386,2.4756045,-7.5561004,3.8067808,4.3400197,-1.5265706,-1.5574641,-1.3742718,1.4030021,3.7780502
1570715386,-1.0630256,-23.908499,16.184803,6.2373137,-2.5055783,-0.85330284,-4.1706996,-9.054871,8.925584
1570715386,17.195156,-53.927,1.3263878,3.781804,-4.3464117,-5.804803,5.7029886,-37.646427,8.6813755
1570715386,18.100164,-8.676587,-3.9456444,5.495867,-1.9281875,-1.1515859,12.713211,-13.081918,-8.169016
1570715386,14.322115,-7.091625,15.7586355,3.3194652,-1.4051267,-1.2133732,10.261548,6.8665705,12.100295
1570715386,3.6631286,-15.389929,4.414908,1.2730298,-1.7321728,-1.09406,-0.6464345,-9.390059,3.9025488
1570715386,-5.717354,-3.763685,-3.5817258,1.8791838,1.306054,-0.5550197,-12.732365,-2.4468741,-12.780249
1570715386,-19.139248,-2.1499932,6.2967505,-1.8674655,-1.5702477,1.7779806,-23.707386,2.6910827,-3.4620156
1570715386,-11.856087,1.0965444,1.70946,-2.4405954,0.351548,2.4853377,-18.459295,7.019799,-2.4612393
1570715386,8.686164,-1.292869,-2.231396,-1.2581156,2.2903883,0.4889713,0.37828386,5.9663506,-8.7053175
1570715386,14.623784,-5.171476,0.4261679,-0.68072474,-0.22584295,-0.9481143,8.734048,1.7860745,-2.1739352
1570715386,10.295067,-56.469643,27.585993,-0.74890375,5.8964186,-0.14381509,-4.510676,-29.415161,-6.751649
1570715386,-4.936844,7.824251,-4.1515455,-1.0035098,0.24821419,0.5305179,-7.1395097,10.960655,-11.678916
1570715386,-4.156334,-3.1172507,13.278243,-2.47575,2.6270223,1.2815522,-9.65821,3.7301662,8.925584
1570715386,19.76653,-26.202143,14.480132,-4.3144526,1.7034098,1.1973938,14.686033,-18.6221,10.879252
1570715387,21.571756,-10.089166,7.905654,-4.347477,-0.73931605,3.365273,17.123331,-1.7286136,5.3438582
1570715387,2.8874073,-8.820239,11.975797,-4.3900886,0.92574304,2.7356825,-0.6464345,0.17717093,10.357317
1570715387,1.4748282,-5.554548,6.009446,-4.7437673,1.3795595,0.6295905,-1.6567876,3.7253778,5.583278
1570715387,1.7477672,8.887277,0.272939,-2.9977455,1.0610358,0.45914298,-1.2497733,18.20551,0.842759
1570715387,9.394848,17.525557,7.2209125,0.81282157,0.6370476,0.87567407,6.5457473,26.886885,7.824251
1570715387,-1.1731589,6.9862804,3.2130187,2.8635182,-1.4988728,0.5102772,-3.7732618,16.43859,3.3279405
1570715387,0.78050977,-1.2018893,2.0733786,4.4007416,-1.9953011,-0.42718408,-1.9009962,8.1881695,1.2066777
1570715387,0.94331545,-10.0748005,4.4340615,3.7860653,-3.0052028,-0.95024484,-2.0111294,-0.89064306,2.6623523
1570715387,0.46447513,-41.180267,29.228415,5.872982,-3.6209443,-1.2442669,-2.920926,-32.431858,26.364948
1570715387,11.640609,-37.560238,-3.442862,3.8414607,-3.0968182,-5.502259,6.885724,-29.72162,-6.9288197
1570715387,9.495404,6.933608,-2.231396,4.075826,-1.5180482,-2.2616253,3.6727054,13.785813,-6.143522
1570715387,17.683575,-13.685257,15.653291,2.3873305,-1.4754362,-1.0322727,11.597513,-7.503428,11.075577
1570715387,5.9280434,-17.472883,-3.2369606,1.8355067,-0.95450604,-0.60082746,4.1276035,-10.874464,-1.3455414
1570715387,-0.7134721,-5.8801594,-1.7286136,1.5350928,0.3163932,-0.47938362,-7.216124,-3.3758245,-8.552089
1570715387,-18.076223,-0.79487497,5.00867,-2.4139628,-1.4051267,1.2634422,-24.698586,4.879383,0.5267244
1570715387,-15.016433,3.3854012,1.5849615,-2.6238263,-0.11079088,2.3564367,-25.316288,8.896853,-0.7326257
1570715387,2.930503,-0.40222588,-6.588843,-1.8536167,2.22434,1.1760879,-5.0182467,7.2783732,-10.079589
1570715387,12.842498,-5.12838,3.8786068,-0.4825795,0.90869826,-1.1292148,6.105214,2.5953147,-1.043872
1570715387,13.814544,-26.72408,-3.8977604,-0.7638179,3.2896369,-1.56066,7.422025,-9.088389,-12.483368
1570715387,-2.9400797,-2.695871,-2.135628,-0.49642837,-0.7840586,0.0063917814,-2.2649148,-5.626374,-4.9655743
1570715387,-7.843405,-3.0885203,5.583278,-2.174271,1.4679792,2.3489797,-15.696386,9.495404,-0.5554548
1570715387,15.064317,-34.04076,12.593501,-3.871289,2.0581536,1.3518618,7.6135616,-26.010607,7.7811556
1570715387,18.516756,-10.850522,12.483368,-4.9248676,0.9790079,2.5663004,14.709975,-3.8498764,9.442732
1570715387,7.07726,-6.4020953,15.725117,-4.2409472,1.5979455,2.2222095,5.7365074,0.59855044,13.867216
1570715387,0.92416185,-3.514688,6.0764837,-4.5434914,0.9747467,0.9619631,-2.2266076,6.009446,9.279925
1570715387,4.31914,7.9104424,-1.484405,-2.579084,0.16938221,1.2123079,1.4221559,13.508086,-0.095768064
1570715387,9.064447,13.575124,6.4547677,1.1696961,0.44422883,1.0205544,7.5561004,24.689009,6.2009826
1570715387,-1.2880806,5.5497594,2.9879637,2.3489797,-1.6085984,0.09587672,-2.15957,15.749059,6.813898
1570715387,-2.0973208,-0.11492168,1.9201498,3.9543822,-1.646949,-0.70735717,-5.0182467,10.630256,-0.272939
1570715387,1.8195933,-6.244078,7.311892,4.0151043,-2.1827934,-1.0301422,-1.8531121,4.1659107,6.909666
1570715387,0.21547815,-24.856602,20.532673,5.886831,-3.0851,-1.6512103,-3.3566709,-6.967127,12.694057
1570715387,17.104177,-53.764194,-0.46447513,2.7452703,-3.6656868,-5.960336,7.2831616,-45.16901,6.8665705
1570715387,13.254301,-2.5761611,-4.8219223,4.6510863,-1.5350928,-1.9633423,7.5321584,-6.631939,-9.9550905
1570715388,17.951725,-10.462662,14.001291,2.640871,-1.1792837,-1.2900746,12.320562,-1.2737153,11.032481
1570715388,5.693412,-13.9917145,2.528277,1.1760879,-1.0610358,-0.72759783,1.5179238,-6.191406,2.3415294
1570715388,-5.6551046,-2.7006595,0.7469909,0.70735717,0.58484805,-0.15127216,-10.740389,0.59376204,-8.346188
1570715388,-19.507956,0.39743748,5.4779334,-2.152965,-2.034717,1.4551957,-26.173412,5.93762,0.90021986
1570715388,-8.571242,1.7286136,1.1827357,-2.3521757,0.5603462,1.6309696,-15.069105,7.953538,-2.7102363
1570715388,4.6591167,-1.757344,-2.6623523,-1.3390783,2.4171588,0.53904027,-1.412579,4.8602295,-6.5936313
1570715388,14.66688,-6.766014,1.8004397,-0.7925809,-0.07670138,-0.8042992,8.671799,-0.07182605,-2.1308396
1570715388,6.143522,-19.531897,-19.484013,-1.8280495,3.0978835,0.2801731,0.14844051,-12.794614,-23.338678
1570715388,2.72939,-11.942278,3.371036,-1.2229608,-1.980387,-1.2517239,-3.1124623,-5.094861,-0.51714754
1570715388,-14.073117,11.348516,11.583148,-1.0173585,2.9071953,2.3905263,-19.565416,18.50718,7.752425
1570715388,12.617443,-25.01462,-0.58418524,-4.4859653,1.6693203,1.6416225,1.1204864,-7.2687964,-5.5976434
1570715388,26.719292,-16.079458,8.892065,-5.5470014,0.47086126,2.4437912,22.476765,-7.5561004,6.5218053
1570715388,7.4363904,-6.9958572,14.12579,-4.7267227,1.5436152,2.4033098,4.0462008,2.1068976,12.785037
1570715388,0.80924016,-3.6296098,6.7564373,-4.5360346,1.571313,0.56673795,-2.207454,5.6982,6.6367273
1570715388,7.398083,12.703634,-0.7757214,-2.1806629,0.60508865,0.34302562,4.4340615,22.021868,-0.01436521
1570715388,12.320562,17.324444,12.339716,1.4019308,-0.02130594,1.571313,9.643845,26.733656,12.976573
1570715388,-1.2066777,4.582502,0.7517793,3.0467494,-2.5162313,1.0908641,-3.4045548,14.135366,0.8523358
1570715388,-2.3319526,0.7757214,6.8282633,4.1748986,-2.6206305,0.2748466,-5.746084,11.209652,3.7205894
1570715388,-2.327164,-8.576031,4.5058875,4.6372375,-3.8883338,-1.0088362,-4.673482,0.7517793,2.6001031
1570715388,-4.285621,-29.549238,21.437681,6.417349,-4.326171,-2.8209064,-7.422025,-20.800825,18.301277
1570715388,21.38501,-52.332462,-0.39264908,3.265135,-3.627336,-6.9766297,16.376339,-44.790726,-4.1659107
1570715388,12.220005,-0.79008657,-3.0693667,3.8031101,-0.5475626,-2.4906642,7.091625,-4.381389,-8.686164
1570715388,16.472107,-10.6158905,11.305421,2.8294287,-0.28549957,-1.4328244,10.577583,-1.13964,7.8290396
1570715388,6.253655,-17.554287,6.742072,1.1313454,-0.61041516,-0.95983255,2.0925324,-11.540052,3.7301662
1570715388,-1.9393034,-0.8858546,0.06703765,0.08522376,0.014914157,-0.30467492,-8.207323,2.3080103,-7.9822683
1570715388,-18.698715,2.7006595,5.12838,-2.8826935,-1.8418984,1.7225852,-23.046585,9.983821,0.06703765
1570715388,-4.759673,0.79487497,-0.29209262,-2.098635,1.2165691,1.2687687,-13.819332,7.1155677,-2.5905263
1570715388,6.3685765,-5.0038815,-0.24420857,-0.9118942,1.5862272,0.28976077,-1.1779473,2.6048915,-5.6646814
1570715388,12.20564,-8.130709,-1.6807296,-1.09406,0.58484805,-0.6839206,5.899313,-0.35434186,-3.8067808
1570715388,24.406492,-65.36649,19.153614,-0.36113566,1.3539925,-1.1973938,14.302961,-60.113617,17.942148
1570715388,-12.650962,9.14585,4.357447,-0.84584576,1.8600085,1.3934084,-16.146496,14.513651,-4.027047
1570715388,7.800309,-18.555063,1.3072342,-4.82473,1.2346791,1.2432015,-3.4284968,-6.0046577,-1.412579
1570715388,18.100164,-18.109741,11.865664,-6.203224,1.890902,1.5990107,12.392388,-16.213533,13.230358
1570715388,15.959748,-13.067553,12.751518,-4.168507,1.4701098,3.4920433,14.365211,-3.2561142,8.695741
1570715389,1.6807296,-7.2448545,16.117765,-5.527826,1.4136491,2.1977077,0.0,0.36391866,15.509639
1570715389,3.394978,3.2513258,2.7246015,-4.674523,1.9313834,0.70948774,0.7757214,9.854534,5.2720323
1570715389,16.28536,17.228676,3.3183637,-0.14807628,0.3835069,0.65089643,13.709199,26.637888,4.3047748
1570715389,5.1379566,10.0987425,8.020576,2.3223474,-1.6128596,1.3039235,5.473145,21.997925,11.707646
1570715389,-2.0494366,6.0525417,2.825158,3.956513,-2.5588431,0.68179005,-3.9839516,15.662868,2.7246015
1570715389,-2.2218192,-7.40766,11.894394,4.4252434,-2.798535,-0.16938221,-5.4779334,1.910573,6.6079965
1570715389,-1.3742718,-11.099519,5.3965306,3.8510485,-4.028953,-1.6022066,-3.6487634,-1.8052281,3.241749
1570715389,-4.1802764,-38.16836,28.66817,4.9887857,-4.922737,-3.5314593,-7.422025,-29.45347,25.546133
1570715389,23.836672,-44.27358,-6.445191,3.6007037,-2.0847862,-6.1787224,18.65562,-36.722267,-9.959879
1570715389,15.964537,13.441049,2.4133554,3.7434535,1.3454701,-3.1713889,10.108319,20.005949,-1.9153614
1570715389,11.525687,-9.495404,10.333375,2.062415,-1.6320349,-1.2176344,5.305551,-3.6248214,5.5258174
1570715389,-2.9831753,-14.499286,-5.473145,1.2389404,-0.7041613,-0.9065677,-9.615114,-9.021352,-10.175357
1570715389,-17.750612,-0.4309563,5.8466406,-1.0216198,-0.81069094,0.771275,-24.363396,4.9559975,1.0103531
1570715389,-13.862428,3.3997664,0.62728083,-2.378808,-0.08202787,2.1998382,-20.30283,9.485827,-3.5625722
1570715389,4.232949,1.1348516,-5.386954,-2.350045,2.2616253,0.71374893,-1.757344,7.7667904,-9.41879
1570715389,14.240712,-8.42759,8.542512,-0.49749365,0.7563608,-0.42505348,8.494628,-1.6136919,4.43885
1570715389,10.548853,-20.54225,-27.327417,-2.034717,2.4981213,-0.53371376,4.6782703,-13.761871,-31.301792
1570715389,-0.6991069,-12.947843,3.4524388,-1.3039235,-1.797156,-2.1359203,-6.4739213,-6.167464,-0.6464345
1570715389,-18.875887,14.451402,6.8809357,-1.9558852,2.1732059,1.9921052,-24.315512,21.590912,2.9352913
1570715389,12.071565,-13.077129,2.0111294,-4.7043514,2.6685688,0.14061919,0.46447513,-0.93373865,1.4508862
1570715389,26.676195,-16.989256,6.9383965,-6.1648736,1.4658486,2.04537,22.203827,-8.647857,4.3526587
1570715389,12.976573,-8.643068,11.142614,-4.545622,1.6341655,2.921044,12.440272,-1.934515,10.055647
1570715389,5.6359506,-8.374918,10.67814,-4.722461,0.7084225,1.0184239,1.7286136,0.110133275,11.161768
1570715389,7.0341644,1.1252748,3.6343982,-3.8936603,1.6149901,0.6285252,4.213795,8.1163435,3.4332852
1570715389,14.5328045,19.34036,11.798626,0.72759783,0.5614115,1.7609358,13.541605,29.367277,9.275137
1570715389,-3.5577838,10.084377,3.7253778,1.5766394,-1.9835829,1.8493555,-3.8738184,20.456059,8.010999
1570715389,-3.2800562,1.4173675,1.8962077,4.4795737,-2.7537925,-0.045807768,-5.415684,13.613431,0.5315128
1570715389,0.5315128,-8.552089,8.872911,4.465725,-2.8688447,-0.7254672,-2.7629087,1.3263878,6.191406
1570715389,-2.9113493,-15.600618,15.308526,5.819717,-3.2076092,-0.96835494,-4.9176903,-0.24420857,6.3542113
1570715389,4.1946416,-56.814407,4.036624,3.8659625,-5.2188897,-5.8527412,-3.7110126,-43.24886,11.075577
1570715389,13.10586,-20.412964,-5.650316,4.7586813,-2.5386026,-2.1497693,13.268666,-20.527885,-8.542512
1570715389,10.156203,2.15957,16.591818,2.2957149,1.2453321,-1.9271221,5.5258174,15.461755,8.408437
1570715389,8.619126,-13.383588,5.731719,1.3646454,-0.8596946,-0.9577019,3.4524388,-6.9144545,4.414908
1570715390,2.2457612,-6.3111157,-5.281609,1.1611737,0.63917816,-0.28336897,-4.9703627,-2.7724855,-13.79539
1570715390,-14.211981,0.24899697,0.3878607,-2.7420743,-2.5066438,0.25247538,-16.232687,4.7979803,-5.8801594
1570715390,-9.370906,1.13964,1.8148049,-2.1870546,0.40055165,1.5777048,-19.426552,7.2592196,-1.8435353
1570715390,-0.5746084,-0.92416185,-4.745308,-1.5382888,1.9431016,1.6064677,-7.9104424,6.631939,-8.192958
1570715390,8.236053,-6.397307,-0.59855044,-1.5382888,0.98966086,0.40268224,1.4269443,1.1444284,-5.439626
1570715390,12.62702,-14.571112,-8.576031,-0.85117227,1.9633423,-1.1366718,7.441179,-2.6767175,-5.410896
1570715390,26.906038,-41.692627,5.875371,0.21945117,-0.61467636,-2.7143767,21.327549,-34.835636,1.6232687
1570715390,-19.2829,11.568783,5.9902925,-0.5784562,1.492481,2.518362,-24.71295,18.540697,1.7477672
1570715390,13.982138,-22.519861,9.074024,-4.585038,2.1263328,1.5627906,9.246407,-14.772224,0.9816227
1570715390,23.769634,-17.310078,9.203311,-5.865525,1.3699719,1.7406952,19.594147,-8.896853,6.3685765
1570715390,8.839393,-11.544841,15.064317,-4.583973,1.7715888,3.028639,5.60722,-2.4468741,13.321339
1570715390,-0.8619126,-3.53863,11.003751,-4.7757263,1.4402815,0.800038,-3.5769374,5.8705826,10.529699
1570715390,4.7165775,6.4882865,4.7548847,-3.4100156,1.3934084,0.7265325,2.15957,15.935806,5.33907
1570715390,13.010092,18.612524,8.561666,1.0429257,0.5102772,0.77020967,10.697293,28.112717,9.284714
1570715390,2.1547816,4.156334,5.482722,2.3255432,-1.8387026,0.54543203,0.05746084,13.728353,5.741296
1570715390,-1.8818425,2.5809495,2.9879637,4.0598464,-2.1721404,-0.122509144,-3.9456444,12.148179,2.4181437
1570715390,0.81402856,-9.41879,7.991845,4.3069954,-2.6888094,-0.61361104,-1.436521,-0.019153614,6.3302693
1570715390,-3.2369606,-21.16953,16.07467,5.296656,-2.9711132,-1.8589431,-6.1100025,-12.181698,13.393165
1570715390,9.624691,-52.81609,4.960786,2.841147,-4.4870305,-6.4844623,5.2289367,-44.704533,1.6232687
1570715390,13.120225,-8.930372,-5.861006,4.8268604,-1.3603842,-2.04537,7.441179,-1.8866309,-9.648633
1570715390,15.9262295,-5.257667,12.53604,3.095753,-0.06178722,-1.2836828,9.911995,0.92416185,7.8625584
1570715390,7.029376,-12.349293,4.663905,0.76168734,-1.0652969,-0.56780326,0.7134721,-6.5696893,-0.12449849
1570715390,-5.070919,-3.3087866,-0.9624691,0.7552955,0.30254433,-0.506016,-9.56723,-2.96881,-11.8896055
1570715390,-22.539015,2.1260512,7.795521,-2.5812144,-2.4363341,1.1345413,-25.335442,6.0525417,0.9768343
1570715390,-7.062895,1.6136919,0.5554548,-2.263756,1.2048508,1.8280495,-17.76019,7.9343843,-1.3599066
1570715390,10.817003,-3.4859576,-1.5849615,-1.0684928,2.191316,-0.06285252,4.975151,3.394978,-5.415684
1570715390,16.452953,-8.322245,3.9983168,-0.9662243,0.3163932,-1.3230988,10.084377,-0.51714754,1.9153614
1570715390,7.302315,-43.536163,9.174581,-1.7151281,4.8588195,0.7041613,-2.0925324,-22.931664,-24.25805
1570715390,-3.821146,5.559336,-2.384625,-2.327674,-0.33769912,0.21625528,-5.2863975,4.6686935,-6.244078
1570715390,-7.489063,2.5809495,11.080365,-2.974309,2.0890472,1.7193892,-14.681245,16.041151,9.385271
1570715390,18.511967,-32.589874,19.948488,-4.932325,2.6430018,1.8983592,12.799402,-24.123976,11.032481
1570715390,16.888699,-12.995727,10.108319,-3.9703617,0.2769772,3.4888475,16.180016,-4.55856,8.432379
1570715390,2.183512,-3.8163576,12.176909,-5.159233,1.3934084,0.9917914,0.866701,4.3287168,11.080365
1570715391,1.283292,-3.41892,5.985504,-4.6212583,1.434955,0.21412468,-2.3415294,5.171476,8.350976
1570715391,14.54717,18.387468,2.4229321,0.6274599,0.42079228,0.8767394,7.455544,24.416069,-0.24420857
1570715391,5.9424086,6.933608,10.390836,2.1082227,-0.9332001,1.3657106,7.1155677,19.589357,13.613431
1570715391,-4.1802764,3.6343982,1.3024458,3.5793977,-2.4299424,0.20347172,-5.195418,14.733917,2.815581
1570715391,-0.047884032,-8.0924015,5.1906295,4.5328383,-2.6557853,-0.67220235,-4.189853,3.241749,4.6926355
1570715391,-3.3901896,-20.537462,13.790602,6.1574163,-3.329053,-0.74783844,-4.6495395,-5.195418,8.882488
1570715391,1.0821792,-42.932823,10.304645,3.9671657,-4.840709,-5.1560373,-6.751649,-31.320946,11.760319
1570715391,16.112978,-22.567745,-3.8067808,4.4795737,-3.0446186,-3.021182,12.995727,-21.557392,-6.991069
1570715391,17.353174,-4.984728,11.295844,3.9799492,1.140933,-1.7577399,12.861651,6.081272,5.506664
1570715391,7.417237,-13.359646,6.8905125,2.2083604,-1.1270841,-1.1430637,3.2082303,-6.411672,3.5290532
1570715391,-3.1794999,-6.8330517,-3.5865142,1.4818281,-0.015979454,-0.7265325,-9.14585,-5.3725886,-8.025364
1570715391,-14.178462,1.3024458,1.541866,-1.9761258,-1.6618632,0.92041653,-17.113754,7.1873937,-5.66947
1570715391,-19.067423,-1.6328455,1.3838485,-2.324478,-0.22690825,2.3159556,-25.689785,4.3239284,-2.7102363
1570715391,4.3478703,-0.8619126,-4.76925,-2.3734815,1.9217957,1.0024444,-1.7908629,5.7125654,-8.66701
1570715391,14.197616,-3.6822822,1.8052281,-0.37178862,0.5880439,-0.5283873,8.236053,3.0262709,-2.1499932
1570715391,22.993914,-71.20356,23.113623,-1.3092499,5.0271363,-1.3912778,17.142485,-64.47585,19.024326
1570715391,-10.879252,6.8522053,1.7812861,-0.5933704,0.95450604,1.2240262,-16.931795,13.378799,-2.327164
1570715391,-2.4516625,-8.992621,2.1068976,-4.3815665,0.96835494,1.7918295,-7.8912888,-1.7956513,-1.7381904
1570715391,16.294937,-22.31396,18.6221,-3.7136252,2.8475387,1.1569124,11.362882,-14.45619,15.433024
1570715391,20.719421,-8.748413,7.833828,-4.6329765,0.63917816,3.3961666,16.481684,-0.16759412,5.6790466
1570715391,-1.4413095,-9.931149,15.155296,-4.391154,1.8269843,2.4619012,-4.7405195,-0.78529817,13.8480625
1570715391,4.285621,-3.9121256,7.350199,-5.105968,1.4104532,1.0482522,2.4229321,5.449203,7.2927384
1570715391,14.279019,15.346833,-1.7286136,-0.89698005,-0.034089502,0.73612016,11.60709,24.74647,-0.93852705
1570715391,3.916914,10.553641,12.239159,0.92574304,-0.015979454,1.4988728,1.5849615,20.053833,12.890382
1570715391,-7.005434,10.352529,-0.48841715,3.6007037,-2.012346,-0.11185618,-9.107543,19.929335,-0.36870706
1570715391,1.283292,-3.122039,4.999093,5.224216,-1.8110048,-0.68498594,-1.0103531,6.339846,3.8546648
1570715391,2.0973208,-10.113108,6.435614,4.8385787,-3.3993626,-1.5095258,-0.62728083,-0.9864111,4.0892963
1570715391,-2.2409728,-41.23294,32.829292,6.067931,-6.0040135,-2.9998763,-5.8083334,-32.80535,29.30024
1570715391,24.79914,-44.58961,-5.0182467,4.7139387,-2.5556474,-5.647139,19.34515,-37.45489,-8.968679
1570715391,8.394072,12.6222315,1.532289,3.910705,0.5997622,-3.6230748,2.054225,18.526333,-3.064578
1570715391,6.4882865,-8.772355,19.574993,1.7236505,0.017044751,-1.4647833,-0.29688102,-0.7134721,15.873557
1570715391,3.0214825,-17.013197,-7.517793,1.7460216,-0.4495553,-0.20027582,-0.31603462,-11.3964,-8.192958
1570715391,2.5330653,-1.6519991,0.5602432,-1.3774289,-0.81069094,0.5859133,-3.394978,1.6950948,-4.5537715
1570715391,-10.601525,7.833828,4.429273,-3.10321,-1.872792,2.4160933,-15.500062,12.29662,-0.35913026
1570715392,-6.3589997,2.2888567,-3.1555579,-2.106092,1.1665001,2.3905263,-14.317327,10.67814,-5.0421886
1570715392,2.1212628,-7.541735,-1.1252748,-0.9960526,0.506016,0.5518238,-5.080496,0.21547815,-5.78918
1570715392,10.553641,-12.756307,-3.2225955,-0.36113566,1.7854377,-1.3177723,4.0653543,-5.473145,-3.8115692
1570715392,22.562958,-36.296097,16.64449,-1.0919293,0.66900647,-1.0397298,24.995466,-60.79836,21.303606
1570715392,-14.738706,10.247183,3.964798,-0.83306223,2.726095,1.4104532,-18.258183,16.529568,-3.074155
1570715392,5.0038815,-25.124752,4.4005427,-5.6514,1.2847481,0.60934985,-2.408567,-10.266336,1.8674773
1570715392,20.173544,-18.109741,15.634137,-6.256489,2.575888,1.1334759,14.523228,-15.188815,12.133814
1570715392,13.713987,-8.058883,12.670115,-3.8467872,1.2495933,3.1074712,13.857639,0.8858546,9.892841
1570715392,2.705448,-6.143522,12.248735,-5.2391305,1.043991,1.266638,0.5746084,3.5051112,14.121001
1570715392,5.094861,1.5945383,3.6104562,-4.309126,1.1654348,0.39948636,1.9536686,7.2831616,5.7987566
1570715392,12.224793,15.734694,1.5179238,-0.5731298,-0.4154658,0.8564987,9.533711,25.096022,2.6288335
1570715392,3.8977604,8.389283,13.383588,2.1721404,-1.0855376,1.3710371,5.2863975,20.527885,14.03481
1570715392,-6.9000893,5.171476,1.7238252,3.4632804,-2.6717646,-0.08628905,-8.566454,15.945383,2.5713725
1570715392,-0.7326257,-6.703765,6.3206925,4.4849,-2.6813524,-0.5528891,-4.132392,4.3622355,4.381389
1570715392,0.2873042,-9.950302,6.7947445,4.4039373,-4.0704994,-1.7279116,-2.2984335,-0.6655881,3.6248214
1570715392,-4.8937483,-34.43341,23.956383,5.1720166,-5.007961,-3.7264087,-8.422802,-25.723303,21.1408
1570715392,27.116728,-48.85129,-7.398083,3.838265,-3.329053,-6.356627,21.610065,-41.381382,-10.572795
1570715392,16.093824,9.691729,3.53863,4.5232506,1.5563989,-2.9860272,9.89763,16.098612,-0.5506664
1570715392,9.9790325,-9.255983,11.903971,2.1284633,-0.5784562,-0.9012412,3.5769374,-3.5338416,7.1586633
1570715392,-1.0390835,-12.41633,-2.183512,1.2996622,-0.6370476,-0.19175345,-7.589619,-6.9719152,-7.043741
1570715392,-9.409213,2.183512,0.82360536,-1.8110048,-1.0077709,0.47512242,-16.026787,7.675811,-3.8786068
1570715392,-19.450495,1.6807296,2.360683,-2.7239642,-0.33663383,1.7950253,-25.996243,7.809886,-1.5993267
1570715392,2.7341783,-0.23463176,-5.2959743,-2.1156797,1.7577399,0.82027864,-3.4237084,6.4308257,-9.002198
1570715392,12.071565,-7.2927384,2.743755,-0.15872924,1.1398677,-0.26632422,6.14831,-0.48362875,-1.1013328
1570715392,14.891934,-43.799526,-0.4405331,-2.6770911,4.6617393,-0.47618774,9.035717,-36.95211,-4.3239284
1570715392,-2.6719291,2.1547816,-1.1204864,-1.384886,-0.23223473,-0.18429637,-8.494628,8.963891,-5.094861
1570715392,-3.5913026,-7.795521,7.627927,-3.4259949,1.1185617,2.0038235,-9.040505,-0.50757074,3.9695864
1570715392,16.515203,-25.27798,12.263102,-4.7299185,2.3191514,1.6203166,11.798626,-17.190369,9.323022
1570715392,24.875755,-5.8945246,11.583148,-4.8130116,0.351548,2.812384,20.805613,2.8443117,9.792285
1570715392,-0.49320555,-8.748413,10.132261,-4.4540067,1.0344033,2.0965044,-3.7541082,0.46447513,9.332599
1570715392,1.4030021,-4.0701427,8.599973,-4.366652,1.3795595,0.39842105,-1.6472107,5.2385135,8.939949
1570715392,8.24563,8.499416,-2.6527755,-2.0400436,0.0074570784,0.8405193,3.2082303,14.628572,0.0
1570715392,7.9391727,8.441956,13.546393,1.0205544,0.16938221,1.2954011,5.386954,17.860744,14.475344
1570715393,-6.1100025,6.143522,2.767697,1.6331002,-1.7896988,0.37498453,-6.7851677,14.738706,7.216124
1570715393,-1.5705963,2.480393,2.2744915,4.393285,-1.8674655,-0.67539823,-2.7820623,11.96622,2.006341
1570715393,5.070919,-7.833828,6.540959,4.542426,-2.984962,-1.209112,1.9440918,3.2465374,8.499416
1570715393,-0.9576807,-36.219482,29.764715,6.6389303,-4.119503,-0.95131016,-4.3143516,-17.851168,20.369867
1570715393,15.50485,-56.689907,-4.8937483,3.6955152,-4.168507,-6.9073853,4.156334,-52.136135,-5.5258174
1570715393,9.782708,4.5537715,-6.813898,4.8534927,-1.980387,-2.0006278,6.861782,0.79008657,-10.955867
1570715393,10.175357,-10.529699,17.535133,2.8027961,-0.39415985,-1.2911398,5.291186,-0.79008657,14.513651
1570715393,2.7868507,-16.529568,-2.930503,1.6490797,-0.88313115,-0.75316495,-1.484405,-9.44752,-4.3239284
1570715393,-7.1826053,-3.9025488,0.80924016,0.46127358,0.18323107,0.043677174,-11.36767,0.62728083,-6.2392898
1570715393,-19.560627,3.0023289,3.596091,-2.8645835,-1.7513481,1.3912778,-26.915615,6.885724,0.78529817
1570715393,-0.9528923,4.19943,-2.1499932,-2.4437912,1.8898368,1.1419983,-10.1226845,10.46745,-4.189853
1570715393,7.905654,-2.2697031,1.1061212,-0.1736434,1.4211061,0.19494934,0.8379706,5.8466406,-4.3143516
1570715393,9.648633,-9.825804,-0.8571242,-1.4040613,1.4029961,-1.2357445,4.735731,-2.087744,-4.036624
1570715393,19.598934,-79.94718,32.609028,0.13529271,3.095753,1.7588053,1.0534488,-46.09317,-0.7182605
1570715393,2.9831753,13.239936,-7.7667904,-2.6430018,-1.0088362,-1.8355067,-2.920926,20.135237,-11.468226
1570715393,-11.291056,-4.050989,17.156849,-3.1799114,2.2403195,1.0482522,-24.056938,11.257536,18.851944
1570715393,18.301277,-30.68409,11.286267,-4.373044,3.3034859,1.5777048,13.283031,-22.821531,8.24563
1570715393,25.019407,-10.366894,9.763555,-4.1024585,-0.85117227,2.9370236,20.618866,-1.8579005,7.6375036
1570715393,0.4165911,-8.183381,9.629479,-5.0026345,1.6213819,1.2687687,-3.2561142,1.7764976,7.015011
1570715393,4.606444,-4.405331,9.054871,-4.505141,1.7566746,0.30254433,1.1204864,4.759673,9.136273
1570715393,13.445837,18.488026,-0.110133275,-0.85117227,0.5859133,0.9822038,10.132261,27.686548,0.6368576
1570715393,3.0310593,12.559982,11.372458,1.1878061,-0.42505348,2.0102153,0.19632454,21.930887,11.918336
1570715393,-2.5905263,7.517793,0.46447513,3.8840725,-2.7644455,-0.15340276,-5.2002063,16.970102,0.41180268
1570715393,0.4213795,-4.357447,9.662998,4.689437,-2.4736195,-0.29082605,-2.303222,4.9895163,8.513782
1570715393,-0.7565677,-10.299856,12.828133,5.414904,-3.7445188,-0.8703476,-3.8594532,-1.2545617,10.6398325
1570715393,0.90021986,-52.140926,15.380352,3.9128356,-5.5842867,-3.652903,-3.0310593,-43.72291,12.229582
1570715393,13.460202,-26.733656,-7.728483,5.151776,-2.9647214,-2.8528652,7.9966335,-19.426552,-11.324574
1570715393,18.449718,2.0973208,12.071565,3.5357206,0.68605125,-1.9707993,12.425907,8.441956,7.6375036
1570715393,8.815451,-10.25676,10.67814,1.704475,-1.012032,-0.7180101,2.504335,-4.453215,5.913678
1570715393,-3.916914,-8.537724,-6.2345014,1.6938221,0.092680834,-0.3398297,-10.362105,-3.0454245,-11.180922
1570715393,-12.607866,0.60812724,1.7860745,-1.7524135,-1.9441669,0.67326766,-19.167978,6.129156,-2.9592333
1570715393,-16.7642,0.9768343,-0.05746084,-2.4661624,-0.3100014,2.127398,-23.266851,7.144298,-4.027047
1570715393,1.0390835,-1.2737153,-4.0222588,-2.1263328,2.2403195,1.1963284,-4.9416323,5.482722,-7.85777
1570715394,9.916783,-5.7843914,1.4508862,-1.1249535,1.3678412,0.17151281,2.5187001,1.8243817,-3.8019924
1570715394,13.857639,-15.562311,-13.508086,-1.4115185,2.0027583,-1.1238883,8.106767,-8.599973,-17.343597
1570715394,3.5865142,-21.514296,10.079589,-0.24927948,-0.9278736,-1.2847481,-1.934515,-14.580688,5.884948
1570715394,-9.782708,8.231265,1.8674773,-1.6384267,1.3252294,1.1888714,-14.820108,14.829685,-5.1235914
1570715394,13.034034,-31.325735,10.1226845,-4.284624,1.5510724,1.57877,8.073248,-23.57331,6.727707
1570715394,15.361198,-12.794614,10.5440645,-6.5814047,2.1433775,1.9867787,11.03727,-9.744401,9.188946
1570715394,16.76899,-16.304514,12.430696,-4.167442,1.054644,3.3972318,14.791378,-6.3302693,10.366894
1570715394,0.50757074,-5.6982,12.315774,-4.460398,0.98753023,1.8365719,-0.60333884,3.8115692,13.479356
1570715394,2.7150247,2.327164,1.6184803,-4.002321,1.14839,0.674333,-0.1388637,7.2209125,5.9759274
1570715394,15.040375,20.63802,6.05733,0.818148,0.42611876,0.9960526,12.5264635,30.301016,4.256891
1570715394,1.1779473,5.6646814,5.4683566,2.5354066,-1.4413468,0.64770055,0.80445176,15.9022875,9.126697
1570715394,-2.2505496,1.2210429,1.3263878,4.351738,-2.2520378,-0.25354066,-4.261679,12.555194,1.541866
1570715394,2.5713725,-9.160215,10.13705,4.355999,-2.841147,-0.79151565,0.25378537,2.9161377,10.673351
1570715394,-3.064578,-23.803154,19.359514,5.4436674,-3.4004278,-1.1973938,-5.363012,-7.9008656,11.085154
1570715394,4.975151,-51.80095,2.5330653,3.2044132,-4.545622,-6.0242543,-3.4045548,-38.881836,6.861782
1570715394,11.611878,-16.050728,-5.2289367,4.7352448,-2.1785321,-2.0560231,6.95755,-17.314867,-8.063671
1570715394,16.577452,-1.460463,11.520899,3.2885716,0.56993383,-1.1292148,11.793838,9.864111,5.425261
1570715394,7.192182,-11.33894,5.693412,1.4200408,-1.5010034,-0.39415985,2.9592333,-3.8738184,3.0597897
1570715394,-7.441179,-7.6949644,-3.9456444,0.46340418,-0.046873067,-0.49749365,-11.784261,-3.4093432,-10.860099
1570715394,-23.731327,4.357447,7.422025,-2.0570884,-1.8142006,0.8735435,-27.131094,8.643068,3.6966474
1570715394,-4.4580035,0.095768064,-4.984728,-2.2701478,1.3294905,1.8536167,-14.331692,7.848193,-6.2584434
1570715394,10.424355,-5.185841,1.3790601,-1.5233747,2.3702857,-0.39522517,2.4037786,2.1404164,-5.827487
1570715394,13.575124,-5.5976434,6.861782,-0.0074570784,0.92041653,-1.4967422,7.8769236,1.2737153,2.801216
1570715394,28.816612,-72.74542,13.570335,0.02130594,1.8387026,-2.0187378,23.199814,-66.02251,16.371552
1570715394,-6.670246,6.2392898,3.0693667,-1.0535786,0.63385165,1.09406,-12.310986,12.947843,-1.316811
1570715394,3.6487634,-20.417751,2.566584,-4.39435,-0.0031958907,2.5705614,-1.5610195,-13.038822,-1.2497733
1570715394,13.192051,-20.427328,13.144167,-4.840709,2.6675036,2.1732059,8.7532015,-12.239159,10.065224
1570715394,21.045033,-7.8146744,11.319786,-3.576202,0.9747467,3.035031,17.410635,1.043872,9.208099
1570715394,0.20590134,-5.391742,12.143391,-4.4731817,1.2250915,2.1689446,0.08140286,3.6774938,11.659762
1570715394,-0.47884035,-2.078167,5.9663506,-5.051638,1.3284253,1.1217576,-4.4005427,6.181829,5.8466406
1570715394,13.599066,17.683575,-2.087744,0.35367858,-0.05646074,0.9715508,11.429919,27.212496,-1.3215994
1570715394,4.9943047,8.858546,12.200851,1.8355067,-0.064983115,1.0567746,3.1028855,18.47366,12.516887
1570715394,-3.0262709,3.7972038,0.91458505,3.598573,-1.8525513,-0.14594568,-4.7884035,13.431472,0.50278234
1570715394,0.78529817,-6.5840545,6.3829417,3.820155,-1.8344413,-0.76168734,-1.1971009,2.9113493,4.9464207
1570715395,-0.2825158,-7.2113357,4.6591167,3.627336,-2.6664383,-2.1050267,-2.7581203,1.9871874,2.3415294
1570715395,-0.7565677,-40.749313,28.945898,5.898549,-4.4220476,-3.3301182,-4.1802764,-32.192436,25.589228
1570715395,24.722527,-41.60165,-9.916783,4.002321,-1.2794216,-4.692633,19.58457,-34.256237,-13.900735
1570715395,10.658986,17.338808,3.2992098,3.6752744,0.99392205,-2.8518,5.032612,23.707386,-1.5897499
1570715395,10.749966,-9.993398,14.06354,1.2858135,-1.7438911,-1.1238883,4.2760444,-4.8123455,8.863335
1570715395,-0.8283938,-13.450625,-7.264008,1.2314832,0.15766394,-0.4538165,-7.101202,-7.9248075,-12.392388
1570715395,-7.824251,-2.1978772,3.4620156,-1.1707613,-0.5496932,0.6871165,-13.977349,3.3087866,-1.8243817
1570715395,-21.016302,4.0462008,3.0310593,-2.8390164,-2.2051647,1.9548199,-27.547686,8.959103,0.91458505
1570715395,-1.4269443,1.412579,-3.1747115,-1.5233747,2.3298044,0.71907544,-10.0269165,8.66701,-6.3589997
1570715395,9.959879,-7.723695,0.770933,-0.10866029,0.9523755,-0.68924713,3.1411927,0.7469909,-3.4332852
1570715395,18.602947,-32.427067,-6.7133417,-1.8972938,3.3674035,-1.6213819,12.828133,-12.765883,-17.630901
1570715395,-9.02614,1.1587936,-0.93852705,-0.27058542,-0.3781804,0.41653112,-8.2169,-0.7230489,-5.00867
1570715395,1.0295067,-11.918336,5.9902925,-3.6390543,0.7510343,0.92574304,-5.329493,-1.7142484,3.1986535
1570715395,5.0038815,-19.76653,10.352529,-4.401807,2.6493936,0.9736814,0.7134721,-13.723564,3.5003228
1570715395,15.9022875,-9.078813,19.52711,-5.4916058,3.150083,2.3979833,9.380483,-3.7828386,13.503298
1570715395,13.120225,-9.160215,13.057976,-4.8236647,1.3966043,2.2914536,13.661315,1.2018893,11.707646
1570715395,7.144298,-7.5704656,7.2113357,-4.380501,1.4754362,0.5230608,3.2369606,1.7717092,8.418014
1570715395,9.160215,4.280833,4.4580035,-2.884824,0.5827174,-0.12783563,5.2624555,10.644621,6.861782
1570715395,12.196063,15.98369,6.042965,-0.18110047,-0.56247675,0.9726161,9.437943,25.373749,6.6654577
1570715395,-2.0685902,14.973337,5.9807158,2.7633803,-1.9090121,1.2389404,-2.6431987,27.174189,8.145074
1570715395,-6.3589997,-6.469133,1.8722657,3.7839348,-2.6845484,-0.3163932,-8.671799,6.3302693,0.31124622
1570715395,-2.791639,-13.311762,4.8362875,3.9703617,-3.2800493,-2.02726,-5.592855,-5.0517654,0.8762778
1570715395,-2.906561,-29.822176,23.319525,4.047063,-1.9644076,-2.9870925,-6.9527617,-17.51119,18.29649
1570715395,10.357317,-44.527363,6.540959,4.295277,-5.245522,-7.1875587,5.4922986,-36.554672,3.53863
1570715395,20.451271,5.674258,0.7038953,5.9965563,0.40587813,-2.5215578,12.588713,7.5082164,-9.097966
1570715395,12.454638,-15.887922,16.94616,3.053141,-2.030456,-1.4786321,9.576807,-10.204087,14.528016
1570715395,-4.7070007,-19.302053,-2.944868,1.8887714,-0.66794115,-0.72759783,-11.616667,-14.020445,-7.469909
1570715395,-12.306197,6.325481,-2.9113493,-1.7715888,-0.98859555,0.12783563,-19.330784,11.496957,-7.3885064
1570715395,-12.823344,9.739613,-0.842759,-1.4679792,-0.2428877,2.4544442,-19.752165,15.509639,-4.687847
1570715395,2.0925324,0.78050977,-4.9895163,-0.6125457,2.016607,1.3635801,-4.2904096,7.043741,-9.006987
1570715395,12.756307,-8.848969,-0.1388637,-1.0503827,0.5358444,0.053264845,6.6175733,-2.360683,-4.1946416
1570715395,17.353174,-30.933086,7.651869,-1.1686307,2.2882578,1.9431016,11.429919,-24.22932,3.6296098
1570715395,2.9017725,-6.3111157,3.9504328,-0.4474247,-1.736434,-0.14488038,-2.7724855,0.6751649,0.062249243
1570715396,-12.3876,-6.105214,6.6893997,-2.6184998,0.37604982,3.1724544,-17.650055,1.3455414,3.098097
1570715396,7.249643,-31.10068,3.7972038,-4.311257,3.785,2.5119703,3.0454245,-22.720974,0.91458505
1570715396,26.072857,-8.12592,12.306197,-4.8279257,0.4847101,1.7129974,22.529438,0.78050977,10.242394
1570715396,-4.8362875,-4.7165775,12.109872,-5.154972,2.174271,1.99104,-7.6470804,4.6351743,11.219229
1570715396,1.3934253,2.4420857,5.3678,-3.7051027,1.4818281,0.5880439,-1.0534488,11.932701,5.631162
1570715396,16.46732,21.801601,4.2425256,0.82134396,-0.57632565,-0.2098635,13.977349,31.273062,4.7070007
1570715396,3.9217024,11.592725,8.384495,3.4334521,-1.416845,0.05539544,1.412579,21.068975,8.250419
1570715396,-2.207454,-5.070919,2.6719291,3.7732818,-2.0176723,-0.6317211,-4.8267107,4.3143516,1.5897499
1570715396,-2.9592333,-13.263878,6.7708025,2.4565747,-2.3266084,-1.1643696,-5.9041014,-4.0701427,5.0421886
1570715396,-3.0454245,-17.137695,13.948619,3.8702238,-3.4515622,-3.5154798,-7.905654,-6.909666,4.903325
1570715396,24.650702,-60.439228,1.340753,4.295277,-3.6997762,-5.865525,19.25417,-52.734688,-1.4460979
1570715396,17.851168,-2.0015526,-8.796297,5.6545963,-1.4892851,-2.6536546,14.302961,-8.710106,-15.35641
1570715396,8.355764,-8.149862,21.878216,2.1050267,0.02130594,-0.60189277,3.016694,5.473145,16.673222
1570715396,4.462792,-17.827227,0.49799395,1.7108669,-0.9726161,-0.67646354,-0.9672575,-11.018116,0.545878
1570715396,-0.91458505,-3.2561142,-4.793192,1.1238883,0.36433154,-0.2823037,-9.500193,-0.4357447,-11.60709
1570715396,-9.868899,0.7422025,2.2409728,-2.231797,-1.6693203,0.95663667,-14.714764,6.0621185,-4.0797195
1570715396,-13.503298,0.38307226,3.6727054,-2.2797353,0.13422741,1.786503,-22.539015,6.540959,0.11492168
1570715396,1.2689269,-0.89543146,-3.490746,-1.3358823,1.7705235,1.6810386,-6.3446345,6.588843,-5.631162
1570715396,6.215348,-6.933608,-3.5529952,-1.9857135,1.0344033,0.60934985,-0.6512229,1.340753,-8.010999
1570715396,20.187908,-40.1364,21.887793,-0.7936462,3.1458218,-1.9431016,3.3087866,-22.132,2.566584
1570715396,-2.0398598,-1.4030021,3.6152446,-0.204537,2.712246,-0.68498594,0.18674773,0.8379706,-0.5410896
1570715396,4.1659107,-10.290278,7.9008656,-3.9362721,-0.9917914,2.6568506,-8.571242,-0.79008657,5.746084
1570715396,14.45619,-18.162415,13.962984,-4.21538,1.1878061,1.3774289,7.776367,-11.329363,9.514558
1570715396,20.39381,-12.172121,8.475474,-4.146136,-0.47192654,3.7807388,15.777789,-3.643975,6.9767036
1570715396,6.191406,-6.05733,12.603078,-4.1280255,0.85543346,1.550007,4.55856,0.20590134,12.157756
1570715396,3.8977604,2.5953147,9.02614,-3.8734198,1.1281495,-0.14061919,-0.6895301,10.515334,11.899182
1570715396,11.8896055,21.006725,2.8491,0.07350549,-0.057526033,1.1952631,7.819463,27.222073,0.8331822
1570715396,5.4779334,14.211981,13.982138,2.4320729,-0.61361104,1.3816901,2.5187001,23.525425,14.81532
1570715396,-2.4899697,4.572925,2.2984335,3.7189517,-1.9111427,0.15020686,-5.209783,13.9917145,2.4229321
1570715396,-2.7820623,-8.135497,5.6215854,4.0353446,-2.3937223,-0.35687447,-5.583278,1.2210429,4.7548847
1570715396,-4.5202527,-11.611878,5.1666875,4.279298,-3.1170588,-1.4701098,-7.690176,-2.4851813,3.4572272
1570715396,0.37828386,-40.347088,22.668303,4.8737335,-3.720017,-4.0875444,-3.6727054,-31.847672,19.924547
1570715396,22.337902,-32.62818,-9.471462,4.1887474,-3.2598085,-4.5221853,16.606182,-25.306711,-12.5982895
1570715397,20.958841,9.141062,9.437943,4.7373753,2.0283253,-2.536472,14.657303,15.380352,5.2480903
1570715397,10.093954,-13.311762,13.445837,2.249907,-1.2059162,-1.0599705,3.53863,-7.7811556,8.6813755
1570715397,-3.3997664,-11.295844,-5.4444146,2.812384,-0.49216717,-0.7307937,-10.19451,-6.253655,-10.395624
1570715397,-11.128249,0.4261679,1.7477672,-1.5063299,-2.037913,0.46766534,-18.128895,5.377377,-2.9975405
1570715397,-21.226992,-5.707777,2.2457612,-2.2339277,-1.1270841,2.1838586,-29.597122,-0.21547815,-0.7757214
1570715397,0.50757074,0.9576807,-2.4995465,-2.3851998,2.3223474,1.0024444,-5.93762,7.1730285,-6.483498
1570715397,12.181698,-3.5051112,2.6048915,-1.0013791,1.6810386,0.028763017,6.0956373,2.9975405,-1.4987702
1570715397,15.533581,-12.052411,-10.036493,-2.9402196,1.0237503,0.27271602,9.543288,-5.377377,-14.001291
1570715397,8.892065,-52.500053,12.038046,-0.72014076,-1.636296,0.44103295,3.3614593,-45.341393,8.236053
1570715397,-8.480263,14.451402,5.080496,-2.0847862,2.0741332,0.9332001,-11.583148,19.445705,-1.9393034
1570715397,3.3087866,-12.818556,-1.982399,-5.018614,1.3230988,1.1324106,-8.772355,1.412579,3.323152
1570715397,25.474306,-24.349031,18.492813,-6.27886,2.2669518,3.2065437,21.38022,-15.662868,16.49126
1570715397,13.211205,-8.892065,12.981361,-4.4614635,1.0194892,2.8944118,18.26297,-6.2392898,13.728353
1570715397,-0.16759412,-5.032612,8.073248,-4.5754504,0.80749506,1.3135111,-2.9831753,4.3622355,8.652645
1570715397,1.934515,2.3894134,-2.2170308,-3.1948254,1.11217,1.2570504,-0.59376204,11.779472,-0.9576807
1570715397,16.994043,18.449718,12.737153,1.550007,0.8021686,1.172892,16.31409,28.797459,10.807426
1570715397,0.22505496,8.020576,5.995081,2.9050648,-2.171075,0.83732337,0.4213795,17.860744,11.420342
1570715397,-3.4380736,-0.019153614,4.3143516,4.3858275,-2.407571,0.046873067,-5.5737014,13.053187,2.9400797
1570715397,-1.9680338,-13.177686,6.090849,5.301983,-4.2430778,-0.3078708,-3.2800562,-1.2018893,3.6296098
1570715397,-6.4068837,-32.21159,24.004267,4.264384,-2.644067,-1.8355067,-9.385271,-21.222204,18.435352
1570715397,12.559982,-42.8179,2.078167,3.9703617,-4.3570642,-6.730546,2.6527755,-36.08062,0.7182605
1570715397,15.658079,-1.5658079,-2.231396,4.146136,1.4892851,-2.4480524,8.710106,-0.5506664,-8.925584
1570715397,15.279796,-7.0581064,9.773131,2.9466114,-1.2133732,-1.8951633,10.927136,1.5227122,6.3206925
1570715397,2.8299465,-15.691598,-1.6519991,1.0471869,-0.85543346,-1.5276358,-0.7517793,-10.041282,-6.042965
1570715397,-13.455414,-3.5769374,-1.4460979,-0.0010652969,0.40374753,-0.79151565,-16.970102,0.41180268,-7.489063
1570715397,-19.70428,0.5602432,-0.08619126,-2.9583297,-1.2815522,2.0794597,-28.63944,6.042965,-1.5179238
1570715397,1.8818425,4.429273,-5.0278234,-2.7069194,1.6565367,0.67326766,-7.2209125,10.716447,-7.8290396
1570715397,11.247959,-1.3742718,0.6464345,-0.8096257,1.2911398,-0.71481425,5.0517654,6.694188,-4.390966
1570715397,8.159439,-36.669594,-3.6104562,-2.2104912,4.434831,0.0031958907,2.3319526,-13.005303,-17.089811
1570715397,2.054225,3.4141316,-0.36391866,-1.3838208,0.24608359,-0.6157416,4.0462008,3.2609026,-6.066907
1570715397,-0.8762778,-4.261679,8.968679,-3.663556,-0.04154658,1.0642316,-7.771579,8.892065,7.0724716
1570715397,10.275913,-25.957935,11.707646,-4.836448,2.8347552,2.948742,3.5482068,-18.938135,2.4899697
1570715397,21.193474,-15.892711,18.11453,-5.6162453,1.7161933,2.951938,17.444153,-7.1155677,15.83525
1570715397,8.259995,-5.353435,10.16578,-4.753355,0.9726161,2.0155418,5.2385135,3.9121256,9.093178
1570715398,-0.8858546,-3.1747115,7.445967,-4.695829,1.4093878,0.26632422,-4.525041,5.7269306,7.872135
1570715398,10.7116585,13.809755,-5.6982,-1.2708993,-0.3206544,0.6626147,8.082825,23.190237,-4.5920787
1570715398,13.077129,17.33402,13.977349,2.0187378,-0.05646074,2.0283253,10.860099,26.853367,14.729129
1570715398,-3.9312792,4.333505,4.0174704,3.2225232,-2.4565747,1.0397298,-5.6359506,13.986926,4.074931
1570715398,-4.8602295,-4.4196963,3.7493198,4.247339,-3.1042752,-0.07350549,-6.5457473,5.1906295,2.7964275
1570715398,-0.7422025,-9.595961,3.98874,4.286755,-3.9842105,-1.5255052,-2.801216,-0.21068975,2.006341
1570715398,-6.2105594,-32.39355,32.70001,5.86659,-4.3346934,-2.460836,-9.054871,-23.549368,29.554026
1570715398,24.875755,-54.97566,-11.592725,3.652903,-2.9508724,-7.1630564,20.015526,-47.29985,-15.284584
1570715398,12.650962,11.832145,1.7812861,4.7448325,1.8738573,-3.2992246,7.144298,18.363527,-3.0310593
1570715398,8.954314,-11.003751,15.490485,2.160422,-1.7215198,-1.4360203,3.1172507,-5.2624555,10.084377
1570715398,-0.7661445,-16.888699,-9.3182335,1.6948874,-0.67752886,-0.8479764,-7.0581064,-11.63582,-14.700398
1570715398,-13.263878,-5.171476,2.96881,-1.8951633,-1.4157796,0.32598087,-19.637243,0.05267244,-2.336741
1570715398,-15.136143,0.93373865,0.4165911,-3.1639318,-1.8269843,2.8422122,-23.870192,6.4499793,-2.0207062
1570715398,1.436521,3.0597897,-8.322245,-3.3098776,2.4810765,1.3891472,-4.271256,9.959879,-12.315774
1570715398,7.8769236,-2.2840683,4.644751,-0.89165354,1.5478765,-0.73185897,2.480393,4.8745947,0.6703765
1570715398,13.608643,-63.082428,18.698715,0.34089503,3.8521137,-2.0741332,8.1881695,-56.11051,14.42746
1570715398,-1.7238252,1.2306197,0.31124622,-0.89165354,2.3628285,0.07457078,-10.884041,8.963891,-1.13964
1570715398,1.0390835,-2.1739352,6.6846113,-4.0268226,0.33556855,1.3550577,-7.728483,9.907207,3.845088
1570715398,19.665974,-28.31383,19.077,-5.456451,2.536472,1.0344033,12.804191,-21.878216,16.16565
1570715398,15.433024,-15.945383,13.910312,-4.4827695,0.37178862,3.5112188,13.168109,-5.1906295,8.968679
1570715398,3.3518825,-2.183512,14.901511,-5.3296804,1.0770152,1.9068816,3.2561142,3.8498764,14.887146
1570715398,1.3120226,-3.6152446,8.590396,-4.9664145,1.3476006,0.26206306,-1.4556746,5.7604494,11.022904
1570715398,13.000515,22.017078,0.92895025,0.21625528,0.05113425,0.98007315,6.5457473,27.720068,-1.7764976
1570715398,6.9958572,10.338163,12.593501,2.7133112,-1.230418,1.6895609,7.493851,23.678656,15.729905
1570715398,-3.4715924,1.7717092,1.2976574,4.1695724,-2.812384,0.01065297,-4.2521024,13.019669,2.2409728
1570715398,-2.944868,-8.848969,6.0381765,4.309126,-3.0904264,-0.22264706,-6.339846,0.7326257,3.5098996
1570715398,-0.23942018,-11.190498,5.6982,3.9799492,-3.7764776,-1.7385646,-1.5753847,-2.3175871,3.7349546
1570715398,-2.006341,-33.29377,26.973076,5.127274,-5.070813,-3.6976457,-7.1155677,-18.210299,25.03856
1570715398,17.051504,-41.884163,-10.0508585,4.501945,-2.8837588,-4.499814,13.651738,-45.52814,-12.516887
1570715398,17.00362,8.350976,5.913678,4.477443,1.2570504,-2.90613,9.849746,14.489709,-4.2664676
1570715398,11.477803,-9.653421,11.664551,1.9026203,-1.6639938,-0.63917816,6.3829417,-3.3854012,9.050082
1570715398,-3.821146,-12.5264635,-5.961562,1.7598705,-1.1238883,-0.4847101,-7.302315,-8.307879,-7.28795
1570715398,-15.749059,0.9576807,5.080496,-1.5063299,-1.6139249,0.90869826,-17.568651,6.0525417,-1.1875241
1570715399,-20.925323,-1.8914193,-0.5746084,-2.5524514,-0.99711794,2.45764,-27.523743,4.1036615,-4.6495395
1570715399,0.60333884,2.3175871,-5.8466406,-2.543929,1.8344413,0.74357724,-5.583278,8.901642,-9.653421
1570715399,10.869676,-3.1364043,3.7972038,-0.75316495,1.6054025,-0.14488038,4.9416323,3.6535518,-0.05746084
1570715399,24.372972,-53.14649,5.5880666,-0.8042992,2.7537925,-1.0418605,18.483236,-46.423573,1.5370775
1570715399,-4.721366,2.9975405,3.1747115,-0.83732337,0.99392205,0.46660006,-10.596737,9.56723,-1.115698
1570715399,-6.244078,-11.841722,5.837064,-4.3187137,-0.046873067,2.9508724,-11.602302,-4.620809,1.9153614
1570715399,5.2289367,-22.720974,13.10586,-4.5179243,3.7466493,1.7087363,0.61770403,-14.609419,10.084377
1570715399,27.581203,-11.7268,12.962208,-5.653531,1.5382888,2.7687068,23.69781,-2.944868,10.960655
1570715399,3.6870706,-6.775591,10.58716,-5.0527034,1.3635801,2.156161,0.6895301,2.5187001,9.715671
1570715399,2.657564,-0.545878,7.005434,-5.0100913,1.5872924,0.054330144,-0.14844051,8.839393,7.431602
1570715399,5.386954,7.6375036,-4.003105,-2.0826554,-0.028763017,0.6626147,2.6671407,16.950949,-2.5905263
1570715399,9.878476,8.901642,-6.172252,-1.2282873,-0.21625528,0.7680791,2.6671407,16.950949,-2.5905263
1570715399,9.878476,8.901642,-6.172252,-1.2282873,-0.21625528,0.7680791,2.6671407,16.950949,-2.5905263
1570715399,-8.848969,8.1642275,-2.4037786,2.90613,-1.5191134,0.10120321,-10.888829,17.731459,-1.7429788
1570715399,0.79487497,-9.212888,0.24899697,5.066552,-2.3596327,-1.4839586,-1.5514427,0.272939,-0.5602432
1570715399,-0.11492168,-22.70182,8.485051,7.120445,-4.011908,-0.10120321,-2.7102363,-13.417107,6.679823
1570715399,1.0103531,-45.116337,34.37595,6.9489317,-1.6586673,-0.9395919,-2.1404164,-30.29144,23.113623
1570715399,17.626112,-21.969194,-5.2385135,4.3442807,-3.1223853,-2.1934464,12.751518,-14.326903,-8.983045
1570715399,12.119449,-3.5577838,17.137695,3.2129354,-1.0567746,-1.3816901,6.6846113,3.0550013,12.349293
1570715399,8.571242,-12.454638,2.4468741,1.912208,-3.2704616,-1.3113805,3.6774938,-6.2728086,1.8818425
1570715399,-2.9352913,-2.2457612,-8.384495,2.2339277,0.64450467,-0.42611876,-7.881712,-0.6607997,-14.211981
1570715399,-22.270864,0.7134721,12.368446,-1.0354686,-3.2736576,1.7268463,-27.001806,5.3725886,3.8498764
1570715399,-12.847286,4.050989,-4.984728,-2.1337898,-0.15872924,2.712246,-22.036232,11.975797,-7.6710224
1570715399,2.719813,0.272939,-7.953538,-1.8429637,2.4065058,0.74464256,-4.4436383,7.73806,-11.554418
1570715399,9.524135,-5.45878,8.925584,-0.22264706,-0.68924713,-0.5976316,4.0222588,2.8874073,2.5761611
1570715399,13.479356,-23.381773,-23.305159,0.8660864,2.8038616,-1.510591,8.1881695,-6.373365,-21.68189
1570715399,14.06354,-13.187263,-0.5650316,1.822723,-2.7452703,-2.0613496,25.00983,-38.154,13.857639
1570715399,-18.574217,18.521544,9.763555,-0.3440909,-0.79151565,1.9558852,-23.089682,25.354595,2.3558946
1570715399,4.5202527,-25.076868,-5.746084,-4.674523,1.6299043,2.7740333,-7.053318,-9.351752,-8.063671
1570715399,30.899567,-25.134329,7.872135,-4.1376133,0.81601745,1.3731678,22.898146,-28.783092,12.794614
1570715399,0.6464345,-4.414908,13.876793,-3.4781945,2.5556474,3.1905644,-0.01436521,4.43885,7.3885064
1570715399,-4.6399627,-2.834735,13.52724,-4.498749,1.57877,1.6458838,-7.603985,6.244078,11.314998
1570715399,8.058883,9.088389,-1.9967642,-2.7452703,1.7396299,0.6327864,3.8738184,16.859968,-1.2401965
1570715400,13.623008,8.422802,3.8019924,0.1384886,0.85543346,0.60934985,12.952631,18.08101,1.0773908
1570715400,-3.8402996,9.940725,3.9264908,1.2272221,-0.3163932,-0.2056023,-3.4572272,18.904617,5.0900726
1570715400,-2.2266076,0.8619126,0.08619126,3.3642077,-0.5933704,-1.4445426,-6.8186865,11.884817,-3.0310593
1570715400,-0.3878607,-9.734824,4.735731,3.2480903,0.005326485,-2.0847862,-3.1794999,1.043872,2.5809495
1570715400,-2.9113493,-23.779211,29.913157,4.3506727,0.13422741,-2.6760259,-5.9184666,-3.9935284,16.55351
1570715400,21.255722,-62.450356,2.2505496,3.4238644,-1.9185997,-5.8079987,16.543934,-55.042698,-2.1260512
1570715400,22.203827,-5.674258,-10.13705,4.756551,-2.005954,-0.4527512,16.654066,-7.2592196,-16.247053
1570715400,15.093047,19.747375,13.297397,2.077329,-0.19921052,-1.3262947,9.131485,25.292347,7.8290396
1570715400,0.076614454,-12.243947,15.064317,-0.12783563,-2.2264707,-1.2293527,-6.2488666,-7.0724716,9.639056
1570715400,-6.0381765,-8.327033,-13.28782,1.4264326,-0.122509144,-0.1054644,-12.670115,-3.3135753,-18.488026
1570715400,-2.1068976,0.9768343,-0.34955344,-1.0184239,-3.1404953,2.9306319,-8.714894,6.2823853,-5.2768207
1570715400,-4.6255975,8.532935,1.6711528,-2.726095,0.3057402,3.2171967,-10.922348,14.781801,-2.504335
1570715400,-2.743755,5.2768207,-0.07182605,-2.3361962,1.3507965,0.5145384,-8.480263,12.176909,-4.012682
1570715400,2.1978772,-0.6464345,-2.8395233,-0.07457078,-0.8011033,-1.2282873,-3.7014358,6.2392898,-6.564901
1570715400,4.074931,-7.699753,-9.198523,-0.67539823,0.42824936,-0.8096257,-2.0254946,-0.9959879,-12.933477
1570715400,45.451527,-93.70905,30.497341,1.2826176,1.3199029,-1.5020686,39.557,-87.10584,26.26918
1570715400,-3.0023289,1.8674773,-0.91458505,2.489599,-1.4573262,2.7740333,-9.179369,8.240842,-5.080496
1570715400,-4.5872903,-7.9008656,8.978256,-4.006582,2.2392542,3.4526274,-9.983821,-0.90021986,4.7261543
1570715400,15.107412,-34.452564,15.116989,-2.386265,1.4413468,0.8266704,4.309563,-25.847801,4.817134
1570715400,8.825027,-5.5880666,1.7046716,-2.2935843,1.0908641,2.977505,9.351752,-0.8283938,-4.285621
1570715400,-3.3327289,-4.2425256,14.824897,-3.0542064,0.9694202,1.4615874,-5.3486466,5.4204726,14.365211
1570715400,1.8914193,-0.11492168,-0.8475474,-3.0265086,0.9459837,0.54117084,-1.9776106,7.776367,-3.2465374
1570715400,6.191406,5.3725886,1.412579,-1.406192,1.1931325,-0.0085223755,1.8435353,13.608643,-0.4357447
1570715400,7.273585,7.240066,-1.1827357,0.7382508,0.5198649,0.43890235,4.644751,16.261417,-4.213795
1570715400,-1.5514427,5.3103395,4.721366,1.503134,-0.3057402,0.15766394,-3.514688,14.408306,3.86903
1570715400,-3.2034419,-0.4309563,-0.08140286,2.2776048,-0.9353307,-1.5979455,-5.559336,10.055647,-2.0350714
1570715400,-12.952631,-19.393034,7.73806,4.1237645,0.089484945,-2.5886714,-11.683704,-2.456451,-2.1691468
1570715400,18.55985,-51.88235,15.030798,3.6518378,-1.7588053,-6.1829834,5.8705826,-49.70363,30.4734
1570715400,28.203695,-10.649409,-16.429012,4.0918055,-0.16192514,-0.3781804,24.152706,-11.707646,-21.691467
1570715400,18.042704,19.6133,7.6231384,3.9011173,0.8351928,-1.0099015,12.717999,24.392126,-4.0414124
1570715400,4.8219223,-11.659762,20.566193,0.32278496,-2.1476386,-0.8692823,2.1452048,-5.0421886,16.141708
1570715400,-2.7006595,-15.998055,-4.3718123,0.8011033,-2.059219,-0.28869548,-7.015011,-12.29662,-4.534618
1570715400,-5.602432,-1.1683705,-9.011775,1.5446806,-0.5187996,0.9619631,-12.152967,3.1124623,-18.306067
1570715400,0.08140286,1.6472107,-1.2018893,-1.8110048,-3.0275738,3.275788,-7.3166804,6.9862804,-6.3685765
1570715401,-1.733402,2.753332,1.8100165,-2.8826935,0.7766015,2.8976076,-6.6750345,8.762778,-2.6048915
1570715401,1.283292,1.8914193,1.8914193,-1.4136491,1.1899366,0.8639558,-5.0613422,8.202535,-2.0685902
1570715401,3.4045548,-0.33997664,-0.9528923,0.3472868,-1.0631664,-0.527322,-2.1404164,8.183381,-3.9312792
1570715401,6.5505357,-9.289502,-4.7405195,-1.6852998,1.9771911,-0.47831833,-1.0007763,0.7565677,-16.395493
1570715401,25.737669,-37.99598,0.47884035,3.8755503,-0.92041653,-2.7889473,21.102493,-44.36456,3.7110126
1570715401,-6.3925185,-1.5131354,14.561535,2.407571,-0.36220095,2.8613875,-12.26789,4.381389,9.375694
1570715401,9.557653,-27.925968,3.8067808,-2.5780187,1.4956769,1.6139249,4.9895163,-20.973207,0.91458505
1570715401,11.15698,-12.564771,1.6089035,-0.886327,0.04793836,1.2368097,6.1626754,-6.445191,-2.2936451
1570715401,4.6830587,-11.583148,8.2169,-1.0823417,0.77447087,2.0357823,0.07182605,-4.2760444,3.572149
1570715401,1.508347,-7.249643,7.445967,-2.1646833,1.2186997,2.142312,-2.432509,0.58418524,3.0597897
1570715401,3.2225955,-7.503428,5.707777,-2.4778807,1.0503827,0.85543346,-0.23942018,0.7757214,1.757344
1570715401,4.8027687,-3.0119057,5.683835,-1.8408331,0.95131016,0.8383887,1.6807296,5.592855,2.1739352
1570715401,7.043741,-0.94331545,1.5466543,-1.3870167,0.7723403,1.0067056,4.2425256,7.9008656,-1.6280571
1570715401,3.9312792,0.8571242,3.8642416,-1.1292148,0.96089786,0.868217,1.910573,9.548077,0.9528923
1570715401,1.2018893,1.2210429,0.89064306,-0.771275,0.32385027,0.9321348,-0.9720459,10.400413,-1.7812861
1570715401,2.504335,-1.6519991,0.6464345,-0.30041373,0.5571503,0.66900647,0.49799395,7.800309,-2.566584
1570715401,1.388637,-6.3350577,4.2904096,0.15233746,-0.78618914,-0.5102772,-0.5746084,2.906561,1.6807296
1570715401,4.367024,-14.494497,0.4261679,1.765197,-2.992419,-0.43251055,2.0398598,-5.3678,-2.3080103
1570715401,-8.700529,-32.738316,9.624691,3.6252055,-1.1249535,2.048566,-10.85531,-23.855825,6.0621185
1570715401,4.3239284,-27.32263,8.628703,1.172892,-2.3127596,0.3462215,2.303222,-18.636467,4.5441947
1570715401,14.211981,-12.071565,0.7278373,-0.06285252,-5.593874,-0.39948636,11.60709,-3.4093432,-3.0693667
1570715401,9.361329,-8.623915,0.033518825,0.936396,-2.7346172,-0.31532788,6.2105594,-0.047884032,-3.5290532
1570715401,1.7142484,-9.088389,-0.4261679,1.3902125,-0.32491556,-0.31532788,-1.661576,-0.6799533,-4.185065
1570715401,-1.340753,-8.010999,2.111686,2.001693,-1.0184239,1.0525134,-4.8123455,0.15322891,-2.1978772
1570715401,-0.45968673,-8.446744,4.223372,0.95663667,-2.1540303,1.7396299,-3.620033,0.19153613,-0.22505496
1570715401,-0.22026655,-5.7604494,5.971139,-1.1686307,-1.0471869,1.4775668,-3.4811692,2.3654714,1.4460979
1570715401,0.21547815,-4.2281604,2.8538885,-1.3721025,0.1747087,2.6643076,-2.753332,3.98874,-1.0055647
1570715401,3.8881836,-6.167464,1.4748282,-0.41866168,0.054330144,2.9221096,2.0638018,4.0701427,-1.292869
1570715401,6.2345014,-6.7324953,-0.5746084,-0.39629045,1.2155038,1.0013791,4.453215,2.7964275,-3.0071173
1570715401,4.7788267,-9.888053,4.1132383,-2.0080848,2.2861273,-2.2360582,4.098873,-0.4261679,-1.2880806
1570715401,3.4763808,-9.591172,7.704541,1.6650591,-0.9065677,-2.324478,2.087744,-0.34476504,5.482722
1570715401,5.1235914,-8.930372,3.7493198,1.6693203,-0.66794115,-0.7936462,1.8387469,-0.20590134,-1.0869676
1570715401,8.030152,-11.314998,10.745177,1.4040613,0.5262567,-0.03728539,5.6120086,-1.8243817,7.666234
1570715402,6.3350577,-11.45865,11.066,1.7662623,0.27271602,-2.0997002,4.156334,-3.8307228,5.592855
1570715402,2.9496565,-7.120356,10.405201,2.568431,-0.54223615,-3.5154798,0.37349546,0.8762778,5.865794
1570715402,0.60812724,-6.220136,10.606314,3.006268,-0.99711794,-4.0449324,-3.4572272,0.21547815,5.085284
1570715402,1.043872,-5.93762,7.441179,2.3095639,-0.16192514,-3.4291909,-3.7062242,0.90500826,1.982399
1570715402,-0.1436521,-5.7125654,10.524911,2.7601843,1.0418605,-3.2044132,-5.659893,-1.3120226,3.739743
1570715402,0.6943185,-3.8881836,10.338163,3.7583675,-0.16085984,-2.0315213,-5.3247046,0.30645782,3.6152446
1570715402,1.1731589,-4.3143516,9.136273,3.3482282,0.47299185,-1.8514861,-4.9895163,-1.4269443,2.1212628
1570715402,2.5953147,-2.4756045,7.9631147,2.8294287,1.6554714,-2.0890472,-3.620033,-0.59376204,1.1923125
1570715402,2.7389667,-4.4436383,8.030152,3.1042752,2.759119,-2.145508,-2.6671407,-3.5865142,0.009576807
1570715402,2.992752,-2.4037786,8.480263,3.9266846,2.22434,-2.2935843,-1.8243817,-2.777274,-0.05267244
1570715402,3.715801,-1.8387469,6.3063273,3.9767535,1.9771911,-1.6959528,-0.5554548,-3.5290532,-2.3511062
1570715402,3.6727054,-1.982399,6.445191,3.580463,2.7186377,-1.5350928,0.1436521,-4.8267107,-2.2457612
1570715402,3.217807,-0.45968673,7.302315,3.2022827,2.2552335,-1.32736,0.49320555,-4.31914,-1.2880806
1570715402,3.4380736,1.8722657,9.294291,2.6131735,0.9662243,-0.8767394,1.2641385,-2.801216,0.9528923
1570715402,4.1515455,1.5370775,7.905654,1.492481,-0.23543063,-0.14274979,2.0590134,-3.6583402,-0.1388637
1570715402,9.107543,3.289633,7.5561004,0.5230608,0.47512242,-0.4570124,7.062895,-2.1164744,-0.36391866
1570715402,7.967903,5.473145,8.269572,0.674333,1.2677033,-1.162239,6.2871737,-0.11971009,0.3878607
1570715402,3.6822822,5.12838,9.710882,1.4221714,0.7595567,-1.1846102,2.4708161,-0.7757214,1.9728222
1570715402,1.091756,3.6727054,9.878476,1.628839,-0.6540923,-0.73612016,0.062249243,-2.6288335,2.432509
1570715402,0.9672575,4.912902,8.101978,1.13028,-1.9345793,-0.33876443,-0.2777274,-1.6998832,0.9720459
1570715402,3.3806129,5.9663506,5.142745,0.65089643,-2.2435153,-0.37391922,1.7046716,-0.8379706,-1.70946
1570715402,4.486734,6.2632318,4.098873,0.07563608,-0.789385,-0.7883197,2.4756045,-0.6751649,-2.6288335
1570715402,2.336741,5.81791,6.6271505,0.018110048,-0.120378554,-0.68924713,0.60812724,-1.1061212,-0.095768064
1570715402,1.7669208,5.60722,7.101202,0.3845722,-0.2769772,-0.36859274,0.15801731,-1.2737153,0.5363012
1570715402,1.6759412,5.171476,5.7029886,0.6551576,-0.3813763,-0.37285393,0.062249243,-1.9057846,-0.60333884
1570715402,0.8858546,5.329493,4.5298295,0.91722065,-0.50814664,-0.53371376,-0.7613561,-1.9871874,-1.7860745
1570715402,1.508347,6.445191,3.4332852,0.986465,-0.7467731,-0.6253293,-0.2777274,-1.1252748,-2.4708161
1570715402,1.8004397,6.4787097,3.5817258,0.50921196,-0.053264845,-0.8639558,0.21068975,-1.2066777,-2.4133554
1570715402,1.0965444,6.823475,5.4539914,0.22264706,0.22051647,-0.868217,-0.20111294,-0.9959879,-0.6847417
1570715402,1.3024458,7.7093296,4.865018,0.21412468,-0.36113566,-0.50068957,0.038307227,-0.2777274,-0.80924016
1570715402,1.4460979,8.192958,4.984728,-0.07563608,-0.2119941,-0.08628905,0.2633622,0.35913026,-0.9624691
1570715402,1.5658079,8.236053,5.707777,-0.25886714,-0.23330003,0.08522376,0.2633622,0.49799395,-0.31603462
1570715402,1.8579005,8.441956,6.215348,-0.23756121,-0.22051647,0.24501829,0.4405331,0.8379706,0.33518824
1570715403,1.6041151,8.6574335,5.865794,-0.3057402,0.22903883,0.36965802,0.4261679,0.9768343,-0.110133275
1570715403,1.1971009,8.595184,5.2528787,-0.5869786,0.7595567,0.6210681,-0.4309563,1.2737153,-0.9959879
1570715403,1.5131354,8.374918,7.8865004,-0.6189375,0.45914298,0.60082746,-0.019153614,1.0007763,1.283292
1570715403,2.3080103,7.9487495,8.801085,-0.25460598,0.09587672,0.71481425,0.6991069,0.7086837,2.3798366
1570715403,1.4891934,7.019799,8.571242,-0.5592809,0.40161693,0.71587956,-0.019153614,0.019153614,2.2409728
