time,ax,ay,az,gx,gy,gz,la_x,la_y,la_z,fox,foy,foz
1570726695,-6.084259,-2.2876587,4.3694153,-5.535843,1.904602,6.837738,2.8315067,-1.2126998,0.5473926
1570726695,-2.787445,3.147171,14.963165,-4.1115875,1.7735748,7.223358,4.9313,1.4637077,6.349388
1570726695,-4.106659,4.7016144,2.9873657,2.4802704,2.160263,5.5253296,5.3192663,3.728479,3.0265563
1570726695,-9.044693,3.9228973,0.26037598,1.5801239,0.5282898,4.3492737,1.8958845,1.2041357,-2.1753452
1570726695,-15.071503,6.361389,2.9753876,-0.552536,1.5232391,4.4227753,-5.859351,1.4348974,1.5121732
1570726695,-16.095016,5.6736603,4.181473,-2.0460358,3.1371155,4.8584747,-7.3976116,0.77375364,2.9502528
1570726695,-12.269684,7.518387,2.3056183,-2.5733337,3.1722717,4.3759155,-4.0822186,1.083251,1.3922551
1570726695,-15.999252,6.248871,4.1252136,-1.380249,2.8324585,3.840088,-9.180019,-1.0506005,4.1674585
1570726695,-14.0551605,8.759781,2.8999786,-0.634552,3.2724,3.857132,-7.423818,1.1451097,2.3147166
1570726695,-12.082336,9.097366,2.6473846,0.7779846,2.396759,2.7684326,-6.104141,0.6253338,2.3762264
1570726695,-12.522873,5.0822906,-0.038909912,1.278656,3.7006378,1.531662,-8.083208,-3.6933813,3.4037101
1570726695,-6.8689575,9.519348,2.86586,0.18782043,3.2170105,0.5590668,-2.2259893,0.11741161,3.666794
1570726695,-5.4539948,8.992615,1.2186432,0.98783875,1.4497375,-0.3677063,-0.08502245,0.4318657,3.7626452
1570726695,-6.2626343,8.128906,0.77093506,1.2978363,0.1138916,-0.23348999,-0.7956052,-0.124917984,2.263238
1570726696,-5.8472443,7.1736298,-2.7168274,0.8994293,-1.681076,0.33216858,-0.6804347,-1.5039167,-2.5691667
1570726696,-1.9147644,5.857422,-2.7581177,0.88557434,-1.138855,0.6336365,2.2829838,-2.960168,0.6773784
1570726696,-3.4847565,4.027649,3.7145996,0.9782562,-1.5809326,0.5835724,1.7760568,-4.3767376,5.5962973
1570726696,-1.3539276,5.594055,-1.569397,2.6560516,-2.460846,1.533783,3.0671005,-1.1235733,-0.5667856
1570726696,-1.8435364,1.0959473,-4.5795135,1.630188,-1.9814758,1.7713318,2.7397485,-6.935071,-1.193397
1570726696,-3.736145,-1.5580292,-1.8842316,0.26559448,-1.5117035,1.5561523,0.9545145,-9.88961,1.0983891
1570726696,-2.9987335,-0.29748535,-2.609085,0.75561523,-1.7290039,0.6890259,0.70023775,-8.676018,0.19344783
1570726696,-0.6374512,-1.0983429,-6.629547,-1.4548035,-0.88212585,-0.9663849,3.625639,-8.900967,-3.9936295
1570726696,-2.505539,7.554306,-2.9670105,-2.4146118,-1.1431122,-2.0444336,2.4382477,-3.176116,-0.9770565
1570726696,-8.275558,11.935699,4.723755,-2.4273987,-1.5553741,-1.6726532,-1.7336817,5.3256607,3.7012396
1570726696,-4.645355,12.580338,2.5037384,-1.9554901,-1.2080994,-3.419693,1.4841189,4.4457235,4.386599
1570726696,-15.848419,14.728531,2.723999,-1.380249,-0.65948486,-5.1805725,-7.0830746,5.9706187,5.0407324
1570726696,-11.372452,15.731705,3.4877472,0.40727234,-2.0006561,-1.8399048,-4.644109,10.805814,2.584553
1570726696,-5.225937,7.2035522,6.290161,0.78756714,-1.2453766,-1.4798431,1.8250237,2.2232876,5.4354105
1570726696,-2.7682953,4.4849396,-4.697418,-0.4342804,-0.30049133,-3.3749542,6.0905848,-0.5288849,-5.3237457
1570726696,-4.519058,7.3310394,2.1164703,-0.27983093,-1.1899872,-1.4105988,3.0753126,2.8467245,1.1078768
1570726696,-3.0502167,1.9458923,0.84695435,0.35081482,-3.288559,-1.0356293,4.4601917,-2.3395677,-0.90201366
1570726696,-12.21521,1.2497711,2.051834,-0.9360199,-1.9132996,-1.0015411,-0.9179611,-2.6869807,-0.029078484
1570726696,-10.195114,-0.5596466,-1.5891571,-1.2619934,-0.5305939,1.6339264,-2.5128546,-4.6467648,-3.9393876
1570726696,-11.42453,-1.2916718,3.0573883,-1.3919525,-1.1985016,3.35112,-3.962832,-6.2614255,-0.9366436
1570726696,-3.0699615,6.5397644,5.724533,2.5910645,-0.55722046,1.3558807,4.3688955,1.2670045,3.1816583
1570726696,-3.2363586,6.2985535,4.9793396,2.759369,-0.7500305,1.2834473,4.3688955,1.2670045,3.1816583
1570726696,-2.1655579,5.131378,-1.8620911,0.8408356,-1.8429871,1.1811829,2.341032,-2.5270052,-8.330362
1570726696,0.9044037,8.150467,4.2437286,0.10366821,-1.5969238,0.22776794,7.4672394,1.6539011,0.6098366
1570726696,-4.617813,4.644745,4.061157,0.31884766,-0.17160034,-0.1876831,1.7281528,-1.7073827,-0.30641365
1570726696,-4.7890015,4.1910553,4.4843445,1.2413788,0.4164276,0.014724731,1.7129588,-2.1495495,1.6792643
1570726696,-3.1693268,4.8356934,1.6154938,0.7524109,-0.4229889,-0.023635864,2.3884811,-2.0350432,-1.8515646
1570726696,-6.316498,3.7415314,7.0970154,1.1785278,1.934433,0.85946655,-0.49896765,-2.8271694,4.0952473
1570726696,-6.1171875,3.7128143,6.8258667,1.3798523,2.0707855,1.0139313,-0.11640167,-2.9445143,4.0478983
1570726696,-5.411499,5.664688,5.3690033,1.4373779,2.2817078,1.404892,0.836411,-1.7441645,3.796287
1570726696,-9.922165,6.537369,4.280838,1.0613403,-0.48797607,4.0882874,-4.9315257,-1.5186248,1.973094
1570726696,-9.718063,6.7025604,4.3742065,1.2190094,-0.18225098,4.3929596,-5.11391,-1.4598465,2.1696615
1570726696,5.53479,18.9543,-5.2043915,0.8930359,0.16716003,3.8880157,6.4556217,7.83607,-5.735606
1570726697,-4.522644,19.612701,2.8634644,-0.7602539,1.6223145,-0.85346985,3.1836712,10.889822,2.5496182
1570726697,-3.1537628,8.305481,1.2880859,0.32312012,-0.5582886,-0.0385437,0.99766684,-0.37139988,-0.08229041
1570726697,-4.043808,8.117538,0.9505005,0.450943,-0.71061707,0.042419434,0.8793702,-0.30137253,-0.53190136
1570726697,-3.0615845,7.700943,1.162384,0.48291016,1.2057953,0.40034485,0.786093,-1.2164202,-0.42897308
1570726697,-2.7509308,7.720108,1.0666199,0.43710327,1.3165741,0.37690735,0.786093,-1.2164202,-0.42897308
1570726697,-3.3614655,7.269989,2.3618774,0.22937012,0.21936035,0.009399414,0.5653796,-1.4423494,1.1803838
1570726697,-3.3614655,7.269989,2.3618774,0.22937012,0.21936035,0.009399414,0.5653796,-1.4423494,1.1803838
1570726697,-5.565323,6.862381,3.016693,0.6970215,-2.574829,-0.7661133,-1.5344062,-1.8690834,1.6196877
1570726697,-5.525223,6.9192505,3.016693,0.6970215,-2.574829,-0.7661133,-1.5344062,-1.8690834,1.6196877
1570726697,-5.242111,4.3197327,2.8437195,0.14840698,-3.4302368,-1.1677246,-1.3701487,-3.8305597,0.30988407
1570726697,-5.242111,4.3197327,2.9017792,0.119644165,-3.369522,-1.1496124,-0.8714223,-3.9999228,0.92364025
1570726697,-3.3488922,1.6160889,0.15382385,-0.49075317,-0.51460266,1.2216644,0.24871731,-6.59746,-2.5899715
1570726697,-2.6557617,1.4245453,0.94091797,-0.47583008,-0.5944977,1.5742645,1.3281255,-6.490966,-2.2123876
1570726697,1.3479309,1.2168579,4.7740326,0.6139374,0.6561127,1.3239288,4.9401827,-7.119562,2.367045
1570726697,1.2150574,1.2850952,4.3849792,0.73217773,0.84147644,1.2706604,4.9401827,-7.119562,2.367045
1570726697,-7.7817535,0.7757263,0.57221985,1.3329926,1.2867584,1.646698,-0.43591595,-7.121649,-0.933468
1570726697,-9.497192,0.509964,0.5410919,1.3436432,1.280365,1.9641571,-0.43591595,-7.121649,-0.933468
1570726697,-2.9718018,19.612701,19.41278,-3.3509827,-1.1239471,-2.3128815,4.2676353,10.669002,17.756472
1570726697,-8.384491,19.612701,19.582779,-3.277481,-0.1492157,-2.6303406,4.2676353,10.669002,17.756472
1570726697,-0.9917908,12.426498,2.2840729,-1.7818451,-2.029419,-0.6063385,2.5836954,3.4299116,-1.4736023
1570726697,-0.9917908,12.426498,2.2840729,-1.7818451,-2.029419,-0.6063385,1.4400117,3.830758,-0.9794698
1570726697,1.7537537,9.176376,3.344696,-1.0074005,1.1951447,0.013656616,3.8259852,1.0112314,-0.26142
1570726697,1.5053558,8.8962555,2.9951477,-0.9360199,1.2207031,0.013656616,3.8259852,1.0112314,-0.26142
1570726697,-0.07122803,7.9475555,2.3840332,0.13243103,-0.10128784,-0.38581848,2.7543836,0.059196472,-1.104085
1570726697,-1.0480652,6.2877655,2.5091248,-0.025222778,0.13414001,-0.4859619,1.6453354,-1.6925764,-1.5655572
1570726697,-1.2246399,5.2947845,0.81881714,0.3252411,0.54959106,-0.34747314,1.1117847,-2.7768068,-2.7666116
1570726697,-0.26097107,4.42807,0.6374512,0.7247162,0.28753662,-0.082214355,2.1113203,-3.6644926,-2.8877373
1570726697,0.71287537,3.988739,1.6130981,0.64482117,0.6561127,0.42697144,3.1583111,-4.340062,-1.9222069
1570726697,-0.549469,3.980362,1.5879517,0.80674744,1.0236359,0.8584137,1.8542366,-4.482586,-1.2239318
1570726697,-1.2156525,5.11821,0.22026062,0.88983154,0.8659668,1.1172638,1.0229406,-3.6140242,-2.1562443
1570726697,0.063446045,8.588593,-0.97683716,0.9771881,-0.27919006,0.98516846,1.354638,-0.9259262,-3.6964855
1570726697,-2.6581573,10.162186,8.087021,2.967102,-2.1167603,0.14147949,-0.32600915,0.13493729,6.490679
1570726697,-2.8700562,10.943298,8.398865,2.6059723,-1.7087708,0.1659851,-0.9153236,1.0881453,6.559289
1570726697,-4.6986237,8.7556,6.918045,0.38490295,1.3325653,0.0072631836,-3.2274342,0.54903316,6.624699
1570726698,-3.1992493,8.644272,3.6972504,-0.1839447,2.2295074,-0.5211029,-1.520308,-0.5073843,2.966724
1570726698,-0.94869995,10.634445,1.1019287,0.025909424,0.9075165,-0.6468048,1.0093489,1.7317848,0.036025405
1570726698,-0.42437744,12.127823,-0.1490326,0.015258789,0.0052337646,-0.41246033,1.8906329,2.8505526,-1.0656503
1570726698,-0.041900635,15.275604,2.688095,-0.040145874,-1.1846619,0.6144562,1.5468702,6.4724836,0.7585485
1570726698,1.388031,7.66803,-4.4376526,-0.19354248,-0.08850098,0.3097992,3.0310574,-0.9413872,-3.3313746
1570726698,1.288681,7.6141663,-4.8195343,-0.36505127,-0.04269409,0.27145386,3.0805054,-1.2809591,-5.25021
1570726698,-5.2313232,11.932098,3.746933,-0.54507446,-0.73191833,0.7742462,-3.3694067,3.87607,1.2468433
1570726698,-5.2313232,11.932098,3.746933,-0.54507446,-0.73191833,0.7742462,-3.7077913,3.1477947,1.9648657
1570726698,-1.8644867,10.147827,0.5410919,0.9345703,-2.2296906,-0.15039062,-0.98444843,0.9325228,-1.4677306
1570726698,-2.719818,8.118134,3.4488525,0.8046112,-0.9151459,-0.7373657,-1.4513469,-0.82870007,1.7394562
1570726698,-1.0325012,6.9156494,2.214035,1.071991,0.38554382,-0.64575195,-0.03142667,-2.053958,1.4371347
1570726698,-1.371872,6.0070496,2.991562,1.3979645,0.9128418,-0.1834259,-0.058516026,-2.96171,1.5564933
1570726698,1.1318665,7.4854736,0.74279785,1.19664,0.4345398,0.20753479,2.62048,-1.7708807,1.5764666
1570726698,-0.2280426,5.5832825,1.821991,-1.9150085,-1.2325897,1.168396,0.64740074,-3.5863075,1.3512658
1570726698,-0.2280426,5.5832825,1.821991,-1.9150085,-1.2325897,1.168396,1.0484556,-3.490426,1.2901537
1570726698,1.987793,6.3973083,2.091339,-1.5400391,-0.68717957,1.0703888,2.7323766,-2.6713104,1.1938643
1570726698,-1.6256561,6.6935883,1.0648193,-0.99887085,-0.098083496,0.20965576,-0.27741873,-2.6443443,-0.55262053
1570726698,-2.6384125,8.413223,1.2982483,-0.60899353,0.27900696,0.22457886,-1.9731016,-0.87664413,-0.04544604
1570726698,-2.7485504,7.720703,1.2892761,-0.28302002,1.1589203,0.1894226,-2.03639,-0.7930832,0.10822916
1570726698,-2.5091248,9.491806,2.7658997,-0.56744385,0.9863434,0.0019378662,-1.6053767,-0.39453506,0.6106831
1570726698,-2.475006,14.702789,2.3343506,-1.6114044,0.28860474,-0.093933105,-1.6158236,5.381465,0.33612835
1570726698,-2.2391815,17.621323,4.3041687,-2.863083,-0.6978302,-0.57011414,-1.6524628,7.8709717,1.145103
1570726698,1.1468201,18.489227,6.775589,-3.2369995,0.098983765,-1.223114,1.4974527,10.968056,3.9059048
1570726698,3.0262756,9.827606,0.5135498,-1.478241,-0.17160034,0.04348755,4.742421,1.978447,-3.5653276
1570726698,2.6623535,9.543884,0.25437927,-1.3653259,-0.3644104,0.026443481,4.742421,1.978447,-3.5653276
1570726698,-0.90919495,6.024414,3.8217468,0.22618103,0.48034668,-0.33894348,0.4574827,-2.0409641,-0.65043354
1570726698,-0.8236084,6.0226135,3.6894684,0.26985168,0.5368042,-0.34214783,0.4574827,-2.0409641,-0.65043354
1570726698,1.0025787,2.2673035,0.23283386,1.2339172,0.9181671,0.0030059814,2.5838022,-5.63939,-3.7705154
1570726698,1.0025787,2.2673035,0.23283386,1.2339172,0.9181671,0.0030059814,2.5838022,-5.63939,-3.7705154
1570726698,-0.34655762,0.90141296,-0.9935913,1.116745,-0.053344727,0.69329834,1.5363686,-7.5807896,-4.319315
1570726698,-0.44352722,0.9618683,-0.98760986,1.0741272,-0.12046814,0.7316437,1.364675,-7.449171,-4.3453045
1570726698,-0.08380127,9.373306,0.90800476,1.4640198,-2.8347473,0.7433624,0.6494952,2.6958027,-2.249732
1570726698,-0.08380127,9.373306,1.3623047,1.5439148,-2.9657745,0.6378937,0.6494952,2.6958027,-2.249732
1570726699,0.065841675,14.065338,15.04277,2.583603,-0.46453857,-0.3410797,-0.07640609,4.8468456,13.609871
1570726699,0.8140259,12.239761,13.867218,1.4331207,1.1354828,-0.44015503,0.68428683,4.9174566,13.1792345
1570726699,1.980011,10.163391,7.759613,-0.08595276,3.0710754,-0.8140564,2.5534286,0.95416355,7.109
1570726699,-0.0975647,12.241547,-5.096054,-0.6579895,-1.1654816,0.2874298,1.265619,4.0340595,-6.5183244
1570726699,1.2862854,11.836334,-0.90560913,-1.4207153,0.52082825,1.3271179,1.1408474,3.8069382,-2.9220667
1570726699,3.4769745,12.25592,-0.920578,-1.5059509,1.1482697,1.3537598,3.6793516,2.66152,-3.0323567
1570726699,0.19871521,12.850281,0.053863525,-0.63668823,0.54319763,0.6655884,2.9898863,6.4727135,-0.349689
1570726699,-1.359909,8.683777,-1.0187378,-0.9029999,-1.648056,0.39927673,-0.65752935,-0.07057953,-3.7169566
1570726699,-0.019744873,11.431122,3.5086975,0.19848633,-0.3686676,0.2863617,0.10295136,2.8163404,1.1893528
1570726699,-1.1767426,10.380066,2.8544922,0.5244446,-0.21740723,0.15640259,-0.48916408,2.4780455,0.6294594
1570726699,-0.6979065,7.296921,2.961029,1.3244629,0.30671692,-0.27290344,-1.0477962,-1.387887,0.42644072
1570726699,-0.83018494,6.637329,3.485962,1.6174164,0.51231384,-0.3645172,-0.8834875,-2.0550814,1.1367757
1570726699,1.9303284,7.356781,4.124008,2.346054,0.087265015,-0.07583618,1.4800167,-1.797698,2.8850849
1570726699,1.6537933,6.7941437,4.9937134,-0.5557251,-0.51034546,0.33110046,1.6710422,-2.364644,3.5802708
1570726699,-0.96307373,5.906494,-0.30107117,-0.39060974,1.1504059,0.1659851,-0.8417098,-2.8769054,-1.37781
1570726699,-1.0779877,5.7843933,-0.037109375,-0.4492035,1.0087128,0.1659851,-1.176067,-3.2107067,-1.7776835
1570726699,-2.6671448,6.9707184,0.24002075,-0.44387817,0.43774414,-0.39328003,-2.8377132,-1.868289,-1.0070502
1570726699,-2.6378174,6.9204407,0.073028564,-0.4215088,0.39726257,-0.40925598,-2.6508605,-1.9705238,-1.4545404
1570726699,0.70269775,7.31369,1.9949646,-0.36610413,-0.084243774,0.13189697,0.5091638,-2.0750084,0.37000036
1570726699,0.81822205,7.545929,1.8046265,-0.36291504,-0.18118286,0.15959167,0.77056307,-1.7199945,0.031808376
1570726699,2.1685486,12.777252,2.0422516,-0.68888855,-1.1985016,0.3343048,1.9709527,2.3294287,-0.9017246
1570726699,-1.0007782,15.307327,6.455368,-1.206604,0.16822815,-0.11204529,-0.36104858,6.4813795,4.494026
1570726699,2.0602112,15.867569,6.763626,-2.7938538,0.07022095,-0.20046997,1.2099137,7.8752975,2.308785
1570726699,2.0602112,15.867569,6.763626,-2.7938538,0.07022095,-0.20046997,1.2099137,7.8752975,2.308785
1570726699,2.6282349,8.722076,-0.6093292,-1.1288452,-0.57640076,0.40567017,2.3886902,0.36461163,-4.626542
1570726699,2.7443542,8.758591,-0.6254883,-1.0425568,-0.7692108,0.3896942,2.5704706,0.5200052,-5.1188555
1570726699,0.6027374,7.400482,4.352661,-0.028427124,-0.916214,-0.11630249,0.6322402,-0.29731464,-0.59766483
1570726699,0.089782715,4.651932,1.4371185,0.90901184,0.67315674,-0.2345581,-0.044737622,-3.1801386,-2.6638741
1570726699,0.089782715,4.651932,1.4371185,0.90901184,0.67315674,-0.2345581,-0.044737622,-3.1801386,-2.6638741
1570726699,0.73921204,2.9406738,0.011367798,1.4554901,0.6720886,-0.17915344,0.62838966,-5.248287,-3.9717708
1570726699,0.854126,2.5312653,0.24839783,1.6184845,0.34825134,-0.06730652,0.95319206,-5.769232,-3.5306323
1570726699,0.29148865,2.2122498,0.5345001,1.485321,0.403656,0.35560608,0.62603533,-6.26935,-2.6420338
1570726699,1.9967651,9.984421,-1.2617493,0.8227234,-1.042984,0.21392822,2.1887617,1.8064823,-6.118028
1570726700,0.925354,10.076599,2.968216,1.3574829,-2.1444702,-0.3677063,0.91567165,1.3632803,-0.24724174
1570726700,2.637207,8.097794,13.078918,0.3486786,-0.5902405,-0.46891785,2.6403894,-0.26632118,11.451533
1570726700,2.637207,8.097794,13.078918,0.3486786,-0.5902405,-0.46891785,2.6403894,-0.26632118,11.451533
1570726700,2.656372,12.6324005,0.5506592,0.12710571,2.9613495,-0.25053406,2.618261,2.2577686,0.7014519
1570726700,1.3251953,15.928024,-1.7399902,-0.4023285,1.1003265,0.050933838,1.50155,6.3017445,-3.2683616
1570726700,1.4472961,16.132126,-1.6526031,-0.4268341,0.81378174,0.17024231,1.4216197,6.7273235,-3.28625
1570726700,-0.28970337,7.2280884,0.036514282,-0.4449463,0.53041077,0.067977905,2.0447128,-0.8821583,-1.6016889
1570726700,-0.28970337,7.2280884,0.036514282,-0.4449463,0.53041077,0.067977905,2.0447128,-0.8821583,-1.6016889
1570726700,-1.1611938,11.789642,0.36810303,-1.5144653,-0.4144745,0.1691742,-1.2384772,2.0230732,-2.2095547
1570726700,-1.3557129,12.337326,0.6578064,-1.4526825,-0.40701294,0.1691742,-1.2384772,2.0230732,-2.2095547
1570726700,-1.9369049,9.2643585,3.4302979,2.36203,-1.4989166,-0.070495605,-2.8210485,0.6982231,1.3463954
1570726700,-1.6286621,9.082397,3.581726,2.4035797,-1.4328613,-0.17596436,-2.8210485,0.6982231,1.3463954
1570726700,2.6300354,7.3148804,5.02124,1.930603,1.0470734,-0.9589386,2.6556506,-1.9482031,4.265375
1570726700,2.8724365,7.116165,4.950012,1.7228699,1.1908722,-0.9589386,2.6556506,-1.9482031,4.265375
1570726700,-0.7296295,5.4324493,1.0378876,-1.2811737,0.6337433,0.27890015,-0.48187572,-3.8046665,0.18480432
1570726700,-0.7296295,5.4324493,1.0378876,-1.2811737,0.6337433,0.27890015,-0.48187572,-3.8046665,0.18480432
1570726700,-0.35673523,6.0148315,0.34176636,-1.030838,-0.035232544,0.46958923,-0.693565,-2.594057,-0.8680788
1570726700,-0.35673523,6.0148315,0.34176636,-1.030838,-0.035232544,0.46958923,-0.693565,-2.594057,-0.8680788
1570726700,-0.31782532,7.458542,1.8752594,-0.87423706,-1.3966522,0.061584473,-0.15164244,-1.9920063,-0.10295761
1570726700,-0.31782532,7.458542,1.8752594,-0.87423706,-1.3966522,0.061584473,-0.15164244,-1.9920063,-0.10295761
1570726700,-1.4658508,10.469238,5.3306885,0.26133728,-0.12365723,0.25013733,-2.293852,0.43895817,1.6146272
1570726700,-1.2395935,11.084549,6.115387,0.22511292,0.07022095,0.23309326,-2.027907,1.3047047,3.089621
1570726700,2.2313995,15.373764,1.9704285,-2.3432465,-0.10447693,-0.32084656,1.0437514,6.698928,0.08294082
1570726700,3.2872314,14.728531,3.9109344,-2.6628265,-1.1186066,-0.47529602,2.6880417,6.0441628,0.15082788
1570726700,4.161728,11.647186,0.7302246,-1.3855743,2.2742462,-0.23028564,4.850481,3.9820385,-3.1179204
1570726700,3.8002014,11.528076,0.20649719,-1.3695831,2.0121918,-0.1557312,4.523169,3.3407536,-3.1179204
1570726700,-0.30226135,8.548492,1.987793,-0.25212097,-0.7819824,-0.3176422,0.16065943,0.6656351,-3.4027534
1570726700,-0.30226135,8.548492,1.987793,-0.25212097,-0.7819824,-0.3176422,0.16065943,0.6656351,-3.4027534
1570726700,0.23342896,5.4180756,2.01651,0.5681305,0.77223206,-0.34854126,0.3793026,-2.673688,-1.3467188
1570726700,1.4143677,4.8285065,1.138443,1.0506897,0.6401367,0.005126953,2.0732582,-3.54877,-2.8529382
1570726700,1.5023651,4.5010986,1.0941467,1.1923676,0.6326752,0.040283203,2.0732582,-3.54877,-2.8529382
1570726700,0.933136,2.4528656,2.0272827,1.6078186,1.1056519,0.47703552,1.6342642,-5.8891544,-1.4009159
1570726700,0.9720459,2.3582916,2.1009064,1.5960999,1.2313538,0.52178955,1.5253761,-6.106166,-1.1774251
1570726701,2.5348663,8.929779,-6.5008545,0.9249878,0.87768555,0.97558594,2.0501928,-1.4077854,-7.9363427
1570726701,2.5348663,8.929779,-6.5008545,0.9249878,0.87768555,0.97558594,2.0501928,-1.4077854,-7.9363427
1570726701,1.624466,9.047684,3.3925781,1.2573547,-2.57164,-0.07902527,1.7414193,0.13359547,0.81339455
1570726701,1.8052216,9.90242,8.757385,3.0374146,-4.1088104,-0.3645172,1.6930386,0.08995056,4.912606
1570726701,-1.328186,10.371689,13.311157,1.0933075,3.034851,-0.6052704,-0.79530823,2.0026913,13.973051
1570726701,-0.5464783,8.873505,2.4600372,0.56385803,4.7414093,-0.30273438,-0.68789494,-0.29155636,4.148293
1570726701,0.3214264,10.685928,-1.6705475,-0.1839447,1.0491943,-0.43588257,0.8898514,1.2382355,-2.7203968
1570726701,0.6895294,14.561539,0.19631958,0.039749146,-0.9204712,0.06585693,1.0185359,4.6393576,-0.89548784
1570726701,2.1679535,12.321762,0.8840637,-0.29899597,-0.26533508,0.22032166,2.7297332,4.198677,-0.30700624
1570726701,1.388031,8.95372,1.6843262,-0.22442627,0.9352112,0.11804199,2.0180557,-0.59468746,0.8468522
1570726701,0.17897034,10.967834,-0.02394104,-0.30220032,1.3336182,0.23202515,0.74844265,1.2847185,-0.21081346
1570726701,-0.37409973,11.794434,0.9756317,-0.47583008,1.1472015,0.20114136,0.0064352155,2.845646,-0.08838689
1570726701,-0.29388428,10.45369,-0.59376526,-0.37356567,0.5357361,0.021102905,-0.17144766,1.5767326,-1.4518466
1570726701,-0.7583618,8.258194,-0.9319458,-0.4353485,-0.19929504,-0.16850281,-0.42121065,-0.29745197,-2.403748
1570726701,0.10534668,6.5152283,1.0169373,-0.06251526,-0.16625977,-0.17596436,0.3110093,-2.3660498,-0.48917603
1570726701,1.3347626,5.4581757,4.534622,0.40301514,1.8896942,-0.117370605,1.6133347,-3.7768412,2.6481047
1570726701,1.458664,6.396103,4.7219696,0.8173981,3.2425842,-0.07369995,2.2462373,-2.7223759,3.8188286
1570726701,-0.5458832,8.06546,0.91937256,-0.053985596,3.6473846,0.1340332,0.22337145,-1.3786993,-0.22204351
1570726701,-1.4790192,8.687363,2.1122894,-0.2265625,2.5810547,0.18728638,-0.5956215,-0.25266266,1.3037567
1570726701,-1.9045868,6.3350525,-2.5528107,-0.23188782,0.10324097,0.24801636,-1.0837927,-2.2262392,-3.5030155
1570726701,-1.6334381,7.739258,0.7188568,-0.62390137,-0.8981018,0.4312439,-1.164207,-1.6377392,-1.1497066
1570726701,-0.7445984,9.003403,4.723755,0.04295349,-0.7713318,0.15319824,-0.41443518,-0.038659096,3.486352
1570726701,0.16879272,10.320206,1.948288,-0.458786,0.4590454,0.0019378662,0.13185284,0.36743832,1.6216762
1570726701,0.68833923,15.33786,0.31604004,-0.89767456,-0.09703064,-0.20365906,1.3668345,5.485729,-0.97507024
1570726701,1.8261719,15.123581,4.7901917,-0.84121704,-0.67333984,-0.39967346,2.2893434,6.0625896,2.4682379
1570726701,3.596695,12.562973,3.609253,-1.2982178,2.68544,-0.2899475,4.1740885,3.6361713,1.5445354
1570726701,3.596695,12.562973,3.609253,-1.2982178,2.68544,-0.2899475,4.1740885,3.6361713,1.5445354
1570726701,5.5844727,11.088745,1.2689209,-1.2449493,2.7418976,0.24906921,6.4043374,2.4179192,-1.1011424
1570726701,4.6273956,9.254791,-2.3684692,-0.9775696,2.0121918,0.33535767,6.60784,1.0771732,-3.6850348
1570726701,1.1504211,8.116348,3.2225952,-0.25212097,0.2854004,0.7934265,1.9682658,-0.62813663,0.057462692
1570726701,1.1504211,8.116348,3.2225952,-0.25212097,0.2854004,0.7934265,1.9682658,-0.62813663,0.057462692
1570726701,0.675766,6.7612305,2.3331451,-0.032684326,1.4113922,0.5643921,1.1629977,-1.6912479,-0.15199232
1570726701,2.0667877,7.266403,0.4339447,0.21125793,0.9426727,0.6016846,2.5880382,-1.6452341,-2.932152
1570726702,0.79008484,7.0156097,2.3343506,0.5766449,0.8361511,0.34068298,1.3374857,-1.6355639,-0.8179529
1570726702,0.3615265,6.475113,1.6496124,1.0453644,1.057724,0.52178955,0.6774785,-2.4228954,-0.91885376
1570726702,0.3615265,6.475113,1.6496124,1.0453644,1.057724,0.52178955,0.6774785,-2.4228954,-0.91885376
1570726702,1.6962891,7.8637543,4.22876,1.26268,1.8119354,0.6176605,1.8255541,-1.4503441,1.7682137
1570726702,1.7711182,9.9084015,5.7855835,1.0251312,2.7078094,0.31298828,2.1041682,0.53656006,3.7019434
1570726702,-4.8201294,7.024582,5.0272217,0.88557434,4.0404663,-0.11418152,-3.398139,-1.713213,4.7538786
1570726702,-5.048172,6.8809357,4.6273956,0.88131714,3.9776154,-0.05239868,-3.398139,-1.713213,4.7538786
1570726702,-1.3251953,10.817596,2.0859528,0.24429321,1.6468201,0.19474792,-0.58112705,-1.1690664,0.8938118
1570726702,-1.3251953,10.817596,2.0859528,0.24429321,1.6468201,0.19474792,-0.51597804,0.55439854,1.4360185
1570726702,9.234436,11.777084,-0.42915344,0.78012085,-0.8171387,0.3651886,7.5050464,2.7249527,-1.3999097
1570726702,10.212463,11.549622,-0.27713013,0.75135803,-0.7170105,0.1659851,10.193666,2.4193811,-0.868354
1570726702,3.2998047,2.917328,4.1120453,1.0592194,2.875061,-0.92378235,4.0894136,-6.4364004,3.9639037
1570726702,1.1163025,6.9785004,-3.1010895,0.228302,3.9286041,-0.06730652,2.3960307,-2.5082483,-2.4123597
1570726702,0.9325409,7.2963257,-3.5140839,0.14414978,3.9126282,0.023239136,2.3960307,-2.5082483,-2.4123597
1570726702,1.972229,11.85968,-7.1413116,-0.14027405,2.5810547,0.63256836,1.967726,1.0442133,-5.652691
1570726702,0.084991455,9.030334,-5.9837036,0.08023071,-1.9463196,-0.06304932,1.2377989,0.55375195,-5.831578
1570726702,0.47525024,9.391861,-1.6220703,0.4147339,-2.557785,-0.18661499,1.5670135,-0.48336124,-1.6440535
1570726702,-1.6196747,8.294708,7.1682434,0.6427002,2.1932983,-0.37091064,-0.8320715,-1.094284,7.692046
1570726702,-0.3609314,9.621094,-2.0494385,0.43070984,4.545395,-0.86305237,0.8686212,0.8005829,-0.5703871
1570726702,-0.42556763,9.521744,-1.9967651,0.35188293,4.516632,-0.90885925,0.8686212,0.8005829,-0.5703871
1570726702,-1.91716,8.554489,-0.22865295,-0.15306091,4.3983917,-1.0228424,-0.45633125,-0.2892418,0.35129488
1570726702,-2.7072449,9.2643585,1.4754333,-0.16690063,4.912918,-0.69688416,-1.6421653,0.10920048,2.8366911
1570726702,-3.0412292,8.6041565,0.683548,0.17077637,4.627426,-0.44760132,-1.9808465,-0.28080273,2.2265372
1570726702,-2.6886902,7.9116364,0.32920837,0.25387573,3.7411194,-0.2611847,-1.8911498,-1.0591307,1.8900125
1570726702,-1.3054352,8.620926,1.0612335,0.5265808,2.428711,-0.5605316,-0.37943363,-0.4322176,2.647696
1570726702,-1.0450745,9.224258,1.1504211,0.896225,1.8587952,-0.5072632,-0.13049251,0.2043705,3.4103544
1570726702,0.59317017,9.024338,0.86849976,1.0837097,1.4295044,-0.19087219,1.3251078,0.3232546,3.7217395
1570726702,0.59317017,9.024338,0.86849976,1.0837097,1.4295044,-0.19087219,1.3251078,0.3232546,3.7217395
1570726702,-0.08918762,8.695145,0.91937256,0.8482971,1.3187103,-0.2579956,0.9416899,0.09845352,3.468367
1570726702,-1.3814545,9.68454,3.197464,0.7438965,1.7405548,-0.080093384,-0.5674947,0.5001612,6.52721
1570726702,-1.332367,16.771378,-6.4607544,-1.2960815,1.5338898,-0.44760132,-0.4369576,7.8053703,-1.993088
1570726702,-1.0061646,12.678497,2.395401,-3.629013,-0.49650574,-0.6521301,-1.2394345,4.504306,2.8106544
1570726702,-0.5566559,8.019379,1.7178345,-3.2806702,-0.62646484,-0.20365906,0.97838765,-0.06496239,3.4242811
1570726702,2.7820587,11.085159,1.4077911,-3.0420532,0.49525452,1.8192749,2.6607065,1.3110237,1.237831
1570726703,13.472168,12.330734,3.7966003,-2.3730621,4.9086456,0.020050049,17.01444,6.0671253,2.2652242
1570726703,1.5562286,9.194336,-7.6081696,-1.7488251,2.811142,0.06478882,2.9240465,-0.011749268,-7.999581
1570726703,-0.6386566,7.539337,-2.557602,-1.5655975,-1.8909302,0.6528168,0.086427934,-0.7423191,-7.545276
1570726703,-1.4293365,7.6584473,4.6303864,-1.220459,-0.26426697,0.64642334,-1.8305261,-1.7972507,3.1786294
1570726703,1.0408783,7.8912964,0.35075378,-1.3525391,-0.06613159,-0.15678406,0.7224934,-1.0549154,-2.1204
1570726703,0.22984314,6.487686,2.056015,-1.0521393,-0.30155945,-0.3591919,0.25877693,-2.208087,-0.7926097
1570726703,-0.28071594,5.0667267,2.4594421,-0.09020996,-0.13644409,-0.45932007,-0.33142507,-3.6469593,-0.10745382
1570726703,0.38008118,3.502716,2.1673584,1.3287201,-0.09703064,0.17131042,0.3655493,-5.3393965,-0.026281834
1570726703,0.38008118,3.502716,2.1673584,1.3287201,-0.09703064,0.17131042,0.3655493,-5.3393965,-0.026281834
1570726703,6.1447144,17.060486,-8.444351,1.4885101,0.62202454,0.42910767,5.1291986,4.901742,-6.9151316
1570726703,6.1447144,17.060486,-8.444351,1.4885101,0.62202454,0.42910767,5.1291986,4.901742,-6.9151316
1570726703,-1.3473358,7.1610565,9.011169,1.2562866,-1.0280609,-0.42204285,-1.6145253,-1.6427956,7.5440593
1570726703,-0.28012085,4.965576,4.027649,1.6546936,1.4518738,-0.6425476,-0.45160955,-4.0427523,5.0299973
1570726703,-0.28012085,4.965576,4.027649,1.6546936,1.4518738,-0.6425476,-0.45160955,-4.0427523,5.0299973
1570726703,2.071579,7.0497284,0.7008972,0.1963501,-0.17692566,-0.12376404,2.0837564,-2.4833984,0.7487729
1570726703,3.047226,9.387665,0.5746155,-0.18075562,-0.50076294,-0.030029297,3.390745,0.27389908,0.4815899
1570726703,1.6292572,11.627441,4.6950226,0.4285736,-1.8461914,0.030700684,2.1331112,2.3583775,4.129097
1570726703,1.4335327,12.15477,5.4647675,0.5947571,-1.966568,0.04774475,1.8274351,2.7240314,4.826282
1570726703,1.2910767,9.950897,-2.573166,-0.8028717,2.9794617,-0.4412079,1.3685741,1.8883619,-0.6177868
1570726703,1.6136932,9.462479,-3.5924988,-1.0553436,3.2756042,-0.43055725,1.3685741,1.8883619,-0.6177868
1570726703,0.43275452,6.9192505,-2.2882538,-2.0108795,3.048706,0.017913818,1.1671232,-2.2793179,-4.5062647
1570726703,-1.782486,14.989502,-0.43693542,-1.3386993,0.1607666,0.9894409,-1.049976,5.7093964,-2.359489
1570726703,-1.6609802,15.146912,-0.41299438,-1.1458893,-0.344162,1.0703888,-1.049976,5.7093964,-2.359489
1570726703,-0.5452728,10.132858,7.1700287,0.94203186,-3.9319763,0.027496338,-1.3413255,1.0394087,4.6677604
1570726703,-0.17837524,10.120895,7.819458,1.022995,-3.5634003,0.005126953,-1.3413255,1.0394087,4.6677604
1570726703,-0.8050537,7.467514,1.9895782,1.1252594,2.4233856,-0.18235779,-0.76073176,-1.5018234,1.3838508
1570726703,-0.8050537,7.467514,1.9895782,1.1252594,2.4233856,-0.18235779,-0.76073176,-1.5018234,1.3838508
1570726703,-1.5269012,5.7257385,2.6042938,0.29115295,2.7088776,-0.047073364,-1.5682558,-3.2441835,3.3909347
1570726703,-1.474823,5.621582,2.0105286,0.1409607,2.6098175,-0.06411743,-1.5682558,-3.2441835,3.3909347
1570726703,0.32321167,6.135742,0.9133911,-0.552536,0.92349243,0.4152527,-0.12820838,-3.3676653,0.49553606
1570726703,0.6901245,6.9796906,0.85113525,-0.6505432,-0.85017395,0.5548096,0.5599125,-2.26713,0.5537597
1570726703,0.6901245,6.9796906,0.85113525,-0.6505432,-0.85017395,0.5548096,0.38926294,-2.0699177,0.31760937
1570726703,-0.9044037,7.692566,0.9606781,-0.6249695,-1.012085,0.3428192,-0.9172875,-1.4246206,0.2885589
1570726704,-2.8479004,10.939102,4.5016937,0.10899353,-0.4666748,0.26931763,-3.3320098,1.3479271,3.3874767
1570726704,-0.29808044,14.267639,5.0176544,-1.1512146,1.0278931,-0.08753967,-0.93330055,5.10246,5.1131563
1570726704,-0.2238617,14.367004,4.747696,-1.429245,0.95225525,-0.119506836,-0.81949174,5.2373753,4.305067
1570726704,1.6777344,18.10675,3.0903168,-3.1858673,-1.4520416,-0.20259094,0.45192462,8.562085,2.742471
1570726704,4.4065247,15.353424,8.868118,-2.752304,0.309906,-0.17703247,4.0589566,7.2114058,6.5294123
1570726704,2.9903564,10.330383,0.9606781,-1.9064789,0.87449646,0.09461975,2.6820314,2.8689194,0.020137548
1570726704,3.8534698,8.426392,-0.5279236,-1.2151337,-0.5955658,0.07330322,3.3913083,0.053985596,-4.128959
1570726704,0.53271484,6.3817444,3.1058807,-0.12962341,-0.4741211,-0.38156128,0.38978165,-1.4754343,-0.557678
1570726704,0.18016052,2.2888641,0.84036255,0.847229,0.755188,-0.2654419,-0.20056978,-5.910103,-2.7351744
1570726704,0.18016052,2.2888641,0.84036255,0.847229,0.755188,-0.2654419,-0.20056978,-5.910103,-2.7351744
1570726704,0.46687317,1.3730774,0.7290344,1.1721344,1.0396118,-0.026824951,0.1947174,-7.02351,-2.3423722
1570726704,-0.07601929,2.2319946,-1.3311768,1.0272522,-0.43045044,0.6197815,-0.3347654,-6.637064,-3.9792025
1570726704,-0.07601929,2.2319946,-1.3311768,1.0272522,-0.43045044,0.6197815,-0.3347654,-6.637064,-3.9792025
1570726704,2.1841125,11.418549,0.25558472,1.3170013,-2.7612457,0.13722229,1.4944975,2.2606726,-3.585439
1570726704,-1.1845245,10.81282,7.8852997,3.6882935,-3.4632568,-0.92910767,-1.8954103,1.3064499,5.856223
1570726704,-0.9834137,12.008118,12.251129,4.030243,-3.3173218,-0.86305237,-1.8380857,1.7637329,6.823613
1570726704,6.290161,8.866928,5.048767,0.3912964,1.9216461,-0.5882263,5.5332227,-1.8485146,7.3022537
1570726704,6.28598,9.352951,4.2089996,0.44882202,1.8257751,-0.615921,5.8952665,-0.4576893,4.9344597
1570726704,7.214325,17.39627,-4.7884064,-0.114715576,1.3868866,-0.72457886,7.2004185,8.176811,-5.127033
1570726704,-0.44770813,8.090607,-6.497864,-0.53549194,1.4774323,0.43762207,0.8965923,-1.2280693,-5.32523
1570726704,-0.44770813,8.090607,-6.497864,-0.53549194,1.4774323,0.43762207,0.8965923,-1.2280693,-5.32523
1570726704,-1.6262665,12.961014,3.6541443,-0.9275055,-3.674179,1.1609497,-2.1824534,3.8881464,2.0782943
1570726704,-3.6715088,9.922165,3.866043,0.48609924,-2.9796295,0.048812866,-4.4854136,1.2133245,2.8033018
1570726704,-3.6715088,9.922165,3.866043,0.48609924,-2.9796295,0.048812866,-4.4854136,1.2133245,2.8033018
1570726704,-0.7302246,7.7422485,2.277481,0.4562683,1.3474731,-0.7416229,-1.6568024,-0.8805542,1.2415979
1570726704,0.4123993,6.6427155,3.3093872,1.1593475,1.8811646,-0.55200195,-0.46097583,-2.3758173,2.3356953
1570726704,0.94511414,6.6283417,3.8714294,1.693039,1.8513489,-0.42204285,0.21694732,-2.4642868,3.0994186
1570726704,1.1132965,5.384552,2.5671844,-0.32563782,-0.5124817,0.06265259,1.2784216,-3.925519,1.5863386
1570726704,1.1132965,5.384552,2.5671844,-0.32563782,-0.5124817,0.06265259,1.2784216,-3.925519,1.5863386
1570726704,1.0223236,9.397842,3.5236664,-0.7826233,1.2750397,0.93084717,0.2761218,0.3697424,5.470573
1570726704,-2.051239,5.8634033,0.041900635,-0.68995667,0.9096527,0.26078796,-2.8138015,-3.002656,-0.9220388
1570726704,-1.5340881,5.8053436,0.885849,-0.58981323,0.8159027,0.29275513,-2.4958427,-3.1488667,-0.26359332
1570726704,-1.640625,8.7155,1.8531189,-0.472641,-0.13217163,0.17024231,-2.3920684,-0.967947,0.6556205
1570726704,-1.640625,8.7155,1.8531189,-0.472641,-0.13217163,0.17024231,-2.3920684,-0.967947,0.6556205
1570726705,0.9433136,15.789154,4.846466,-0.9924927,0.032943726,0.04135132,-0.4203757,6.566347,3.0098438
1570726705,1.2850952,13.860626,2.4444733,-2.003418,-0.49543762,-0.36665344,0.36867785,4.9027166,0.8947964
1570726705,3.7583008,19.440918,6.834244,-2.9323273,-0.38890076,-0.45932007,2.332117,9.950536,3.0269172
1570726705,2.2493591,10.25795,1.3623047,-1.1565399,1.2761078,0.008331299,2.28588,2.515071,-0.05632019
1570726705,2.2493591,10.25795,1.3623047,-1.1565399,1.2761078,0.008331299,2.28588,2.515071,-0.05632019
1570726705,0.6386566,5.6904144,2.2421722,-0.10192871,-0.4187317,-0.36026,0.15333652,-2.4055405,-0.9849279
1570726705,0.6386566,5.6904144,2.2421722,-0.10192871,-0.4187317,-0.36026,0.15333652,-2.4055405,-0.9849279
1570726705,1.1647797,4.5825043,2.3511047,0.21765137,-0.13856506,-0.19087219,0.6259767,-3.5565596,-1.1417434
1570726705,1.2910767,2.3535004,0.20770264,1.198761,-0.19076538,0.13189697,0.75397855,-6.2144814,-2.8126764
1570726705,1.240799,2.3930054,0.25558472,1.2200623,-0.20568848,0.13935852,0.70035845,-6.232127,-2.7060282
1570726705,-0.40760803,3.2399597,-1.6573792,0.65335083,-0.6903839,0.75720215,-1.2816584,-6.344946,-3.642806
1570726705,-0.375885,3.75531,-1.7699127,0.62138367,-0.7628174,0.7881012,-1.3191905,-5.6507206,-3.888981
1570726705,0.3944397,8.377319,5.668274,1.707962,-3.4611359,-1.20607,-0.64753294,-0.15336323,3.2848058
1570726705,0.3944397,8.377319,5.668274,1.707962,-3.4611359,-1.20607,-0.64753294,-0.15336323,3.2848058
1570726705,2.33255,7.8954773,8.170807,0.46054077,3.9957275,-0.8161926,2.3159685,-0.47775364,8.583068
1570726705,2.102707,7.8146667,7.711731,0.45414734,4.020218,-0.8332367,1.8847055,-0.9477024,7.4099417
1570726705,2.277481,11.231201,-0.7086792,0.6203308,1.821518,-0.83535767,2.0747516,1.6864758,-0.51757747
1570726705,10.031708,14.52742,1.569397,-0.601532,-0.29942322,-0.32510376,11.236038,7.7562666,-0.59692216
1570726705,8.745422,13.35965,2.011734,-0.6271057,-0.15667725,-0.40499878,10.248768,5.9740915,0.40559012
1570726705,-0.85113525,11.678314,-4.328125,-0.9317627,1.3954163,0.6858368,-1.4790522,0.6463833,-5.095944
1570726705,-0.85113525,11.678314,-4.328125,-0.9317627,1.3954163,0.6858368,-1.4790522,0.6463833,-5.095944
1570726705,-0.8966217,12.677292,1.3724823,-0.74108887,-2.380951,0.5878296,-1.4067888,3.9703274,-1.4545532
1570726705,-0.8966217,12.677292,1.3724823,-0.74108887,-2.380951,0.5878296,-1.4067888,3.9703274,-1.4545532
1570726705,0.059249878,8.166031,2.130844,1.2530975,2.3914337,-0.4859619,-0.47837633,-0.56597805,0.71159184
1570726705,0.0018005371,8.039734,2.1254578,1.3052826,2.3892975,-0.4699707,-0.47837633,-0.56597805,0.71159184
1570726705,-1.0528564,6.8444214,3.770874,1.995575,2.077179,-0.072631836,-1.3824878,-2.0742188,2.2763968
1570726705,-1.7507629,3.3261414,5.452194,-1.4313812,-1.0525665,0.42590332,-2.5261612,-5.454177,3.0162492
1570726705,-1.5053558,3.375229,6.5212097,-1.5346985,-0.83950806,0.50367737,-2.5261612,-5.454177,3.0162492
1570726705,0.5895691,6.980896,1.0773926,-0.5099182,-0.32392883,0.45680237,0.29553813,-1.9685907,2.3224561
1570726705,-0.18315125,6.7067566,0.79008484,-0.89767456,-0.50502014,0.4951477,-1.0063571,-2.2662878,0.052178025
1570726705,-0.97384644,6.3260803,5.7263336,-0.4811554,-0.5721283,0.19474792,-1.685189,-2.61806,3.516244
1570726705,-1.1336517,6.3500214,5.9627533,-0.40126038,-0.42726135,0.16384888,-1.906628,-2.5777235,4.331365
1570726705,-3.4602203,7.0066376,4.754883,-0.13708496,1.3527985,-0.011917114,-3.8080869,-2.1462088,4.157237
1570726706,0.57580566,12.612656,-0.5087738,-1.5102081,0.77542114,0.07330322,-0.6026888,3.048769,-1.1539074
1570726706,1.9255371,18.626297,5.9681396,-2.5871887,-3.0403442,-0.24839783,0.81903577,8.626195,1.7987678
1570726706,1.9255371,18.626297,5.9681396,-2.5871887,-3.0403442,-0.24839783,0.81903577,8.626195,1.7987678
1570726706,6.194992,16.613968,14.7782135,-2.5850525,2.3115387,-0.84814453,5.5791574,10.324254,11.091798
1570726706,5.2325287,11.683701,0.89424133,-1.2247162,3.4535065,-0.3218994,5.8404365,3.842332,-0.039662123
1570726706,-0.3543396,8.456924,3.3847961,0.032302856,-0.6285858,-0.33894348,-0.2954672,0.47040558,-0.57729197
1570726706,-0.6111145,8.270172,3.1561584,0.049346924,-0.5721283,-0.38156128,-0.2954672,0.47040558,-0.57729197
1570726706,-0.27114868,5.546173,3.359665,0.119644165,-0.06613159,-0.47210693,-0.8989459,-2.3299093,-0.972085
1570726706,1.3305817,2.3175812,0.50697327,1.4597473,0.06915283,-0.084350586,1.0578252,-5.7994804,-3.1134477
1570726706,1.3305817,2.3175812,0.50697327,1.4597473,0.06915283,-0.084350586,1.0578252,-5.7994804,-3.1134477
1570726706,1.091156,1.8255768,0.72125244,1.5747986,0.438797,0.19049072,1.0652769,-6.6707497,-2.561003
1570726706,1.3269806,4.5561676,-2.5791473,0.83869934,-0.35801697,0.42697144,1.1146147,-4.1918135,-5.4555235
1570726706,1.280899,4.6854553,-2.2870636,0.81207275,-0.5273895,0.40567017,1.1146147,-4.1918135,-5.4555235
1570726706,0.32321167,10.930725,2.2158356,1.630188,-3.8201294,-0.28781128,-0.12753046,1.8431759,-0.5580685
1570726706,0.296875,10.981598,2.5558167,1.7313995,-3.926651,-0.31445312,-0.31718332,2.1043053,0.08209288
1570726706,2.6258392,10.997162,19.242203,0.24641418,0.741333,-0.44654846,1.2840551,3.7392025,18.634335
1570726706,6.013031,10.277115,6.0681,0.9494934,2.8803864,-0.981308,5.595644,-0.0063934326,8.348823
1570726706,6.013031,10.277115,6.0681,0.9494934,2.8803864,-0.981308,5.595644,-0.0063934326,8.348823
1570726706,4.664505,10.038284,-2.0332794,-0.9306946,1.9173889,0.012588501,6.1895356,4.355459,-3.5126154
1570726706,4.664505,10.038284,-2.0332794,-0.9306946,1.9173889,0.012588501,6.1895356,4.355459,-3.5126154
1570726706,-1.1947021,10.685928,-6.044754,-1.9693298,0.55810547,1.1012878,-1.135353,4.754407,-7.209381
1570726706,-1.1947021,10.685928,-6.044754,-1.9693298,0.55810547,1.1012878,-1.135353,4.754407,-7.209381
1570726706,-2.5719757,10.21785,4.8524475,1.7122192,-4.4102783,-0.009780884,-2.5974464,2.014637,2.5650268
1570726706,-2.9736023,9.710876,7.1203613,1.693039,-1.5180817,-0.22923279,-4.545135,0.41775036,6.2885017
1570726706,-0.94929504,8.665817,2.8556824,1.053894,2.3253937,-0.7639923,-2.452762,0.45759583,2.6128807
1570726706,-0.10534668,4.645355,2.70784,0.7950287,2.4798431,-0.70433044,-0.9485333,-4.422021,1.9119399
1570726706,-0.017364502,4.62619,2.7461548,0.800354,2.409546,-0.67663574,-0.9485333,-4.422021,1.9119399
1570726706,0.754776,3.3572693,2.7072449,-1.3450928,-1.1931763,0.49835205,0.15104982,-5.911565,1.3165421
1570726706,0.754776,3.3572693,2.7072449,-1.3450928,-1.1931763,0.49835205,0.15104982,-5.911565,1.3165421
1570726706,1.5783844,6.909073,3.6068573,-0.90727234,0.1884613,0.7103424,0.9668576,-1.8755198,2.2157726
1570726706,1.3449402,6.8988953,3.6589355,-0.90727234,0.24279785,0.6847687,0.9668576,-1.8755198,2.2157726
1570726706,-1.9812012,7.4890594,0.7481842,-0.6590576,-0.7223358,0.089279175,-2.5705438,-1.4651937,-1.2814898
1570726706,-1.9710236,15.569489,1.9297333,-1.0074005,-0.65948486,0.103134155,-3.562451,6.2158794,-0.24674475
1570726706,-1.9710236,15.569489,1.9297333,-1.0074005,-0.65948486,0.103134155,-3.562451,6.2158794,-0.24674475
1570726707,2.2942505,15.887924,6.0064545,-1.3482819,0.11602783,-0.47317505,0.33895862,7.2023735,4.197085
1570726707,7.661438,17.217896,8.887283,-2.3901062,1.1035309,-0.26437378,5.72738,8.046427,4.817136
1570726707,9.028534,15.940002,8.4617,-1.3110046,3.1850586,-0.30485535,7.9829655,8.2626295,6.627018
1570726707,2.5797577,9.060852,-0.331604,-0.7730408,1.2547913,0.15426636,2.4826171,1.1087055,-4.575934
1570726707,1.7052765,8.0026245,0.18136597,-0.29260254,0.3887329,0.20753479,1.3887275,-0.37640667,-3.252932
1570726707,0.43515015,7.514801,4.055771,0.6799774,0.26835632,-0.34640503,0.075404346,-1.0299253,0.43331146
1570726707,1.0348969,5.3354797,0.4584961,1.2605438,0.9692993,-0.55625916,0.572032,-2.4323378,-1.6075816
1570726707,1.4724274,3.2986145,-0.4524994,1.421402,0.8286896,-0.3922119,1.2438401,-5.023425,-3.5094888
1570726707,1.5041504,0.89064026,0.42736816,1.2957001,0.89260864,0.070114136,1.5845647,-7.7190866,-2.710486
1570726707,0.38905334,0.7068939,0.68055725,1.2733307,1.4252319,0.6219177,0.7260287,-8.308508,-1.2486374
1570726707,0.9289551,4.244919,-2.2385712,1.118866,1.1386871,0.8253784,0.25835472,-6.286666,-2.6465182
1570726707,-0.37649536,7.6081696,1.6914978,1.6088867,-3.2768402,-0.0342865,-0.32333344,-1.7442226,0.05802691
1570726707,-0.37649536,7.6081696,1.6914978,1.6088867,-3.2768402,-0.0342865,-0.32333344,-1.7442226,0.05802691
1570726707,-0.56921387,16.821655,19.463669,0.3412323,-2.840088,-0.3218994,-2.4991548,8.04866,13.282605
1570726707,2.099121,9.90242,-0.27174377,0.4754486,2.9091492,-0.9493408,1.8161398,0.500577,1.8712225
1570726707,2.099121,9.90242,-0.27174377,0.4754486,2.9091492,-0.9493408,1.8161398,0.500577,1.8712225
1570726707,8.416809,15.30014,-0.55126953,-1.3152618,3.539795,-0.46678162,9.689705,5.696459,-1.9009851
1570726707,8.416809,15.30014,-0.55126953,-1.3152618,3.539795,-0.46678162,9.689705,5.696459,-1.9009851
1570726707,0.64164734,14.146133,-5.0260315,-0.66864014,-2.2243652,1.9865265,-0.32068068,4.2635746,-6.2422423
1570726707,-0.46148682,14.076111,4.459198,-1.190628,-3.4579315,1.3569489,-0.78924596,5.2973595,1.6418481
1570726707,-0.39743042,13.4608,4.3861847,0.41366577,-2.15831,0.30340576,-1.1134589,4.8022833,3.809839
1570726707,0.14964294,12.575546,2.695877,0.65867615,-0.85868835,-0.2654419,-0.8395794,3.8510647,1.4349626
1570726707,-2.2200165,7.7033386,-0.37768555,0.7257843,2.1123352,-0.87371826,-2.3953981,-0.99713326,-1.5920292
1570726707,0.8277893,3.4763794,7.640503,1.1593475,2.3733215,-0.48168945,-0.23452945,-5.4383307,4.9031267
1570726707,0.8277893,3.4763794,7.640503,1.1593475,2.3733215,-0.48168945,-0.23452945,-5.4383307,4.9031267
1570726707,2.3121948,6.927017,4.9009247,2.6922607,3.5973053,-0.049194336,2.0890665,-2.9276485,4.2998753
1570726707,2.2792816,7.5968018,4.9943085,2.4344635,3.8188934,-0.053451538,2.4388523,-2.3235445,5.0606337
1570726707,-2.4797974,5.905899,-4.062958,-1.2012787,4.0404663,-0.16210938,-1.4602032,-2.2202282,-1.2332921
1570726707,-1.3952179,6.7941437,2.4642334,-1.3653259,-1.2336578,0.6677246,-1.6671481,-2.5874624,1.8240156
1570726707,-1.2521667,6.9629364,2.525879,-1.2289734,-1.3156891,0.6538696,-1.6671481,-2.5874624,1.8240156
1570726707,0.14006042,7.6859894,5.111023,-0.16264343,-1.5191498,0.23841858,-0.34062004,-1.498622,4.299699
1570726707,0.14006042,7.6859894,5.111023,-0.16264343,-1.5191498,0.23841858,-0.34062004,-1.498622,4.299699
1570726707,-1.1869202,15.764618,-1.8004456,-1.3972931,-0.8640137,-0.12483215,-1.8673844,5.736888,-3.039014
1570726708,1.8195953,18.019958,5.254669,-1.4398956,-0.8874512,-0.41778564,1.5543971,8.919927,4.69625
1570726708,0.5285187,13.593079,-2.4366913,-2.4668121,-0.53697205,-0.56585693,0.6170852,4.9660816,-3.4808383
1570726708,4.4286804,18.529327,7.6063843,-2.4977112,1.4721069,0.027496338,3.1344774,9.525154,2.8093462
1570726708,2.6701355,6.6947937,-6.1818237,-0.5844879,1.123764,0.1063385,5.0827656,-0.66855335,-9.461063
1570726708,2.6701355,6.6947937,-6.1818237,-0.5844879,1.123764,0.1063385,5.0827656,-0.66855335,-9.461063
1570726708,-1.8513184,6.032196,-3.8798065,-0.67077637,-1.2357941,1.1257935,-2.1010141,-3.6001272,-7.0944295
1570726708,-0.4016266,8.930374,4.64415,-0.7101898,-0.39743042,0.90315247,-0.44627237,0.051501274,0.3385284
1570726708,2.890396,5.134964,-0.4734497,0.16119385,0.7828827,0.44828796,2.5889084,-3.6312332,-3.63516
1570726708,2.890396,5.134964,-0.4734497,0.16119385,0.7828827,0.44828796,2.5889084,-3.6312332,-3.63516
1570726708,1.0241241,5.2558746,3.336319,0.3028717,-0.39743042,0.37797546,0.92169785,-3.4096165,0.025526285
1570726708,0.90919495,5.2444916,3.6349945,0.31140137,-0.30688477,0.40460205,0.6608737,-3.4385834,0.6218972
1570726708,1.8273773,8.324646,3.633194,0.8056793,1.9919586,0.62298584,1.2814356,-0.62734604,1.046238
1570726708,1.9147644,8.51738,3.478775,0.7992859,2.0036774,0.6165924,1.2814356,-0.62734604,1.046238
1570726708,2.9676056,11.243774,3.8570557,0.48077393,1.6372223,0.17877197,2.42621,1.9606276,0.77180004
1570726708,0.6356659,9.694122,6.075287,-0.032684326,1.9791718,-0.25904846,0.586612,1.1657867,4.5760317
1570726708,0.6356659,9.694122,6.075287,-0.032684326,1.9791718,-0.25904846,0.586612,1.1657867,4.5760317
1570726708,0.16879272,4.4681854,2.6898804,0.023773193,0.39086914,-0.1408081,0.42923135,-4.057927,0.26273227
1570726708,1.0235138,3.1872864,2.5432434,0.497818,0.7850189,0.29275513,1.0159154,-5.5922947,0.35354567
1570726708,0.5422821,7.4974365,4.3903656,1.8571014,1.4049988,0.594223,1.2331322,-2.398261,1.8370402
1570726708,4.7955933,19.610306,-4.474167,2.3503113,3.671875,1.324997,2.9281454,10.523032,-5.5539627
1570726708,5.1924286,17.887085,1.9698334,1.7750702,3.4044952,0.20433044,5.8071294,10.478743,-3.1563962
1570726708,6.3631897,6.6397247,-2.1362305,-0.067840576,3.1328583,-0.9355011,5.988873,-2.7097454,-2.355753
1570726708,6.3631897,6.6397247,-2.1362305,-0.067840576,3.1328583,-0.9355011,5.988873,-2.7097454,-2.355753
1570726708,3.351883,7.5351562,-3.5559845,0.4189911,1.5349579,0.2086029,3.8935404,-2.2645655,-3.4497883
1570726708,3.351883,7.5351562,-3.5559845,0.4189911,1.5349579,0.2086029,3.8935404,-2.2645655,-3.4497883
1570726708,0.66978455,10.215454,-5.6191864,-0.02947998,-0.78518677,0.41738892,1.1509862,1.2865276,-6.013676
1570726708,0.20948792,9.864716,-4.9392395,0.01737976,-1.5606995,0.28315735,0.7214632,0.8037939,-5.3595347
1570726708,-0.8044586,9.206909,9.305664,1.2733307,-0.004348755,-0.34854126,-0.49275735,0.23913956,9.840264
1570726708,-0.881073,8.397064,7.1730347,1.5556335,1.4135132,-0.45292664,-0.48551485,-0.05844021,9.006927
1570726708,0.71347046,8.3940735,-3.0172882,-0.098724365,5.3624573,-0.8747711,1.4847296,-0.7274866,-2.6306124
1570726708,-0.462677,8.695145,-0.10235596,-0.28408813,4.9821625,-0.5115204,0.19435155,-0.46926212,0.33054006
1570726708,-0.44232178,8.790909,-0.080200195,-0.2457428,4.9395447,-0.47317505,0.19435155,-0.46926212,0.33054006
1570726708,-0.4237671,8.982452,-0.94750977,0.28050232,3.844452,-0.26864624,0.3896593,-0.12786579,-0.07652962
1570726709,-1.7956543,9.223663,-0.972641,-0.18927002,1.918457,-0.006591797,-1.096524,0.066290855,-0.35948086
1570726709,-1.7956543,9.223663,-0.972641,-0.18927002,1.918457,-0.006591797,-1.096524,0.066290855,-0.35948086
1570726709,-2.059021,9.23024,0.041305542,-0.3096466,1.807663,-0.04600525,-1.3302636,0.19949436,0.5620155
1570726709,-2.9005737,8.441956,1.6945038,0.1537323,1.821518,-0.14826965,-2.2764907,-0.5320072,2.4977794
1570726709,-1.0037689,9.164398,1.2820892,0.65335083,1.8481445,-0.21751404,-0.57869685,0.20186615,2.28505
1570726709,-0.9911957,9.1853485,1.225235,0.66293335,1.8619995,-0.23988342,-0.44780028,0.115104675,2.334618
1570726709,-0.57341003,8.789108,2.2026672,0.9431,2.190094,-0.3400116,-0.016612291,-0.048171043,3.4664526
1570726709,-0.57341003,8.789108,2.2026672,0.9431,2.190094,-0.3400116,-0.016612291,-0.048171043,3.4664526
1570726709,-0.23822021,9.294296,2.0620117,1.3894501,2.5288544,-0.23135376,0.3393945,-0.02064991,4.3033605
1570726709,-1.8572998,14.1970215,1.3946228,-0.69314575,1.8779755,-0.77145386,-1.5098724,7.0560875,2.9417963
1570726709,-1.8572998,14.1970215,1.3946228,-0.69314575,1.8779755,-0.77145386,-1.5098724,7.0560875,2.9417963
1570726709,-0.8044586,8.696945,1.0187378,-3.6726837,-2.4896088,0.291687,0.62968266,0.41368198,1.7159944
1570726709,-0.8044586,8.696945,1.0187378,-3.6726837,-2.4896088,0.291687,0.62968266,0.41368198,1.7159944
1570726709,-0.25857544,8.7621765,0.72065735,-3.6641693,-2.3095856,1.9875946,-0.5220964,-1.0974293,0.9456366
1570726709,19.612701,18.573013,3.7954102,-3.2508392,3.4737396,1.9897156,14.372066,7.5813627,2.1556106
1570726709,5.7347107,8.257599,-4.4071198,-1.5879669,4.7445984,-0.46678162,8.795976,-0.25127697,-2.39176
1570726709,-2.3187866,9.068039,5.724533,-1.2385559,-1.2549744,0.73483276,-2.1587749,-0.06969547,0.6879306
1570726709,-2.426529,9.187149,6.569092,-1.1384277,-0.8842621,0.6027374,-2.5769722,0.20108986,2.7402105
1570726709,-0.15621948,7.341812,0.3657074,-0.18714905,1.4753113,-0.7373657,-0.11460228,-1.11837,-2.120834
1570726709,-0.3435669,6.566696,1.5233154,-0.15838623,1.0470734,-0.67770386,-0.10609274,-1.9347315,-1.6184795
1570726709,1.0193329,5.3025513,1.9518738,0.322052,-0.084243774,0.081832886,0.8811667,-3.488287,-0.82181835
1570726709,1.2354126,5.2977753,2.1529846,0.36360168,-0.09275818,0.09248352,0.8811667,-3.488287,-0.82181835
1570726709,2.6581573,4.4256744,2.3493042,1.10289,0.24598694,0.011520386,3.0979705,-4.15899,-0.12962985
1570726709,2.146408,4.396347,2.5947113,1.8624268,0.79460144,0.4152527,2.310834,-4.51884,0.98034835
1570726709,2.146408,4.396347,2.5947113,1.8624268,0.79460144,0.4152527,2.310834,-4.51884,0.98034835
1570726709,2.8634644,10.797256,-3.3351288,1.7463074,0.7370758,0.6336365,2.4587054,0.56046104,-2.7343597
1570726709,-3.2776642,5.5826874,5.6862335,0.9026184,-1.1825256,0.17770386,-2.6572082,-3.2606668,4.2094364
1570726709,-2.7994232,6.383545,3.1609497,0.63204956,-0.47732544,0.2821045,-3.100161,-2.897318,3.835527
1570726709,-1.1216888,7.8128815,1.4598694,-0.2776947,-0.6232605,-0.057724,-1.6150861,-1.2731237,0.85481715
1570726709,1.3551178,8.962692,2.3852234,-0.47583008,-1.042984,-0.29634094,0.9415947,-0.27639484,1.5107174
1570726709,3.7008362,9.490021,4.416107,0.28050232,-0.25149536,-0.5402832,3.62596,0.64031696,3.7201464
1570726709,2.5240936,10.271118,2.739563,0.98358154,0.60498047,-0.5104523,2.7863717,0.7995472,2.6813679
1570726709,2.6096802,10.629654,2.451065,0.96972656,0.612442,-0.46891785,2.7863717,0.7995472,2.6813679
1570726709,2.1565704,14.258667,0.21247864,0.60328674,0.6156311,-0.016174316,2.5578701,4.5958357,0.46889755
1570726710,5.3276978,12.494736,1.6256561,-0.34906006,0.65078735,0.23309326,5.7261233,6.026533,0.86067855
1570726710,-0.7757263,8.380905,-3.119049,-1.7264557,0.9075165,0.44828796,-0.6031795,-1.2369804,-3.82133
1570726710,-0.8571167,8.848373,-3.0436249,-1.8095398,0.8723602,0.47277832,-0.6031795,-1.2369804,-3.82133
1570726710,-1.7938538,15.348633,3.7337646,-1.0212555,0.2854004,0.6805115,-2.003857,6.4541073,1.8827672
1570726710,-0.037109375,9.8138275,1.9440918,0.32418823,-0.41661072,-0.5157776,-0.47616556,1.0200958,0.2972629
1570726710,0.1149292,9.8138275,1.9440918,0.32418823,-0.41661072,-0.5157776,-0.47616556,1.0200958,0.2972629
1570726710,0.57221985,7.265808,1.514328,1.5875854,1.3485413,-0.38156128,0.5019932,-1.851676,1.0069735
1570726710,0.58418274,7.2789764,1.4694366,1.6184845,1.3655853,-0.35705566,0.5965275,-1.8486137,0.8534974
1570726710,0.1490326,6.14711,0.16101074,2.0999756,0.8585205,-0.05558777,0.9592068,-2.6121092,0.7764679
1570726710,-0.14665222,6.0268097,0.16459656,2.0317993,0.82336426,-0.030029297,0.43534598,-2.8824177,0.6225409
1570726710,-1.2755127,6.83963,5.360016,-1.1309662,-0.7766571,0.44934082,-1.5095111,-2.4510822,4.948786
1570726710,-1.1569977,7.000641,5.6634827,-1.2524109,-0.6957092,0.48875427,-1.3086476,-2.238841,5.827778
1570726710,0.9427185,7.7021484,0.8571167,-0.74853516,0.2577057,0.5132599,1.4720936,-0.9226494,1.8337618
1570726710,-0.3615265,6.969528,2.1457977,-1.3536072,0.5080414,0.4312439,-0.67091477,-1.8994627,2.2725239
1570726710,-0.7745209,6.1321564,0.7296295,-0.9690552,0.67422485,0.04774475,-1.0794412,-2.8600016,0.191612
1570726710,-0.7745209,6.1321564,0.7296295,-0.9690552,0.67422485,0.04774475,-1.0794412,-2.8600016,0.191612
1570726710,-0.41958618,8.321045,-0.010772705,-0.22763062,0.4398651,0.1340332,-0.5317465,-0.9786711,-0.5879562
1570726710,-2.5193024,12.393585,4.3107605,-0.5791626,0.035064697,0.12763977,-2.820631,2.649993,3.3936272
1570726710,-0.99539185,15.526398,0.61231995,-1.6348419,-0.30900574,0.17131042,-1.9433233,6.434658,-0.10907006
1570726710,0.9798279,14.004288,3.846878,-2.133377,-1.204895,-0.023635864,0.23859286,5.2580786,1.5690292
1570726710,3.197464,15.385147,6.865967,-2.5776062,-0.50502014,-0.16210938,2.3702886,6.2710285,4.9654226
1570726710,5.1295776,15.09903,5.45459,-2.5072937,0.72535706,-0.13441467,4.3446918,7.12027,2.7960067
1570726710,2.9700012,10.452484,1.4640503,-1.57518,0.47288513,0.5239105,2.2562778,2.1362162,-1.8724616
1570726710,0.56562805,9.619904,0.79307556,-0.69421387,-0.8000946,0.40034485,1.14798546E-4,1.2846622,-3.0970504
1570726710,1.2000885,7.2364807,3.344696,0.11645508,-0.5220642,-0.1599884,0.37822348,-0.9168081,-0.27008915
1570726710,1.8477325,6.345825,2.5282745,0.49674988,-0.019256592,-0.25160217,0.90100765,-1.9907379,-0.65000176
1570726710,1.7262268,3.869629,0.7368164,1.2211304,0.3929901,-0.39646912,1.2336777,-4.392544,-2.3348951
1570726710,1.6795349,3.6906586,0.8158264,1.2434998,0.3834076,-0.3868866,1.2148831,-4.6562862,-2.3348951
1570726710,0.3471527,2.7437592,1.921341,1.4011688,0.47395325,0.27357483,0.006554395,-5.994295,-0.38248968
1570726710,0.3471527,2.7437592,1.921341,1.4011688,0.47395325,0.27357483,0.006554395,-5.994295,-0.38248968
1570726710,2.2966309,12.261307,-3.3644562,1.0709381,-0.3633423,0.68263245,1.227493,1.8499556,-4.790409
1570726710,-0.20170593,8.516769,8.161835,0.9260559,-2.926361,-0.3645172,-1.1349084,-0.297822,5.64202
1570726710,-0.20170593,8.516769,8.161835,0.9260559,-2.926361,-0.3645172,-1.1349084,-0.297822,5.64202
1570726711,1.4646454,7.139511,2.6749268,0.5404358,0.94799805,-0.5882263,0.8908254,-1.8884172,2.1000624
1570726711,1.4646454,7.139511,2.6749268,0.5404358,0.94799805,-0.5882263,0.8908254,-1.8884172,2.1000624
1570726711,2.2750854,12.15416,1.7304077,0.45414734,1.0023346,-0.63508606,1.9556355,2.5348415,0.87981206
1570726711,2.2595215,14.598053,2.7772675,0.84935,-0.0011444092,-0.053451538,2.115893,5.6278152,2.5517435
1570726711,1.438324,9.127289,-0.017364502,-1.5464172,2.3562775,-0.04812622,1.463304,-0.49022102,-2.0284789
1570726711,1.438324,9.127289,-0.017364502,-1.5464172,2.3562775,-0.04812622,1.463304,-0.49022102,-2.0284789
1570726711,-0.49380493,12.574951,-4.6591187,-0.51524353,-2.6664429,1.2216644,-1.6134751,4.293187,-5.9521484
1570726711,-0.49380493,12.574951,-4.6591187,-0.51524353,-2.6664429,1.2216644,-1.6134751,4.293187,-5.9521484
1570726711,-1.1318665,12.118851,6.790558,-0.9573364,-1.7290039,0.4663849,-1.3603611,3.250393,5.530381
1570726711,-1.0325012,8.622116,1.5879517,0.21658325,2.0217896,-0.50512695,-1.729257,0.15703583,0.03952515
1570726711,0.040100098,5.3929443,1.1809387,1.5609589,0.18739319,-0.21324158,-0.33465824,-3.493061,-0.094445944
1570726711,-0.024536133,5.2750244,1.2593536,1.6014404,0.11177063,-0.19726562,-0.33465824,-3.493061,-0.094445944
1570726711,-0.26156616,6.0106506,3.5398254,1.9945221,-1.2592316,0.050933838,-0.90049577,-3.2959108,2.6624365
1570726711,2.09552,7.92601,10.638031,-1.4079437,0.24066162,0.9361725,1.1676121,-1.429781,9.831733
1570726711,2.09552,7.92601,10.638031,-1.4079437,0.24066162,0.9361725,1.1676121,-1.429781,9.831733
1570726711,0.3549347,5.7574615,0.60572815,-0.6548004,0.5282898,0.2725067,-0.9376319,-3.729848,-2.0007792
1570726711,-0.72843933,6.5762787,1.5107422,-0.2776947,1.2675781,-0.05984497,-1.7614288,-2.2833595,0.16729271
1570726711,-0.72843933,6.5762787,1.5107422,-0.2776947,1.2675781,-0.05984497,-1.7614288,-2.2833595,0.16729271
1570726711,1.240799,12.726379,1.7178345,-0.64094543,-0.55296326,0.48875427,0.08558887,2.5596685,-0.4136616
1570726711,1.240799,12.726379,1.7178345,-0.64094543,-0.55296326,0.48875427,0.08558887,2.5596685,-0.4136616
1570726711,-1.4514923,15.184631,6.122574,-2.4050293,-1.3135529,-0.039611816,-2.6807113,6.1770487,3.083424
1570726711,-1.3317719,15.334869,6.379944,-2.4273987,-1.3188782,-0.05984497,-2.6807113,6.1770487,3.083424
1570726711,3.9737701,14.574707,7.1329193,-1.4388275,0.75198364,-0.49128723,2.5201013,6.4417562,4.6775627
1570726711,5.0984497,9.744995,1.7980499,-0.9093933,0.84147644,-0.016174316,4.338257,1.5153875,-1.6061294
1570726711,5.0984497,9.744995,1.7980499,-0.9093933,0.84147644,-0.016174316,4.338257,1.5153875,-1.6061294
1570726711,3.7427368,9.037506,2.2164307,-0.4353485,-0.40168762,0.23416138,3.1917017,0.70147514,-1.760575
1570726711,2.2655182,8.081024,2.394806,0.39341736,-0.023529053,-0.313385,1.9534426,0.1759901,-1.3114212
1570726711,1.162384,5.6718597,2.435501,0.9665375,0.7828827,-0.72883606,0.46147645,-2.6043663,-0.8822603
1570726711,0.6326752,2.8437195,0.98461914,1.2328491,0.6252289,-0.115249634,0.25495458,-5.8889933,-1.9715083
1570726711,0.72065735,2.9269104,1.1115112,1.2328491,0.6252289,-0.115249634,0.25495458,-5.8889933,-1.9715083
1570726711,0.66378784,2.8880005,1.1186981,1.4533539,0.7594452,0.19793701,0.44824746,-5.766264,-1.2954433
1570726711,0.31723022,2.6815033,0.4219818,1.4746704,1.20047,0.7103424,0.09730521,-6.289489,-1.4386458
1570726712,-0.08140564,6.8923035,2.0129242,0.9399109,-2.174286,0.048812866,-0.46219695,-2.3848925,-0.45570982
1570726712,-0.08140564,6.8923035,2.0129242,0.9399109,-2.174286,0.048812866,-0.46219695,-2.3848925,-0.45570982
1570726712,0.22445679,15.320496,15.760437,1.0336456,-3.9937592,-0.24095154,-0.7682316,6.3058844,10.036293
1570726712,2.4953613,5.5234222,16.983871,-0.425766,1.6606598,-0.35598755,1.6253233,-2.7994108,18.07368
1570726712,3.7104187,9.557053,-3.612854,0.5766449,2.7472382,-1.2113953,4.8499403,0.47025967,-0.9684769
1570726712,2.3606873,12.464813,-2.0386658,-0.7741089,0.2118988,-0.2888794,1.9170587,2.7749844,-3.9276497
1570726712,2.3606873,12.464813,-2.0386658,-0.7741089,0.2118988,-0.2888794,1.9170587,2.7749844,-3.9276497
1570726712,3.7780457,12.49295,-1.0708008,-0.48861694,-0.66799927,0.4078064,3.9633605,4.8032246,-1.469099
1570726712,-0.3250122,19.612701,-0.15023804,-1.4409637,-0.7478943,1.468811,-0.3909614,10.48901,-3.0479832
1570726712,-0.4800415,19.609116,0.46627808,-1.3323059,-0.9226074,1.5348511,-0.3909614,10.48901,-3.0479832
1570726712,-1.8285675,8.863342,2.3972015,1.4693451,-2.1476593,-0.30592346,-4.5471344,-0.3313551,1.8578833
1570726712,-1.2228394,9.041702,2.1338348,1.3660126,-1.9132996,-0.3868866,-3.346578,-0.22558975,1.5718887
1570726712,0.43873596,9.1698,1.5532379,0.35188293,-0.084243774,-1.1187286,-0.65551734,0.061696053,0.5485234
1570726712,0.3944397,7.8212585,3.1435852,0.45307922,1.8343048,-1.2327118,-0.018378794,-1.031826,2.3876238
1570726712,0.296875,7.3346405,2.225418,1.0379028,2.5416412,-0.6116638,-0.26208568,-1.7527084,1.8172852
1570726712,3.1250305,5.546768,3.0142975,1.7005005,2.5629425,-0.7416229,3.3339808,-3.4859476,2.3467822
1570726712,0.24958801,4.1892548,0.21009827,-0.2542572,-3.1394196,0.15533447,0.4501364,-4.5367374,-1.0470413
1570726712,0.24958801,4.1892548,0.21009827,-0.2542572,-3.1394196,0.15533447,0.4501364,-4.5367374,-1.0470413
1570726712,1.2826996,8.7304535,6.028,-1.0084686,1.5765076,1.4166107,0.6547016,-0.9361639,7.651002
1570726712,-0.21427917,8.038528,-1.3455353,-0.55892944,1.9589386,0.6176605,-0.038746476,-0.4854374,-1.001864
1570726712,-0.97024536,6.446991,-1.0402832,-1.1085968,0.25238037,0.40141296,-1.6795664,-2.6603603,-2.5498233
1570726712,-0.75357056,8.718491,2.968216,-0.32989502,-0.2749176,0.40248108,-1.619767,-0.48416615,1.7837796
1570726712,-0.49320984,9.834778,2.4157562,-0.004989624,-0.5433655,0.38009644,-1.2632289,0.7419176,1.50401
1570726712,1.4963837,16.275787,2.6108704,-1.7829132,-0.97906494,0.013656616,0.32676804,7.0966406,1.2118857
1570726712,1.4963837,16.275787,2.6108704,-1.7829132,-0.97906494,0.013656616,0.32676804,7.0966406,1.2118857
1570726712,1.454483,15.112793,2.3804321,-2.1866455,-1.8643036,-0.19619751,0.34872139,6.702533,0.30497527
1570726712,5.763443,14.097656,5.8238983,-1.9650726,2.141098,-0.16957092,4.9316764,6.0595074,4.562701
1570726712,4.9625854,11.705246,1.5813751,-1.7584076,1.3197784,0.40248108,4.824554,3.8042307,-1.5556862
1570726712,1.2348022,9.159012,0.91638184,-0.7464142,0.061706543,0.3651886,0.9550857,1.4664221,-3.1046455
1570726712,1.2348022,9.159012,0.91638184,-0.7464142,0.061706543,0.3651886,0.9550857,1.4664221,-3.1046455
1570726712,0.24301147,4.155731,2.7443542,0.31565857,0.35357666,-0.2345581,-0.8223422,-3.9368458,-0.6858654
1570726712,0.9104004,2.5552063,0.28012085,0.9729309,0.37062073,-0.007659912,0.069604814,-5.484087,-3.3183935
1570726712,0.9104004,2.5552063,0.28012085,0.9729309,0.37062073,-0.007659912,0.069604814,-5.484087,-3.3183935
1570726712,1.1863251,2.4833832,-0.106536865,1.2147369,-0.06399536,0.15852356,0.26595497,-5.991125,-3.703544
1570726713,1.5239105,5.9519806,-1.4802094,1.2893066,-0.33457947,0.3928833,-0.16005033,-4.2962885,-3.3739698
1570726713,1.987793,7.147888,-1.8920135,1.294632,-0.45069885,0.3374939,-0.16005033,-4.2962885,-3.3739698
1570726713,-0.59436035,7.9122314,1.2952576,1.6962433,-2.4864197,-0.62976074,-1.5745599,-1.1286516,-1.1334431
1570726713,-0.39804077,15.678436,19.612701,3.335678,-3.0083923,-0.8108673,-1.6066217,2.2265158,5.208403
1570726713,0.3357849,15.678436,19.612701,3.335678,-3.0083923,-0.8108673,-1.3703196,3.121232,10.825473
1570726713,7.561493,5.8083344,9.929352,0.26771545,2.1453552,-0.6137848,6.0329595,-3.6914206,10.677034
1570726713,6.450577,15.288773,-2.9089508,-0.28727722,1.4369507,-0.31124878,6.305621,5.8425655,-4.083118
1570726713,6.122574,15.520416,-2.8221588,-0.36610413,1.5509338,-0.25585938,6.305621,5.8425655,-4.083118
1570726713,1.3964233,8.436569,-4.730942,-1.220459,2.2721252,0.37265015,2.1215358,-0.6061859,-5.4229946
1570726713,1.5215149,13.28363,-5.6401367,-0.20526123,-4.02359,1.8597565,-1.6736071,6.80206,-2.6059804
1570726713,1.5215149,13.28363,-5.6401367,-0.20526123,-4.02359,1.8597565,-1.6736071,6.80206,-2.6059804
1570726713,-3.3255463,12.538437,8.580215,-0.14453125,-2.6184998,-0.1408081,-5.367172,3.2946043,7.117051
1570726713,-1.2240295,8.827423,1.7495575,0.40408325,2.445755,-1.2976837,-2.275649,0.24946213,0.16045475
1570726713,-1.2611389,8.589798,1.8016357,0.4328308,2.572525,-1.2572021,-2.275649,0.24946213,0.16045475
1570726713,0.846344,4.4214935,1.0576324,1.3042297,3.1648102,-0.54241943,0.4718131,-4.1206474,-0.21934938
1570726713,0.846344,4.4214935,1.0576324,1.3042297,3.1648102,-0.54241943,0.4718131,-4.1206474,-0.21934938
1570726713,1.8447266,6.7384796,-7.5716553,2.966034,-6.411911,-0.10032654,1.2524498,-3.0225487,-2.5003605
1570726713,1.8447266,6.7384796,-7.5716553,2.966034,-6.411911,-0.10032654,1.2524498,-3.0225487,-2.5003605
1570726713,0.296875,6.7773895,-1.1905212,-1.0361633,3.5621643,1.5582886,-0.55668396,-2.881462,-1.0266011
1570726713,0.375885,7.108383,-1.5071564,-1.0521393,3.5387268,1.5348511,-0.51889205,-2.2971973,-2.1397736
1570726713,2.399582,10.972626,-5.234329,-1.2673187,2.0175323,0.7316437,1.6975124,2.1433363,-6.657466
1570726713,-1.5502472,5.917267,3.1926727,-0.71765137,-0.9076843,0.39076233,-2.66985,-3.2038174,1.1003419
1570726713,-1.5711975,6.328476,3.32016,-0.67396545,-0.8661499,0.38648987,-2.66985,-3.2038174,1.1003419
1570726713,-0.99957275,18.919586,5.0541534,-1.4345703,1.2356262,-0.15039062,-1.8695788,9.634242,4.311844
1570726713,-1.0253143,19.230225,3.839096,-1.6465607,1.1685028,-0.14826965,-1.8695788,9.634242,4.311844
1570726713,5.1175995,14.19342,11.082169,-1.3067322,1.585022,-0.6105957,4.505226,6.737282,9.206139
1570726713,5.2247467,13.727753,9.671982,-1.1416168,1.8758392,-0.5157776,4.505226,6.737282,9.206139
1570726713,2.576767,9.018951,1.8764496,-0.81352234,-0.46347046,0.22669983,1.8310473,0.73624134,-2.5232668
1570726713,2.576767,9.018951,1.8764496,-0.81352234,-0.46347046,0.22669983,1.8310473,0.73624134,-2.5232668
1570726713,0.6775665,7.0467377,3.423111,0.75135803,0.26942444,-0.6840973,-0.023097873,-1.0251265,0.99595046
1570726713,1.1719666,3.6355896,0.31604004,1.3383179,0.4814148,-0.4625244,0.3821748,-4.4239197,-2.7630935
1570726713,1.2378082,3.4698029,0.27233887,1.3542938,0.47395325,-0.4390869,0.70088863,-4.789197,-3.14645
1570726713,0.69970703,2.1302338,0.46507263,1.4831848,-0.15135193,-0.19407654,0.5340492,-6.328907,-3.0803874
1570726714,-0.70928955,1.8902283,0.1304779,1.3404388,0.49313354,0.5899658,-0.73697567,-6.9354076,-2.3267035
1570726714,-0.70928955,1.8902283,0.1304779,1.3404388,0.49313354,0.5899658,-0.73697567,-6.9354076,-2.3267035
1570726714,0.8529358,8.763382,1.4125824,0.53723145,-2.9988098,8.69751E-4,1.041847,0.52282333,-2.7421837
1570726714,0.7003021,8.705917,1.9147644,0.6480255,-3.2214508,-0.0619812,0.28973538,0.092209816,-0.87943184
1570726714,0.35794067,9.205109,5.0260315,2.3471222,-5.1271973,-0.53282166,-0.5637663,0.23217678,3.114884
1570726714,5.549759,6.1105957,9.495407,0.31459045,2.875061,-0.72032166,4.5781755,-3.2725773,10.631016
1570726714,5.589264,6.320694,8.668808,0.38276672,3.080658,-0.7405548,4.8268185,-2.9511824,8.985159
1570726714,4.7572784,14.891937,-4.9308624,-0.458786,0.79460144,-0.057724,3.9022017,4.8884497,-5.887279
1570726714,4.7572784,14.891937,-4.9308624,-0.458786,0.79460144,-0.057724,4.352153,5.6905403,-5.8826575
1570726714,-0.95648193,9.002197,-1.0163422,-1.6497498,-0.27279663,0.9979553,-0.6317983,-1.0008659,-3.067488
1570726714,-0.95648193,9.002197,-1.0163422,-1.6497498,-0.27279663,0.9979553,-0.6317983,-1.0008659,-3.067488
1570726714,-0.9349365,12.538437,1.359314,-0.71765137,-0.63497925,0.011520386,-2.286698,4.0017834,-0.450554
1570726714,-0.79307556,12.372635,1.398819,-0.7602539,-0.48583984,-0.05026245,-2.286698,4.0017834,-0.450554
1570726714,0.66978455,8.702332,0.5704193,0.7811737,2.2902374,-0.5307007,-0.34339422,0.17496681,-1.475451
1570726714,0.746994,8.508392,0.6799469,0.8237915,2.2966309,-0.52537537,-0.12248033,-0.18208122,-1.4112495
1570726714,-0.053268433,4.873993,1.964447,1.5907745,2.047348,-0.115249634,-0.07343018,-3.8731117,-0.14442754
1570726714,-0.053268433,4.873993,1.964447,1.5907745,2.047348,-0.115249634,-0.07343018,-3.8731117,-0.14442754
1570726714,-0.19093323,5.0350037,2.9538422,2.8776245,0.12667847,0.21179199,-0.9694141,-4.431242,2.6819293
1570726714,0.14485168,3.9115295,2.257141,0.37104797,-3.3450165,0.060531616,0.014791995,-4.7490873,1.0904151
1570726714,0.81103516,5.047577,12.047623,-1.8830414,-0.10447693,0.7604065,0.06672099,-4.749317,12.132238
1570726714,0.059249878,6.396103,-1.2402039,-0.8167114,1.3613281,0.09994507,0.14379478,-2.020194,-2.566759
1570726714,-0.20709229,6.169861,-1.0229187,-0.81777954,1.313385,0.091415405,-0.42512167,-2.421729,-2.6360784
1570726714,-1.371872,8.0229645,4.312561,-0.4492035,0.21829224,0.10420227,-2.005094,-1.2492037,2.2790813
1570726714,-1.4526825,8.259399,4.640564,-0.45985413,0.3376007,0.0637207,-2.005094,-1.2492037,2.2790813
1570726714,0.48602295,16.871338,1.1887207,-2.352829,-1.0749359,-0.09925842,-0.738197,8.092231,-1.0414326
1570726714,0.8140259,16.867157,1.1432343,-2.3911743,-1.4626923,-0.12376404,-0.738197,8.092231,-1.0414326
1570726714,5.3851624,12.998718,5.3659973,-1.9970245,1.9908905,-0.19619751,4.821205,5.123439,3.4402256
1570726714,5.190033,12.6276245,3.9624023,-1.9757233,1.9546814,-0.13761902,4.821205,5.123439,3.4402256
1570726714,2.0769653,9.494812,1.5807648,-0.26383972,0.11816406,-0.32722473,1.5748456,1.7070761,-1.5330272
1570726714,2.301422,9.320023,2.0362701,-0.18182373,0.10324097,-0.41990662,1.5748456,1.7070761,-1.5330272
1570726714,1.7357941,4.9147034,2.0811615,0.27198792,0.65078735,-0.87797546,1.140217,-2.5429878,-2.2795448
1570726714,2.4373016,4.1796722,3.1615448,0.7023468,0.47288513,-0.55093384,2.6173902,-4.1091757,-1.4793286
1570726714,1.1773529,1.83815,1.2348022,1.3606873,-0.084243774,0.12231445,1.021308,-6.2996893,-2.9108286
1570726714,1.1773529,1.83815,1.2348022,1.3606873,-0.084243774,0.12231445,1.021308,-6.2996893,-2.9108286
1570726715,0.6464386,3.0352478,2.4528656,1.9753418,0.7871399,0.3651886,0.75149584,-5.6210203,-0.90379405
1570726715,0.296875,3.6852722,2.328354,2.1276703,0.9330902,0.46958923,0.34291703,-5.2649117,-0.75471854
1570726715,3.5075073,11.346115,0.1663971,1.1646729,-0.25575256,-0.093933105,4.5757003,4.67663,-5.4288354
1570726715,3.5075073,11.346115,0.1663971,1.1646729,-0.25575256,-0.093933105,4.5757003,4.67663,-5.4288354
1570726715,1.7166443,6.9515686,11.0468445,1.4096832,2.6076813,-0.84921265,1.9843353,-1.6677856,9.899164
1570726715,1.7166443,6.9515686,11.0468445,1.4096832,2.6076813,-0.84921265,1.9843353,-1.6677856,9.899164
1570726715,1.1312561,8.53772,2.1003113,0.26026917,2.5501556,-0.5125885,1.6056089,-0.6673088,1.0488592
1570726715,1.1839294,8.731659,2.103302,0.17184448,2.3733215,-0.5083313,1.6056089,-0.6673088,1.0488592
1570726715,1.8956146,12.637787,2.991562,-0.32029724,0.8808899,-0.13761902,2.328492,2.9192972,1.8131684
1570726715,1.9075775,14.093475,0.84695435,0.63417053,-0.22273254,0.023239136,3.1942196,4.81647,0.84619105
1570726715,-0.88764954,9.681549,-3.9546204,-1.50914,0.67103577,0.5878296,-0.40852684,0.07811928,-5.438072
1570726715,-0.88764954,9.681549,-3.9546204,-1.50914,0.67103577,0.5878296,-0.40852684,0.07811928,-5.438072
1570726715,2.0835571,12.699448,-5.8729706,1.8794708,-0.4890442,-0.010848999,2.2751484,4.301532,-5.264853
1570726715,2.0111237,12.0512085,-6.7498474,1.7750702,-0.4933014,-0.091812134,2.3916094,3.675002,-6.536743
1570726715,2.897583,9.504974,1.608902,0.65974426,2.9357758,-0.6478729,2.9194252,0.42823982,0.01651287
1570726715,3.0274658,9.269745,1.9656372,0.9068756,3.9626923,-0.75546265,3.5156138,0.15738869,1.4202435
1570726715,2.9275055,6.719925,-2.810791,0.78863525,6.2093353,-0.631897,3.9435425,-2.5408373,-2.4726994
1570726715,2.9275055,6.719925,-2.810791,0.78863525,6.2093353,-0.631897,3.9435425,-2.5408373,-2.4726994
1570726715,0.549469,8.027161,-4.5986633,0.107925415,4.1235504,-0.20046997,1.5938019,-1.0569162,-3.6156988
1570726715,0.549469,8.027161,-4.5986633,0.107925415,4.1235504,-0.20046997,1.5938019,-1.0569162,-3.6156988
1570726715,-4.1886597,10.184341,-2.5049286,-0.99993896,1.1876831,-0.056655884,-3.3044355,0.9519167,-2.0164886
1570726715,-4.1886597,10.184341,-2.5049286,-0.99993896,1.1876831,-0.056655884,-3.3044355,0.9519167,-2.0164886
1570726715,-6.269211,6.091446,7.8763275,1.0815887,1.5658569,0.40248108,-6.123756,-2.537239,7.0705996
1570726715,-5.703583,6.1291504,8.040329,1.26268,1.6862335,0.47598267,-5.657293,-2.9420748,8.392531
1570726715,-2.612671,9.917984,-1.624466,1.9497681,2.1283112,8.69751E-4,-1.8670772,0.7608032,0.32221437
1570726715,-1.0887604,8.286331,4.0569763,1.611023,2.1315155,-0.4380188,-0.98890644,-0.34319878,6.475955
1570726715,-1.0887604,8.286331,4.0569763,1.611023,2.1315155,-0.4380188,-0.98890644,-0.34319878,6.475955
1570726715,-0.92655945,7.68898,-1.8674774,0.53829956,2.9272614,-0.4412079,-0.31070969,-1.1773643,2.1061108
1570726715,-1.5831604,14.022247,-11.054626,-1.7126007,0.62202454,-0.45292664,-1.2145169,4.5080223,-7.758953
1570726715,-1.2246399,8.729263,2.1475983,-1.9394989,0.48355103,-1.190094,0.12318599,1.1649218,4.5419574
1570726715,-1.2246399,8.729263,2.1475983,-1.9394989,0.48355103,-1.190094,0.12318599,1.1649218,4.5419574
1570726715,-0.57221985,8.969879,-1.0947418,-1.651886,0.50697327,1.0341797,0.2675072,-0.2561531,-0.14394134
1570726715,6.8049164,10.099945,-2.8018188,-1.8926392,-0.28770447,1.8011627,5.6334386,0.43680954,-2.461416
1570726715,19.612701,10.834366,1.36409,-2.609558,1.5594635,-0.585022,20.08049,4.4416313,-0.3489343
1570726716,3.3063965,9.606735,-6.997055,-2.1397705,2.9038239,0.77319336,4.5674686,-0.35525703,-3.5700614
1570726716,-2.1248474,7.000046,-7.914627,-2.9461823,1.1759644,1.1449585,-0.72809863,-1.6874084,-9.142702
1570726716,1.5292969,9.746201,-0.7146759,-2.276123,-1.1164856,1.9076996,0.8598341,0.52478695,-3.1468036
1570726716,-0.68055725,10.785278,6.3272705,-0.5844879,0.8574524,0.528183,-1.6461303,1.8373327,4.2775664
1570726716,0.79367065,9.120117,1.9015961,-1.1916962,1.1589203,-0.19940186,0.16743904,0.84355736,-1.7080445
1570726716,0.90979004,7.9475555,1.7094574,-0.8486786,0.89686584,-0.17170715,0.48375893,-0.39785767,-0.5616536
1570726716,2.040451,6.1722565,1.9321136,-0.56637573,0.014831543,0.04560852,1.4754747,-2.3797216,-1.5848992
1570726716,0.88046265,3.81456,4.712982,0.43177795,0.64120483,0.42803955,0.3264276,-4.8547554,1.4786763
1570726716,0.9403229,3.8869934,4.60585,0.48716736,0.6870117,0.45361328,0.4142027,-4.7986927,1.6090481
1570726716,1.430542,4.560959,3.154358,1.1870422,1.1365509,0.7422943,0.8799691,-4.0897865,0.2693355
1570726716,1.5137329,5.0751038,3.588913,1.3372498,1.2750397,0.77212524,0.83515316,-3.7677402,0.7394688
1570726716,1.6597748,11.553223,6.8085175,1.165741,2.1613312,0.6016846,1.0176666,1.0083895,4.389116
1570726716,1.8585052,15.10202,5.9076996,0.989975,1.8747864,0.25334167,0.9724827,5.106312,4.2830434
1570726716,-0.31184387,11.580154,6.1956024,0.08982849,0.84254456,-0.46784973,-0.9011439,3.2504778,3.8997822
1570726716,3.7205963,6.250656,4.711197,0.17398071,0.3365326,-0.20791626,3.2935762,-2.3150702,2.449631
1570726716,3.7205963,6.250656,4.711197,0.17398071,0.3365326,-0.20791626,3.2935762,-2.3150702,2.449631
1570726716,3.3093872,6.177643,5.5204315,0.9207306,0.92988586,0.25759888,3.0750806,-3.221386,3.6838822
1570726716,6.937805,17.870926,0.07841492,1.9561615,0.8127136,0.21179199,6.5402684,9.0595,-1.1693197
1570726716,6.87735,17.489044,0.022140503,1.9199524,0.7541199,0.14468384,6.5402684,9.0595,-1.1693197
1570726716,0.33998108,5.068527,0.03831482,0.34016418,1.4124603,0.082901,-0.39132822,-3.2853327,0.575819
1570726716,0.33998108,5.068527,0.03831482,0.34016418,1.4124603,0.082901,-0.39132822,-3.2853327,0.575819
1570726716,1.2354126,4.34906,-1.9931793,-0.50245667,2.0697174,0.16279602,0.7988851,-4.961342,-2.4147973
1570726716,1.6921082,12.329544,-5.033203,0.0791626,0.802063,0.5867615,0.74860466,2.1707191,-4.9091144
1570726716,1.6921082,12.329544,-5.033203,0.0791626,0.802063,0.5867615,0.74860466,2.1707191,-4.9091144
1570726716,-0.0018005371,9.084793,-3.526657,0.7034149,-3.4835052,-0.0662384,-0.44308102,0.42618656,-4.6714907
1570726716,-2.0997162,8.607162,8.533539,1.9188843,0.09365845,-0.25372314,-2.6982718,-0.34253883,9.246087
1570726716,-2.0997162,8.607162,8.533539,1.9188843,0.09365845,-0.25372314,-2.6982718,-0.34253883,9.246087
1570726716,1.4682465,9.270355,2.2750854,1.4192657,4.6497955,-1.2476196,1.264968,0.20913601,2.3928437
1570726716,2.5947113,9.787491,4.4957123,1.4203339,6.474594,-1.4414978,2.11196,0.739171,5.825952
1570726716,0.6721649,8.097794,-2.2002716,0.07171631,3.588791,-1.0505524,1.1037756,-0.759346,-0.8635217
1570726716,0.6721649,8.097794,-2.2002716,0.07171631,3.588791,-1.0505524,1.1037756,-0.759346,-0.8635217
1570726716,-1.0971375,6.9066772,-0.74220276,-0.81033325,-0.25468445,-0.280365,-0.9599339,-2.0985384,-0.02854848
1570726717,-0.61351013,7.2472534,2.6342163,-1.6284485,-1.394516,0.25546265,-0.7172252,-1.8601103,2.3610783
1570726717,-0.61351013,7.2472534,2.6342163,-1.6284485,-1.394516,0.25546265,-0.7172252,-1.8601103,2.3610783
1570726717,1.2898712,5.961563,0.34477234,-0.76664734,1.7810364,-0.5669098,0.9494482,-2.8610325,0.25104553
1570726717,1.2898712,5.961563,0.34477234,-0.76664734,1.7810364,-0.5669098,0.9494482,-2.8610325,0.25104553
1570726717,0.5315094,5.309738,0.013168335,-1.1085968,1.6414795,-0.20579529,0.6162583,-3.9173708,-0.40733355
1570726717,3.40036,7.5052185,-0.1879425,-0.5812988,-0.4464264,0.43762207,3.9286306,-1.4269981,-1.0704584
1570726717,3.40036,7.5052185,-0.1879425,-0.5812988,-0.4464264,0.43762207,3.9286306,-1.4269981,-1.0704584
1570726717,-0.7553711,8.765167,3.4721985,0.30500793,0.8255005,0.40673828,-0.6178636,-0.26472378,2.2806387
1570726717,-0.7553711,8.765167,3.4721985,0.30500793,0.8255005,0.40673828,-0.6178636,-0.26472378,2.2806387
1570726717,-2.2996368,14.522034,-2.1655579,-0.5088501,-0.9343262,0.2128601,-2.4936981,4.644147,-2.9513373
1570726717,-2.2996368,14.522034,-2.1655579,-0.5088501,-0.9343262,0.2128601,-2.4936981,4.644147,-2.9513373
1570726717,-1.6699524,16.182404,4.3753967,-1.0350952,-2.271225,0.054138184,-2.1225624,6.9902697,2.3081777
1570726717,3.194458,14.126389,6.8126984,-2.4487,0.28007507,-0.70433044,3.5479426,6.4894295,4.8032904
1570726717,3.194458,14.126389,6.8126984,-2.4487,0.28007507,-0.70433044,3.5479426,6.4894295,4.8032904
1570726717,7.439377,8.600571,-1.2132568,0.06745911,2.6747894,-0.25479126,8.088425,0.9508066,-3.3022902
1570726717,7.439377,8.600571,-1.2132568,0.06745911,2.6747894,-0.25479126,8.088425,0.9508066,-3.3022902
1570726717,0.4620819,9.236832,3.1651306,-0.85079956,-1.6448517,0.8115387,1.5472722,0.08610916,-2.664687
1570726717,-2.475006,5.387558,2.004547,0.22085571,0.33441162,-0.016174316,-3.487959,-2.744318,0.4721923
1570726717,-2.475006,5.387558,2.004547,0.22085571,0.33441162,-0.016174316,-3.487959,-2.744318,0.4721923
1570726717,-0.6578064,4.6375732,-0.15083313,0.5510864,0.16929626,-0.014038086,-1.1821543,-3.7645245,-2.6768825
1570726717,0.88764954,4.3981476,0.8307953,0.79289246,0.07980347,0.547348,0.5238114,-4.387224,-1.7811878
1570726717,1.921341,4.301178,1.0971375,0.8046112,0.15437317,0.7092743,1.1765823,-4.3783903,-1.3555233
1570726717,2.2942505,4.2245636,1.4724274,0.9580078,0.97994995,0.8584137,1.8775036,-4.533574,-0.5200629
1570726717,3.2160187,6.5056458,-2.6102753,0.8706665,0.6635742,0.80940247,1.7300875,-3.7370796,-2.6769974
1570726717,1.1635895,5.4402313,0.5009918,0.2986145,-1.9228821,0.15000916,0.2743703,-3.6103115,-2.1726305
1570726717,1.9907837,6.6468964,4.399353,1.5396423,-4.705353,-0.018310547,0.81367147,-2.2416916,2.4459057
1570726717,1.462265,11.152786,19.288284,2.1425934,-2.6653748,-0.4614563,0.50749445,-0.27022457,16.713543
1570726717,-1.7112579,8.634094,10.767929,0.9676056,2.871872,-1.2540131,-1.7172029,1.247983,12.304026
1570726717,-1.2042847,10.112503,0.91578674,0.25494385,3.8125,-0.89927673,-1.8475132,0.86682606,0.81731004
1570726717,3.3219604,13.593674,-0.63386536,-0.2766266,-1.2262115,-0.6851654,2.4513242,4.0989275,-1.3004837
1570726717,3.3219604,13.593674,-0.63386536,-0.2766266,-1.2262115,-0.6851654,2.4513242,4.0989275,-1.3004837
1570726717,12.442673,17.228073,3.36026,-0.46624756,-1.0483093,-0.6990051,11.554738,9.143029,2.3396025
1570726717,1.7872772,7.652466,1.3227997,-0.4342804,-0.21740723,-0.73309326,4.647271,-0.5553055,0.5977059
1570726718,8.757996,19.59056,-2.7730865,-2.209015,-0.8192749,1.4155426,7.4340253,9.713058,-5.497473
1570726718,8.757996,19.59056,-2.7730865,-2.209015,-0.8192749,1.4155426,7.4340253,9.713058,-5.497473
1570726718,-0.9929962,13.095093,6.8252716,-1.0382996,-1.2869263,0.052001953,-1.167795,4.5992985,3.5222764
1570726718,-3.3692474,7.7308807,0.38905334,0.8504181,-0.10447693,-0.1557312,-5.0951757,-0.9218502,-1.7247471
1570726718,-3.3692474,7.7308807,0.38905334,0.8504181,-0.10447693,-0.1557312,-5.0951757,-0.9218502,-1.7247471
1570726718,-0.5117645,5.6461334,0.9977875,0.9111481,-0.12684631,-0.35598755,-1.2890526,-3.223277,-0.28639662
1570726718,6.2793884,7.000046,10.916962,1.852829,-0.082107544,-0.28355408,3.0401955,-2.6071253,6.4951525
1570726718,6.2793884,7.000046,10.916962,1.852829,-0.082107544,-0.28355408,3.0401955,-2.6071253,6.4951525
1570726718,2.1912994,3.3830109,18.999191,4.078171,2.9027557,-0.72351074,3.3658028,-4.252096,15.766237
1570726718,1.3820496,5.506668,-7.1305237,-2.4945068,2.9826508,-0.1642456,1.8293803,-2.561369,-7.960058
1570726718,-0.957077,5.2995605,-2.2397766,-2.4092865,-0.23977661,0.1851654,-1.0074625,-4.1093245,-4.581811
1570726718,-0.68533325,6.6439056,1.4562683,-1.2737122,-1.2762756,0.69862366,-1.718028,-2.6654902,0.2017752
1570726718,-0.2639618,7.802109,3.83432,-0.4630432,0.31097412,0.27677917,-1.0701058,-1.249012,2.4538465
1570726718,-0.3256073,7.8775177,3.8091736,-0.47583008,0.49952698,0.2629242,-1.0701058,-1.249012,2.4538465
1570726718,-1.3527222,14.458588,-1.3389587,-0.5227051,0.77116394,0.04560852,-2.1027174,5.542783,-2.691856
1570726718,-1.3527222,14.458588,-1.3389587,-0.5227051,0.77116394,0.04560852,-2.1027174,5.542783,-2.691856
1570726718,-0.4632721,13.990524,2.9873657,-1.7743835,-1.6789398,-0.30485535,-1.5103889,5.039733,-0.44270468
1570726718,4.897934,15.807724,9.238022,-2.1152802,1.5104523,-0.55093384,4.025677,7.7089834,6.6318636
1570726718,4.897934,15.807724,9.238022,-2.1152802,1.5104523,-0.55093384,4.025677,7.7089834,6.6318636
1570726718,5.937027,9.449921,0.11013794,-1.3237762,0.8851471,0.017913818,5.801977,1.4004288,-3.5832825
1570726718,2.794632,7.6668396,0.6643982,-1.0265808,-0.15881348,0.048812866,2.869461,-0.34436417,-3.8618505
1570726718,0.49679565,6.806717,3.8564606,0.084503174,-0.58384705,-0.22709656,0.46201497,-1.1617527,-0.6381874
1570726718,1.1121063,5.5204315,1.288681,1.0325775,0.28860474,-0.5807648,0.761432,-2.4261637,-2.33528
1570726718,1.1174927,5.351639,1.1875305,1.0602722,0.31097412,-0.5669098,0.8549789,-2.765152,-2.4515622
1570726718,1.546051,3.4177246,0.7080841,1.2616119,0.31204224,-0.33894348,1.650914,-4.5780544,-2.7430892
1570726718,1.3114166,2.6479797,1.359314,1.4448395,0.33866882,0.24906921,1.3073534,-5.811468,-1.5376964
1570726718,0.45610046,1.9255371,1.577179,1.5620117,0.4494629,0.48875427,0.50724334,-6.6451206,-1.0326815
1570726718,2.510315,9.639648,-1.9901733,0.8376312,-1.839798,0.24906921,2.452982,1.374979,-5.288817
1570726718,2.510315,9.639648,-1.9901733,0.8376312,-1.839798,0.24906921,2.452982,1.374979,-5.288817
1570726718,-1.7681122,9.296692,4.4442444,1.9412537,-4.673401,-0.3218994,-1.9004897,0.32906532,2.3839102
1570726718,2.1086884,7.2364807,8.093597,-0.17436218,2.9134064,-0.7107239,1.3007591,-1.6080503,7.966585
1570726718,2.1086884,7.2364807,8.093597,-0.17436218,2.9134064,-0.7107239,1.3007591,-1.6080503,7.966585
1570726718,3.430893,10.214859,2.616867,0.3529358,1.4167175,-1.0537415,3.1929011,0.551836,2.4192371
1570726718,8.146271,15.914856,-2.331955,-0.36291504,-0.3921051,-0.42097473,8.22841,7.82154,-3.1126785
1570726719,1.194107,4.6776733,-0.0688324,-0.81777954,1.629776,-0.014038086,2.0095332,-4.032609,-0.8908409
1570726719,-1.4688416,13.544601,-4.3454742,-1.2843628,2.1197968,1.02565,-0.71963716,-0.46282005,-3.8856416
1570726719,-3.1435852,19.612106,3.9659882,-1.0212555,0.20124817,2.072815,-2.0331132,10.629955,0.9082663
1570726719,-2.020111,11.22821,2.2391815,-0.5567932,-5.501114,0.47917175,-2.1078289,2.4061403,-1.9196831
1570726719,0.7697296,9.443329,3.633194,0.28263855,1.3581238,-0.76078796,-0.106518805,0.9713383,2.7363372
1570726719,0.77871704,9.159622,2.9304962,0.3486786,1.5573273,-0.8428192,-0.106518805,0.9713383,2.7363372
1570726719,-0.48182678,7.3029175,0.9624634,0.51911926,2.5980988,-0.9259033,-0.8704109,-1.7113152,-0.80412495
1570726719,1.138443,6.807907,1.711853,1.0815887,2.8239288,-0.33042908,0.58041775,-2.0799494,0.24352777
1570726719,1.7417755,6.7696075,4.1371765,3.6861572,0.5368042,-0.21430969,1.5593181,-2.8600435,4.0913143
1570726719,1.7705078,6.9395905,3.644577,3.7905579,0.22468567,-0.18875122,1.5593181,-2.8600435,4.0913143
1570726719,0.66378784,7.6033936,1.0851746,-0.25639343,-3.415329,-0.009780884,0.7274008,-0.79203224,0.45523998
1570726719,-1.6094971,4.4609985,8.504211,-1.9437714,0.930954,1.1321869,-1.8563722,-5.582614,10.19124
1570726719,1.5939331,8.863342,3.2878418,-0.7847595,2.0377655,0.97132874,1.495872,-0.58874893,1.8171923
1570726719,-1.9369049,4.5118713,-1.3772583,-0.82203674,0.7317505,0.04560852,-2.3771596,-3.567235,-1.914943
1570726719,-1.0175323,4.0264435,-0.802063,-1.079834,-0.08531189,0.07862854,-1.7797303,-5.027812,-2.0888348
1570726719,-0.07601929,9.256577,3.9115295,-0.20631409,-0.92367554,0.3566742,-0.7709908,0.10354519,1.9504156
1570726719,-1.7752991,10.007172,1.8638916,-0.19993591,0.83187866,0.11378479,-1.8656926,0.89990044,2.0499458
1570726719,-1.9458923,10.906189,0.46447754,-0.74853516,1.1077881,0.11378479,-2.634791,1.3207073,0.08192527
1570726719,-1.8465271,13.515274,2.2385712,-1.7775879,-0.40382385,-0.25904846,-2.2393665,4.5963125,1.127129
1570726719,-0.08319092,16.193176,2.2158356,-2.482788,-2.956192,-0.33894348,-1.2595438,6.776038,-0.19106936
1570726719,3.775055,18.967468,6.5631104,-3.3179626,-2.190277,-0.40286255,2.0056481,10.252785,2.6281974
1570726719,5.373184,10.687714,2.5911255,-1.2108612,1.8097992,-0.13015747,4.1834517,2.5105448,0.15185022
1570726719,3.743927,9.388855,0.70988464,-1.1235199,-0.9215393,0.38648987,3.1892996,1.044857,-3.5206752
1570726719,3.1795044,10.166977,2.1140747,-0.777298,-1.2592316,0.21818542,2.9921587,1.6238966,-3.00697
1570726719,-1.0899658,4.8219147,1.6903076,0.76626587,0.59858704,-0.7927551,-1.5145831,-2.99341,-2.027698
1570726719,-1.0899658,4.8219147,1.6903076,0.76626587,0.59858704,-0.7927551,-1.5145831,-2.99341,-2.027698
1570726719,-0.17897034,2.612671,-0.34536743,1.19664,0.565567,-0.52323914,-0.86457807,-5.4678965,-4.0891113
1570726719,2.023697,1.7304077,1.0229187,1.0357819,0.7743683,-0.009780884,1.8345873,-6.550296,-2.8993657
1570726719,0.64404297,1.161789,0.5566559,1.0198059,0.8713074,0.41952515,0.77238053,-7.4049196,-2.3684244
1570726719,0.64404297,1.161789,0.5566559,1.0198059,0.8713074,0.41952515,0.77238053,-7.4049196,-2.3684244
1570726719,-0.12748718,2.577362,0.6572113,1.118866,0.52401733,1.2099457,-0.27164745,-6.2564793,-1.84338
1570726719,3.1016846,14.970947,-0.46087646,0.6150055,-4.9375916,-0.096069336,4.632799,8.66503,-5.5294123
1570726719,4.4143066,9.331406,19.612701,1.1135406,-5.101639,-0.13973999,3.0866957,1.462493,18.269018
1570726719,4.395752,8.850174,19.612701,0.93244934,-4.232376,-0.14506531,3.0866957,1.462493,18.269018
1570726720,0.7260437,14.0312195,-0.15621948,0.25280762,2.5416412,-0.582901,0.61273146,5.2534227,-0.9477761
1570726720,0.7260437,14.0312195,-0.15621948,0.25280762,2.5416412,-0.582901,0.61273146,5.2534227,-0.9477761
1570726720,2.003952,8.617935,-0.29748535,-1.2172546,1.1365509,-0.4859619,1.2615429,-0.7921667,-2.3192468
1570726720,2.003952,8.617935,-0.29748535,-1.2172546,1.1365509,-0.4859619,1.2615429,-0.7921667,-2.3192468
1570726720,2.2804718,15.17984,0.52253723,-1.079834,1.3911438,0.6165924,0.9194554,5.0362873,-1.440221
1570726720,1.0091553,13.406937,0.3471527,-0.4033966,-1.7258148,-0.1131134,0.5155902,3.9969616,-1.8051534
1570726720,0.683548,13.62001,0.3651123,-0.36291504,-1.8344727,-0.1408081,-0.074622154,4.4406395,-1.7676377
1570726720,-2.0691833,8.986038,0.7290344,1.0751953,-0.35162354,-0.7373657,-3.2919548,0.08726692,-0.9149376
1570726720,-2.1398163,8.890274,0.814621,1.089035,-0.35375977,-0.73309326,-3.1085153,0.024938583,-0.9554211
1570726720,-0.31843567,5.786789,1.9273376,1.5002289,-1.0845184,-0.840683,-1.1093283,-3.0986214,0.6276891
1570726720,-0.24839783,5.657501,2.0326843,1.5215454,-1.0909119,-0.838562,-1.1093283,-3.0986214,0.6276891
1570726720,4.0216675,6.673233,11.640015,2.584671,1.5285645,-0.80233765,3.1963768,-2.3399382,10.652807
1570726720,3.9995117,5.993881,10.475235,2.327942,2.9283295,-0.7139282,3.6582627,-2.6946802,11.312233
1570726720,0.01914978,5.9639587,-4.9960938,-1.4324341,3.4748077,0.4866333,-0.050123483,-3.5964508,-2.4426613
1570726720,0.33998108,7.7817535,-5.43544,-1.5325775,0.51657104,0.73483276,-0.19918272,-1.9114275,-6.2573185
1570726720,-0.05267334,7.0018463,2.5097198,-1.0553436,-2.570572,1.166275,-1.1942453,-1.9930887,1.2193781
1570726720,0.5165558,6.766617,3.0107117,-0.74320984,-2.746338,1.0799866,-0.61710155,-2.1272717,1.9906571
1570726720,-4.4615936,6.1249695,5.0463715,-0.35012817,-1.8046417,0.86053467,-5.122242,-2.8363962,4.2863913
1570726720,0.7517853,11.969818,3.0268707,-0.6622467,-0.9439087,0.5984802,-1.5731796,2.4060936,1.8145652
1570726720,0.7517853,11.969818,3.0268707,-0.6622467,-0.9439087,0.5984802,-1.5731796,2.4060936,1.8145652
1570726720,4.079727,15.906479,3.5901031,-1.5964966,1.3251038,-0.5679779,2.2768154,7.4577274,0.97688234
1570726720,4.079727,15.906479,3.5901031,-1.5964966,1.3251038,-0.5679779,2.2768154,7.4577274,0.97688234
1570726720,4.9266663,13.327927,4.0312347,-1.4857025,2.6460266,-0.3080597,3.8045692,4.9779654,1.4957991
1570726720,4.9266663,13.327927,4.0312347,-1.4857025,2.6460266,-0.3080597,3.8045692,4.9779654,1.4957991
1570726720,2.276291,8.3467865,0.28730774,-0.5759735,1.2910156,0.013656616,1.9292796,0.46681213,-3.2738252
1570726720,2.276291,8.3467865,0.28730774,-0.5759735,1.2910156,0.013656616,1.5562081,-0.118873596,-3.1355848
1570726720,1.6436157,7.2640076,2.6078796,0.56385803,0.24598694,-0.43588257,1.2842499,-1.074275,-0.7631552
1570726720,1.5670013,7.1203613,2.6419983,0.60861206,0.26409912,-0.47103882,1.1041192,-1.2543268,-0.71203446
1570726720,1.059433,3.0735626,0.19392395,1.1678772,0.6071167,-0.36665344,0.4899942,-5.800824,-3.206135
1570726720,1.059433,3.0735626,0.19392395,1.1678772,0.6071167,-0.36665344,0.4899942,-5.800824,-3.206135
1570726720,1.5903473,3.9246979,-1.7609406,1.3425751,-0.06826782,0.40992737,1.3159708,-5.2928896,-2.7628405
1570726720,1.5502472,4.2042236,-2.1577759,1.3297882,-0.22273254,0.40460205,1.3461353,-4.98804,-3.5906782
1570726720,1.553833,7.323868,-1.3317719,1.3926392,-3.6464844,0.29382324,0.7499361,-1.8510084,-3.584916
1570726721,0.5482788,9.830597,10.226837,0.6927643,0.802063,-1.1815796,0.33413574,1.0305634,9.776312
1570726721,0.41958618,9.756973,9.837769,0.68530273,1.1109924,-1.2177887,0.33413574,1.0305634,9.776312
1570726721,0.69911194,5.430649,2.4648285,-0.1328125,2.7994232,-1.1751862,1.1669446,-3.5243187,1.5109208
1570726721,0.6464386,5.4976807,2.5360565,-0.17222595,2.7813263,-1.1464233,0.9960638,-3.5596476,1.4645184
1570726721,1.2054749,14.990692,2.7299957,-0.39060974,1.4156494,-0.44760132,1.4517589,5.4438105,1.85685
1570726721,0.36332703,9.508575,-5.862198,-1.0872955,-0.074661255,-0.23988342,2.025476,1.9824791,-5.6655035
1570726721,0.36332703,9.508575,-5.862198,-1.0872955,-0.074661255,-0.23988342,2.025476,1.9824791,-5.6655035
1570726721,-0.8128357,17.348984,5.009262,-0.23295593,1.742691,0.7923584,-0.5311043,8.972975,5.3965883
1570726721,-0.57640076,16.754028,3.0101166,-0.18927002,1.7821045,0.783844,-0.5311043,8.972975,5.3965883
1570726721,-2.2116394,13.709793,1.8956146,-0.86039734,0.9863434,2.0941162,-2.5041926,4.904646,-0.25975108
1570726721,-2.2116394,13.709793,1.8956146,-0.86039734,0.9863434,2.0941162,-2.5041926,4.904646,-0.25975108
1570726721,-0.5991516,12.231979,0.1478424,1.0293884,0.38980103,0.8392334,-0.7565578,4.9284763,-2.6203904
1570726721,-0.5991516,12.231979,0.1478424,1.0293884,0.38980103,0.8392334,-0.7565578,4.9284763,-2.6203904
1570726721,0.8661041,7.217926,2.475006,1.4863892,0.7967377,-1.1730499,1.1705154,-1.5298624,1.150457
1570726721,1.0528564,7.1915894,2.372055,1.4246063,0.7562561,-1.1602631,1.1705154,-1.5298624,1.150457
1570726721,-1.0229187,6.309326,0.3040619,0.044021606,1.5434875,-1.2337646,-0.62008417,-3.229967,-0.83726954
1570726721,-1.0229187,6.309326,0.3040619,0.044021606,1.5434875,-1.2337646,-0.62008417,-3.229967,-0.83726954
1570726721,-2.9747925,7.56987,2.8371277,0.009933472,0.23747253,-2.3267365,-2.6080642,-2.004243,0.6473025
1570726721,-3.6858673,5.348053,6.238098,1.0666656,2.4468231,-2.654831,-1.37851,-3.2872438,6.8774567
1570726721,-3.6858673,5.348053,6.238098,1.0666656,2.4468231,-2.654831,-1.37851,-3.2872438,6.8774567
1570726721,-6.4619446,7.0545197,2.2110443,0.6480255,0.79141235,0.37583923,-3.7380395,-1.7899494,2.1053243
1570726721,-6.2943573,7.182602,1.9865875,0.7236481,0.8031311,0.40141296,-3.7380395,-1.7899494,2.1053243
1570726721,-3.1513672,11.450272,0.051467896,0.6416321,3.2138214,0.594223,-0.83183265,2.6077013,1.8373312
1570726721,-3.1513672,11.450272,0.051467896,0.6416321,3.2138214,0.594223,-0.83183265,2.6077013,1.8373312
1570726721,-0.24121094,9.322418,-1.3928223,1.5471039,3.017807,0.47598267,1.6037843,0.87071705,-0.88863754
1570726721,0.038909912,8.7556,0.09815979,1.7718811,3.0572205,0.52497864,2.1081257,0.36710548,0.1923579
1570726721,-0.61590576,11.234192,-3.3554688,1.8752136,1.362381,2.5319366,0.0992738,1.830637,-1.1539404
1570726721,-0.45010376,11.429321,-4.462799,0.7470856,2.4414978,3.0475311,-0.5710694,2.7264242,-1.2202551
1570726721,1.312027,10.847534,-4.356247,0.3028717,1.2792969,1.6786652,0.5405411,2.2558498,-1.2955964
1570726721,1.312027,10.847534,-4.356247,0.3028717,1.2792969,1.6786652,0.5405411,2.2558498,-1.2955964
1570726721,-0.5398865,8.853165,-2.7359772,1.5353851,0.023345947,-0.5860901,-1.5265436,1.0083351,0.57047415
1570726721,-0.7122803,8.533539,-2.7299957,1.5960999,0.06703186,-0.6287079,-1.5265436,1.0083351,0.57047415
1570726721,2.0141296,3.8211517,-6.5092316,1.8901215,0.532547,-0.8470764,0.9871034,-4.2337255,-2.0017972
1570726721,1.8183899,3.609253,-6.585846,1.8826599,0.46650696,-0.840683,1.1079893,-4.2337255,-2.0017972
1570726722,3.3973694,6.0028687,-1.4676514,2.7455292,-0.22485352,1.3207397,1.3022041,-1.5795412,3.4835482
1570726722,3.3973694,6.0028687,-1.4676514,2.7455292,-0.22485352,1.3207397,1.3022041,-1.5795412,3.4835482
1570726722,3.406952,2.9622192,-4.8763885,3.7873535,2.3083496,0.081832886,1.8110694,-3.305077,2.4231672
1570726722,3.406952,2.9622192,-4.8763885,3.7873535,2.3083496,0.081832886,1.8110694,-3.305077,2.4231672
1570726722,6.1447144,2.067398,-3.9761658,1.6515045,3.5195465,1.0288544,2.054503,-3.8605313,5.900853
1570726722,6.1447144,2.067398,-3.9761658,1.6515045,3.5195465,1.0288544,2.054503,-3.8605313,5.900853
1570726722,3.6415863,5.185837,1.3485413,-0.4822235,-0.9268646,1.1396332,-0.021139622,-0.29808426,6.979923
1570726722,3.6415863,5.185837,1.3485413,-0.4822235,-0.9268646,1.1396332,-0.021139622,-0.29808426,6.979923
1570726722,6.179428,4.602249,-2.9700012,-0.97650146,1.0406799,0.37797546,2.6104236,-0.041570663,4.1289434
1570726722,6.179428,4.602249,-2.9700012,-0.97650146,1.0406799,0.37797546,2.6104236,-0.041570663,4.1289434
1570726722,5.89093,4.478348,-6.9856873,-1.2896881,2.7216644,0.15959167,1.9716401,0.0808177,0.3586836
1570726722,7.4657135,5.0224304,-7.724289,-1.8787842,2.7557526,0.04135132,2.4027386,-0.25852442,-2.4006438
1570726722,7.8805084,5.8550262,-2.624649,-1.6316376,4.9022675,-0.16743469,1.9971886,0.18010902,2.7393541
1570726722,9.745605,6.632538,-2.858673,-2.213272,5.626648,0.09461975,2.9033751,0.89173126,-1.1334202
1570726722,9.745605,6.632538,-2.858673,-2.213272,5.626648,0.09461975,2.9033751,0.89173126,-1.1334202
1570726722,9.418793,6.7696075,1.3928223,-2.6010284,4.642334,-0.6830292,3.0359235,0.26380157,0.51562446
1570726722,9.418793,6.7696075,1.3928223,-2.6010284,4.642334,-0.6830292,3.0359235,0.26380157,0.51562446
1570726722,7.1448975,6.281784,3.3159637,-2.5136871,4.0947876,-0.39328003,0.5487089,-0.13676643,0.5456822
1570726722,7.423828,5.7508698,3.3506927,-2.9035645,4.404785,-0.35279846,2.1811805,-0.08920765,-0.8468895
1570726722,7.423828,5.7508698,3.5015259,-2.8822632,4.2875977,-0.3634491,2.1811805,-0.08920765,-0.8468895
1570726722,6.4936676,4.242523,3.8558655,-1.157608,2.5948944,-0.74694824,2.4548388,-1.0596962,-0.70027256
1570726722,5.98909,4.0731354,3.7774506,-1.1970215,2.5341797,-0.79382324,2.4548388,-1.0596962,-0.70027256
1570726722,3.644577,3.292633,6.2159424,-1.7658691,2.763214,-0.69688416,0.14267659,-1.875308,-0.82984257
1570726722,3.5559845,3.4638062,6.147705,-1.7818451,2.7525635,-0.7086029,0.14267659,-1.875308,-0.82984257
1570726722,3.6098633,2.913742,8.39946,-1.5474854,2.093155,-0.6564026,1.1844053,-1.4660673,0.68281174
1570726722,2.9089508,2.9466705,8.189972,-1.173584,1.3570557,-0.6872864,1.2460363,-1.0797949,0.25182915
1570726722,2.913742,2.917328,8.190567,-1.1565399,1.3048706,-0.6894226,1.2094303,-1.1283135,0.21562195
1570726722,1.4640503,2.8634644,10.049057,-0.81459045,0.69340515,-0.60739136,0.6949837,-0.7237923,1.5479269
1570726722,1.4640503,2.8634644,10.049057,-0.81459045,0.69340515,-0.60739136,0.6949837,-0.7237923,1.5479269
1570726722,1.3180084,3.2758636,10.184937,-0.6771698,0.6305542,-0.34960938,0.37095034,-0.2772119,1.7871475
1570726722,2.0859528,3.727768,11.778275,-0.4502716,0.9000702,-0.19087219,1.2677343,0.27648115,3.211753
1570726722,0.809845,3.5643616,9.819824,-0.32563782,0.7605133,-0.23881531,0.8291005,0.4317019,1.7513838
1570726722,0.5117645,3.6086578,9.721054,-0.34480286,0.39831543,-0.14720154,0.1796489,0.3791654,1.1249704
1570726723,1.0211334,2.640213,13.032837,-0.425766,-0.007537842,-0.035354614,0.49883386,-0.21752167,3.7695951
1570726723,0.4914093,1.719635,12.230179,-0.4268341,0.6720886,-0.093933105,0.6162374,-1.1677775,3.60806
1570726723,-1.2581482,1.4598694,9.889252,-0.10404968,0.04359436,0.12017822,-1.2500697,-1.2293048,1.3644638
1570726723,-1.2581482,1.4598694,9.889252,-0.10404968,0.04359436,0.12017822,-1.2500697,-1.2293048,1.3644638
1570726723,-0.1663971,1.3820496,9.069229,0.43922424,0.040390015,0.18621826,0.021312699,-1.0836253,1.1424971
1570726723,-0.1663971,1.3820496,9.069229,0.43922424,0.040390015,0.18621826,0.021312699,-1.0836253,1.1424971
1570726723,-1.3886414,1.1486206,9.749191,0.24641418,-0.24510193,0.18621826,-1.3940461,-1.681813,0.8522377
1570726723,-1.0217285,1.0468597,10.401611,0.27304077,-0.3143463,0.32896423,-1.3647734,-1.8858662,1.3598404
1570726723,-0.32859802,1.5592194,9.896439,0.18995667,0.049987793,0.19367981,-0.61699724,-1.5043819,1.1908245
1570726723,-0.5129547,1.3928223,10.00238,-0.2073822,0.15118408,0.0072631836,-0.66449183,-1.5400519,0.83922386
1570726723,-0.5195465,1.3928223,10.00238,-0.2073822,0.15118408,0.0072631836,-0.66449183,-1.5400519,0.83922386
1570726723,-0.34057617,1.2288208,11.075577,-0.21803284,0.23747253,-0.022567749,-0.5400522,-1.7428589,2.2513866
1570726723,-0.58299255,0.93852234,11.215637,-0.21270752,0.28753662,-0.103530884,-0.58042127,-1.8560841,2.2174625
1570726723,-0.58299255,0.93852234,11.215637,-0.21270752,0.28753662,-0.103530884,-0.58042127,-1.8560841,2.2174625
1570726723,0.22146606,1.7782898,10.749374,0.10366821,0.075546265,-0.06411743,-0.08466163,-2.193807,1.6820745
1570726723,0.22146606,1.7782898,10.749374,0.10366821,0.075546265,-0.06411743,-0.08466163,-2.193807,1.6820745
1570726723,-0.2232666,1.4478912,10.091553,0.16333008,-0.025650024,-0.044937134,-0.15782182,-1.3336463,1.1646214
1570726723,-0.2232666,1.4478912,10.091553,0.16333008,-0.025650024,-0.044937134,-0.15782182,-1.3336463,1.1646214
1570726723,-0.40701294,1.8429413,10.169968,-0.02947998,0.019088745,-0.0811615,-0.15091747,-1.2894888,1.2213621
1570726723,-0.6907196,1.7573395,10.150223,-0.024154663,0.019088745,-0.0811615,-0.2064055,-1.0337486,1.2388992
1570726723,-1.0731964,1.42276,10.47702,-0.09233093,0.11921692,-0.103530884,0.31236637,-0.5409887,1.5853081
1570726723,-0.20051575,2.2583313,10.468048,-0.18714905,0.3802185,-0.107788086,0.41221747,-1.1575553,1.5061283
1570726723,-0.8265991,1.6537933,10.275314,-0.1754303,0.17781067,-0.1557312,-0.2928013,-0.9169624,1.3069334
1570726723,-0.8265991,1.6537933,10.275314,-0.1754303,0.17781067,-0.1557312,-0.2928013,-0.9169624,1.3069334
1570726723,-0.49320984,1.4790192,8.998611,-0.24147034,-0.38357544,-0.042800903,-0.15771419,-1.0763109,0.028028488
1570726723,-0.3609314,1.7920532,11.40657,-0.47050476,0.38127136,0.060531616,0.14971918,-0.44143128,2.0984907
1570726723,-0.36271667,1.7663269,11.407776,-0.44387817,0.4025879,0.07650757,0.006569475,-0.48152232,2.2182417
1570726723,-0.6254883,1.3784637,9.4379425,-0.112579346,-0.40382385,0.22351074,-0.18215838,-0.6765816,-0.055940628
1570726723,-0.6254883,1.3784637,9.4379425,-0.112579346,-0.40382385,0.22351074,-0.18215838,-0.6765816,-0.055940628
1570726723,0.8487396,1.9865875,10.196304,0.6980896,-0.18330383,0.35986328,1.0218093,-0.28063393,1.2412329
1570726723,0.75357056,1.8686676,9.503784,0.67251587,-0.26533508,0.32470703,1.0218093,-0.28063393,1.2412329
1570726723,0.73861694,2.17453,9.441528,0.46798706,-0.5401764,0.21818542,0.80430233,-0.27191854,0.3475132
1570726723,1.2342072,2.1056976,9.515747,-0.26916504,0.077682495,0.1063385,1.0329936,-0.4405291,0.45459843
1570726724,0.13467407,1.6346436,10.425552,-0.78157043,0.42495728,-0.028961182,0.6254862,-0.07597566,0.24354744
1570726724,0.7224579,1.8591003,10.001175,0.14414978,0.54745483,0.15000916,0.8081019,-0.41067004,1.3956585
1570726724,0.7224579,1.8591003,10.001175,0.14414978,0.54745483,0.15000916,0.8081019,-0.41067004,1.3956585
1570726724,0.36271667,1.8375549,10.059235,-0.18075562,0.060638428,0.08395386,0.5296529,-0.34292483,0.52493095
1570726724,0.5817871,1.5550385,11.370071,-0.3938141,0.45051575,0.06585693,0.8134625,-0.5521209,1.5950937
1570726724,0.56204224,1.5496521,11.591522,-0.38635254,0.47395325,0.0637207,0.7955741,-0.5524981,1.9738073
1570726724,-0.075424194,1.3802643,11.497559,-0.089141846,0.5623779,0.1063385,0.37377024,-0.6584275,2.3596296
1570726724,-0.5482788,1.3605042,10.941498,0.32418823,0.13520813,0.19155884,-0.048000127,-0.6862662,1.7835922
1570726724,-0.6799469,1.467041,10.284897,0.3412323,0.110702515,0.27038574,-0.19075686,-0.7177305,1.0518475
1570726724,-0.13887024,1.6274567,9.6241,0.2559967,-0.20462036,0.3140564,0.17677248,-0.61522603,0.35676765
1570726724,-0.30645752,1.2719269,9.924561,0.21339417,-0.32286072,0.3193817,-0.032141924,-0.5492811,0.49879932
1570726724,-0.2346344,1.3539276,11.438293,0.15267944,0.22894287,0.36732483,0.11092153,-0.5568032,2.089366
1570726724,0.89064026,2.173935,10.828369,0.11431885,0.7178955,0.3108673,1.5008776,0.11868572,1.2554522
1570726724,0.04069519,2.178131,10.01973,0.3444214,0.4398651,0.34495544,0.66189504,-0.39792013,1.1220741
1570726724,-1.7914581,1.012146,8.369537,0.08555603,0.39086914,0.8211212,-0.25277907,-1.9745994,-0.7494345
1570726724,-1.7914581,1.012146,8.369537,0.08555603,0.39086914,0.8211212,-0.25277907,-1.9745994,-0.7494345
1570726724,0.7344208,1.704071,12.276871,0.08555603,0.046783447,0.9830475,-0.5043563,-0.49755526,0.9729042
1570726724,1.1492157,2.506134,10.639832,0.41046143,-0.16625977,0.816864,1.5796957,-0.95015,1.133029
1570726724,1.8261719,2.9227142,9.094376,-0.18501282,0.42388916,0.54841614,1.9878527,-0.101621866,-0.43485355
1570726724,1.8261719,2.9227142,9.094376,-0.18501282,0.42388916,0.54841614,1.9878527,-0.101621866,-0.43485355
1570726724,-1.7699127,1.7723083,8.649658,0.07597351,0.29179382,0.1691742,-0.7594384,-0.7911341,0.32135868
1570726724,-1.7699127,1.7723083,8.649658,0.07597351,0.29179382,0.1691742,-0.7594384,-0.7911341,0.32135868
1570726724,0.031723022,2.5983124,10.25795,-0.18501282,0.058502197,0.15000916,0.7782745,-0.16179919,0.8089304
1570726724,0.031723022,2.5983124,10.25795,-0.18501282,0.058502197,0.15000916,0.7782745,-0.16179919,0.8089304
1570726724,0.21188354,2.6587677,10.236404,-0.03907776,-0.15667725,0.082901,0.84317815,-0.17859817,1.0856209
1570726724,-0.09635925,2.5198975,10.143631,0.26452637,-0.55615234,0.114852905,0.17936957,-0.3468573,1.1135159
1570726724,-0.09635925,2.5198975,10.143631,0.26452637,-0.55615234,0.114852905,0.17936957,-0.3468573,1.1135159
1570726724,0.45968628,2.7371674,9.560043,-0.059310913,0.0393219,0.005126953,0.99355924,-0.05071497,0.37739658
1570726724,-0.6787567,2.3582916,10.51474,-0.13708496,0.2779541,-0.006591797,0.04579255,-0.3567834,1.1020565
1570726724,-0.6787567,2.3582916,10.51474,-0.13708496,0.2779541,-0.006591797,0.04579255,-0.3567834,1.1020565
1570726724,-0.52253723,2.3373413,9.858124,-0.19140625,0.23640442,0.004058838,0.1298716,-0.41054726,0.7369604
1570726724,-0.786499,2.087143,9.830597,-0.33628845,0.45265198,0.040283203,-0.33839095,-0.58473945,0.49329948
1570726724,-0.29029846,2.5599976,11.07019,-0.23828125,0.42388916,-0.06304932,0.76386064,0.08228111,1.8025627
1570726725,-0.106536865,2.7096405,10.032898,-0.23934937,0.3322754,-0.27716064,0.81788504,0.18798041,0.6607666
1570726725,-0.19812012,2.6629486,10.146027,-0.27449036,0.37382507,-0.2888794,0.81788504,0.18798041,0.6607666
1570726725,-0.23103333,2.1236572,10.590744,-0.035873413,-0.10661316,-0.18875122,0.6548465,-0.33390975,1.396985
1570726725,-0.18675232,2.206253,10.560822,-0.032684326,-0.10021973,-0.20365906,0.6548465,-0.33390975,1.396985
1570726725,0.03591919,2.1715393,10.053253,-0.2073822,-0.42086792,-0.06517029,0.6519844,-0.4577589,0.6218672
1570726725,0.03591919,2.1715393,10.053253,-0.2073822,-0.42086792,-0.06517029,0.6519844,-0.4577589,0.6218672
1570726725,-0.69311523,3.4482422,10.377075,-0.012435913,0.24812317,-0.69581604,0.17752975,1.55497,0.8731766
1570726725,0.06524658,2.047638,15.611984,-0.25639343,-3.0850983,0.47384644,1.6810021,-1.1311808,2.712326
1570726725,0.06524658,2.047638,15.611984,-0.25639343,-3.0850983,0.47384644,1.6810021,-1.1311808,2.712326
1570726725,-0.94810486,3.1214447,10.37767,-1.0084686,-0.02671814,0.7433624,-0.7258096,0.934448,0.8946495
1570726725,0.73262024,2.8916016,11.534073,-0.8316345,-0.10661316,0.1659851,1.117731,0.511498,2.4562273
1570726725,0.73262024,2.8916016,11.534073,-0.8316345,-0.10661316,0.1659851,1.117731,0.511498,2.4562273
1570726725,0.79367065,2.9119415,11.213837,-0.8635864,0.02015686,0.11378479,1.2088727,0.67218757,1.9395723
1570726725,0.79367065,2.9119415,11.213837,-0.8635864,0.02015686,0.11378479,1.2088727,0.67218757,1.9395723
1570726725,0.79367065,2.9119415,11.213837,-0.8635864,0.02015686,0.11378479,1.2088727,0.67218757,1.9395723
1570726725,-0.8840637,1.6412201,10.102936,0.23683167,0.8595886,-0.88648987,0.7001599,0.1942035,0.6486721
1570726725,-0.8840637,1.6412201,10.102936,0.23683167,0.8595886,-0.88648987,0.7001599,0.1942035,0.6486721
1570726725,-1.7184448,0.8882446,10.549454,0.42964172,0.12135315,-0.6425476,-0.28728724,-0.674016,1.0078278
1570726725,-1.5873566,0.9439087,10.330383,0.43922424,0.0861969,-0.57862854,-0.0878278,-0.6687541,0.8927679
1570726725,-1.5873566,0.9439087,10.330383,0.43922424,0.0861969,-0.57862854,-0.0878278,-0.6687541,0.8927679
1570726725,-1.5873566,0.9439087,10.330383,0.43922424,0.0861969,-0.57862854,-0.0878278,-0.6687541,0.8927679
1570726725,-1.5873566,0.9439087,10.330383,0.43922424,0.0861969,-0.57862854,-0.0878278,-0.6687541,0.8927679
1570726725,-1.2689209,1.193512,11.057022,0.37957764,-0.13644409,0.10845947,0.00543499,-0.74420536,1.5744476
1570726725,-1.2689209,1.193512,11.057022,0.37957764,-0.13644409,0.10845947,0.00543499,-0.74420536,1.5744476
1570726725,-0.8343811,1.5795746,10.6129,0.49142456,-0.13005066,0.058395386,0.40642786,-0.49413133,1.2987995
1570726725,-0.8343811,1.5795746,10.6129,0.49142456,-0.13005066,0.058395386,0.40642786,-0.49413133,1.2987995
1570726725,-0.8343811,1.5795746,10.6129,0.49142456,-0.13005066,0.058395386,0.40642786,-0.49413133,1.2987995
1570726725,-0.8343811,1.5795746,10.6129,0.49142456,-0.13005066,0.058395386,0.40642786,-0.49413133,1.2987995
1570726725,0.11013794,3.0418396,9.179367,0.32418823,0.57514954,-0.15039062,1.4787897,0.73027086,0.7697716
1570726725,-0.5195465,0.9906006,11.610687,-0.32243347,0.3418579,0.054138184,0.6993458,-0.7357161,2.090888
1570726725,-0.5195465,0.9906006,11.610687,-0.32243347,0.3418579,0.054138184,0.6993458,-0.7357161,2.090888
1570726725,-0.5195465,0.9906006,11.610687,-0.32243347,0.3418579,0.054138184,0.6993458,-0.7357161,2.090888
1570726725,-0.5195465,0.9906006,11.610687,-0.32243347,0.3418579,0.054138184,0.6993458,-0.7357161,2.090888
1570726726,-0.5195465,0.9906006,11.610687,-0.32243347,0.3418579,0.054138184,0.6993458,-0.7357161,2.090888
1570726726,-0.88764954,1.4999695,9.518143,0.013122559,-0.17692566,-0.056655884,0.16658258,-0.8033016,0.020227432
1570726726,-0.8918457,1.52211,9.5169525,-0.018829346,-0.14389038,-0.06411743,0.16658258,-0.8033016,0.020227432
1570726726,-0.8672943,1.4778137,9.23204,-0.26490784,-0.060806274,-0.0129852295,-0.037154198,-0.86195564,-0.31437397
1570726726,-0.8672943,1.4778137,9.23204,-0.26490784,-0.060806274,-0.0129852295,-0.037154198,-0.86195564,-0.31437397
1570726726,-0.8672943,1.4778137,9.23204,-0.26490784,-0.060806274,-0.0129852295,-0.037154198,-0.86195564,-0.31437397
1570726726,-0.8672943,1.4778137,9.23204,-0.26490784,-0.060806274,-0.0129852295,-0.037154198,-0.86195564,-0.31437397
1570726726,-0.8672943,1.4778137,9.23204,-0.26490784,-0.060806274,-0.0129852295,-0.037154198,-0.86195564,-0.31437397
1570726726,-0.4303589,1.7495575,10.268738,-0.034820557,0.122421265,8.69751E-4,0.36831558,-0.18223488,0.71634674
1570726726,-0.7188568,1.577774,10.973816,-0.2265625,0.30776978,-0.033218384,0.13687694,-0.24028039,1.3030319
1570726726,-0.5273285,1.8554993,10.152618,-0.2574463,0.28860474,0.008331299,0.45368528,-0.12302983,0.19480038
1570726726,-0.5273285,1.8554993,10.152618,-0.2574463,0.28860474,0.008331299,0.45368528,-0.12302983,0.19480038
1570726726,-0.5273285,1.8554993,10.152618,-0.2574463,0.28860474,0.008331299,0.45368528,-0.12302983,0.19480038
1570726726,-0.5273285,1.8554993,10.152618,-0.2574463,0.28860474,0.008331299,0.45368528,-0.12302983,0.19480038
1570726726,-0.7068939,1.6819305,10.551849,0.14628601,0.04145813,-0.05558777,0.37636888,-0.19935024,0.8172655
1570726726,-0.93014526,1.5520477,9.812042,0.074905396,-0.021392822,-0.033218384,0.0882355,-0.31132042,0.07106209
1570726726,-0.93014526,1.5520477,9.812042,0.074905396,-0.021392822,-0.033218384,0.0882355,-0.31132042,0.07106209
1570726726,-0.9038086,1.5819702,9.734222,0.07064819,-0.034179688,-0.02470398,0.115291,-0.3259338,0.07806969
1570726726,-0.9038086,1.5819702,9.734222,0.07064819,-0.034179688,-0.02470398,0.115291,-0.3259338,0.07806969
1570726726,-0.9038086,1.5819702,9.734222,0.07064819,-0.034179688,-0.02470398,0.115291,-0.3259338,0.07806969
1570726726,-0.9038086,1.5819702,9.734222,0.07064819,-0.034179688,-0.02470398,0.115291,-0.3259338,0.07806969
1570726726,-0.7182617,1.6807251,10.775696,0.2794342,-0.25575256,-0.037475586,0.12912971,-0.25022042,1.1100254
1570726726,-0.6578064,1.8704681,10.3160095,0.47331238,-0.2749176,-0.0811615,0.0860858,-0.18738437,0.60601807
1570726726,-0.6578064,1.8704681,10.3160095,0.47331238,-0.2749176,-0.0811615,0.0860858,-0.18738437,0.60601807
1570726726,-0.6578064,1.8704681,10.3160095,0.47331238,-0.2749176,-0.0811615,0.0860858,-0.18738437,0.60601807
1570726726,-0.6578064,1.8704681,10.3160095,0.47331238,-0.2749176,-0.0811615,0.0860858,-0.18738437,0.60601807
1570726726,-0.012573242,2.0009613,10.793655,0.44561768,-0.095962524,-0.030029297,0.0860858,-0.18738437,0.60601807
1570726726,-0.9038086,2.1158752,9.967667,0.33163452,0.1799469,-0.0662384,0.022644937,-0.105611324,-0.39755344
1570726726,-0.69192505,2.260727,10.767319,-0.28408813,0.07980347,0.036026,-0.056208074,-0.10536885,0.8602886
1570726726,-0.69192505,2.260727,10.767319,-0.28408813,0.07980347,0.036026,-0.056208074,-0.10536885,0.8602886
1570726726,-0.6458435,2.2625275,11.152191,-0.25958252,0.09791565,0.015777588,0.2105329,-0.1448834,1.4060831
1570726726,-0.6458435,2.2625275,11.152191,-0.25958252,0.09791565,0.015777588,0.2105329,-0.1448834,1.4060831
1570726726,-0.6458435,2.2625275,11.152191,-0.25958252,0.09791565,0.015777588,0.2105329,-0.1448834,1.4060831
1570726726,-0.6458435,2.2625275,11.152191,-0.25958252,0.09791565,0.015777588,0.2105329,-0.1448834,1.4060831
1570726727,-0.32321167,1.9824066,10.465057,-0.18182373,-0.009674072,0.05307007,0.57751465,-0.11555314,0.8540125
1570726727,0.099365234,1.9039917,11.203064,-0.1605072,0.11602783,0.105270386,0.5095517,-0.46003437,1.4299307
1570726727,-0.8355713,1.6196747,10.33577,0.041885376,-0.007537842,0.017913818,0.25716335,0.08637476,0.73416805
1570726727,-0.8355713,1.6196747,10.33577,0.041885376,-0.007537842,0.017913818,0.25716335,0.08637476,0.73416805
1570726727,-0.8355713,1.6196747,10.33577,0.041885376,-0.007537842,0.017913818,0.25716335,0.08637476,0.73416805
1570726727,-0.8355713,1.6196747,10.33577,0.041885376,-0.007537842,0.017913818,0.25716335,0.08637476,0.73416805
1570726727,-0.8355713,1.6196747,10.33577,0.041885376,-0.007537842,0.017913818,0.25716335,0.08637476,0.73416805
1570726727,-0.48362732,2.0781708,10.274719,-0.032684326,-0.0022125244,0.05307007,0.11123216,-0.14022589,0.5904064
1570726727,-0.48362732,2.0781708,10.274719,-0.032684326,-0.0022125244,0.05307007,0.11123216,-0.14022589,0.5904064
1570726727,-0.502182,1.9686279,10.268127,-0.03375244,0.003112793,0.04560852,0.2764483,-0.19537759,0.46134567
1570726727,-0.502182,1.9686279,10.268127,-0.03375244,0.003112793,0.04560852,0.2764483,-0.19537759,0.46134567
1570726727,-0.502182,1.9686279,10.268127,-0.03375244,0.003112793,0.04560852,0.2764483,-0.19537759,0.46134567
1570726727,-0.502182,1.9686279,10.268127,-0.03375244,0.003112793,0.04560852,0.2764483,-0.19537759,0.46134567
1570726727,-0.43275452,2.0865479,10.579971,0.112197876,0.14372253,-0.023635864,0.3473019,-0.095071554,0.8317938
1570726727,-0.44352722,2.0602112,10.57399,0.11431885,0.15757751,-0.02470398,0.2977363,-0.12882161,0.8244896
1570726727,-0.65242004,2.011734,10.204681,0.119644165,0.122421265,-0.009780884,0.07135463,-0.26646233,0.38233852
1570726727,-0.5321045,2.0979156,10.347733,0.12496948,0.122421265,-0.002319336,0.17998576,-0.2236886,0.5051241
1570726727,-0.5321045,2.0979156,10.347733,0.12496948,0.122421265,-0.002319336,0.17998576,-0.2236886,0.5051241
1570726727,-0.5321045,2.0979156,10.347733,0.12496948,0.122421265,-0.002319336,0.17998576,-0.2236886,0.5051241
1570726727,-0.5321045,2.0979156,10.347733,0.12496948,0.122421265,-0.002319336,0.17998576,-0.2236886,0.5051241
1570726727,-0.912796,2.0620117,10.125671,-0.12641907,0.03187561,0.012588501,0.0020391345,-0.17752719,0.2744608
1570726727,-0.912796,2.0620117,10.125671,-0.12641907,0.03187561,0.012588501,0.0020391345,-0.17752719,0.2744608
1570726727,-0.912796,2.0620117,10.125671,-0.12641907,0.03187561,0.012588501,0.0020391345,-0.17752719,0.2744608
1570726727,-0.8445587,2.0644073,10.405197,-0.13813782,0.047851562,0.011520386,0.14888364,-0.16833615,0.41873264
1570726727,-0.8445587,2.0644073,10.405197,-0.13813782,0.047851562,0.011520386,0.14888364,-0.16833615,0.41873264
1570726727,-0.8445587,2.0644073,10.405197,-0.13813782,0.047851562,0.011520386,0.14888364,-0.16833615,0.41873264
1570726727,-0.8445587,2.0644073,10.405197,-0.13813782,0.047851562,0.011520386,0.14888364,-0.16833615,0.41873264
1570726727,-0.8661041,2.043457,10.332184,0.030166626,0.00630188,0.011520386,0.100060225,-0.08208847,0.33860397
1570726727,-0.73921204,2.087738,10.296265,0.046142578,0.047851562,0.016845703,0.13068807,-0.053461313,0.3341236
1570726727,-0.7811127,1.9973602,10.235809,0.046142578,0.07447815,0.0104522705,0.20268327,-0.1316011,0.3219595
1570726727,-0.7811127,1.9973602,10.235809,0.046142578,0.07447815,0.0104522705,0.20268327,-0.1316011,0.3219595
1570726727,-0.7811127,1.9973602,10.235809,0.046142578,0.07447815,0.0104522705,0.20268327,-0.1316011,0.3219595
1570726727,-0.7811127,1.9973602,10.235809,0.046142578,0.07447815,0.0104522705,0.20268327,-0.1316011,0.3219595
1570726727,-0.7811127,1.9973602,10.235809,0.046142578,0.07447815,0.0104522705,0.20268327,-0.1316011,0.3219595
1570726728,-1.2856903,2.1470032,10.233414,-0.012435913,0.15969849,0.03388977,-0.08039832,-0.010472298,0.07479763
1570726728,-0.9732361,2.07518,10.47702,0.012054443,0.15330505,0.042419434,0.12429273,-0.17876267,0.54030323
1570726728,-1.0151367,2.1080933,10.506363,0.0024719238,0.22468567,0.029632568,0.21973312,-0.116696596,0.484272
1570726728,-1.0151367,2.1080933,10.506363,0.0024719238,0.22468567,0.029632568,0.21973312,-0.116696596,0.484272
1570726728,-1.0151367,2.1080933,10.506363,0.0024719238,0.22468567,0.029632568,0.21973312,-0.116696596,0.484272
1570726728,-1.0151367,2.1080933,10.506363,0.0024719238,0.22468567,0.029632568,0.21973312,-0.116696596,0.484272
1570726728,-1.8243866,2.5546112,10.33876,0.80249023,0.6071167,0.3428192,0.08174527,-0.19922733,0.6433468
1570726728,-2.039856,2.8880005,9.555252,0.76519775,0.7381439,0.24694824,-0.14326382,0.02254343,0.23849297
1570726728,-2.1493988,3.1214447,9.434357,0.4946289,0.5293579,0.11166382,0.21044302,-0.1043787,-0.3018484
1570726728,-2.1643524,3.0771484,9.575607,0.47331238,0.5272217,0.11592102,0.114430666,-0.11295295,-0.06238842
1570726728,-2.1643524,3.0771484,9.575607,0.47331238,0.5272217,0.11592102,0.114430666,-0.11295295,-0.06238842
1570726728,-2.1643524,3.0771484,9.575607,0.47331238,0.5272217,0.11592102,0.114430666,-0.11295295,-0.06238842
1570726728,-2.1643524,3.0771484,9.575607,0.47331238,0.5272217,0.11592102,0.114430666,-0.11295295,-0.06238842
1570726728,-2.542038,3.1453857,9.291901,-0.23188782,0.016952515,-0.11843872,0.084620714,-0.36065722,-0.041594505
1570726728,-2.3110046,3.2914276,9.503784,-0.21377563,-0.019256592,-0.12908936,0.07757068,-0.1935525,0.090875626
1570726728,-2.2756958,3.272873,9.281128,-0.22016907,0.010574341,-0.119506836,0.22037315,-0.09224367,-0.1102705
