time,ax,ay,az,gx,gy,gz,la_x,la_y,la_z,fox,foy,foz
1570726892,-3.1548767,8.472183,6.790146,1.2917175,4.06073,1.7817535,-2.2370944,-0.074975014,1.6361141
1570726892,-3.4649353,6.1210785,5.4841156,0.9348602,4.5837708,1.3801575,-1.2051218,-2.6061764,0.062412262
1570726892,-5.7346344,5.313034,8.25061,2.4517975,5.9473114,0.91889954,-2.821269,-4.1757965,4.847872
1570726892,1.1977844,6.577179,5.742691,4.501358,5.8045654,1.4653778,1.645544,-3.4830017,3.2152662
1570726892,0.15031433,3.984253,1.3660889,2.0693665,1.3453674,-1.509903,4.2281547,-4.3545074,-4.5219426
1570726892,-6.219467,3.453949,-0.6510315,1.9404602,2.864441,-1.4758148,-1.7355943,-6.5376043,-1.0883284
1570726892,-4.6033783,6.829773,1.6689453,0.6962433,3.0881348,-0.31254578,-1.5846119,-2.9301777,1.5539222
1570726893,-6.736603,7.3696594,-0.7671509,-0.33280945,2.7493896,0.015548706,-2.968113,-2.4072132,-1.7531676
1570726893,-4.634491,6.613098,0.82858276,-1.2745056,0.99916077,0.31489563,-1.5417907,-3.1222143,0.8929447
1570726893,-4.6189423,8.569153,-1.7487793,-0.60658264,-0.53056335,-0.77593994,-1.3795612,-1.1622925,-0.854722
1570726893,-6.2805176,13.227081,-5.7267456,-0.09631348,1.6851807,-0.63638306,-3.7846844,3.3165207,-6.469706
1570726893,-4.155655,13.792114,-4.985733,-0.3455963,2.818634,0.40223694,-2.216038,4.583688,-10.409479
1570726893,-3.8228607,13.963287,-1.0855865,-0.5469208,2.3946533,1.373764,-0.16066003,4.2611113,-0.62484574
1570726893,-3.6265411,13.586212,-2.456253,-1.9722443,2.0218048,2.1130524,-1.4944,4.3363876,-2.7676966
1570726893,-0.83969116,13.022369,1.5947266,-2.1554718,2.4106293,2.7618103,1.2012308,2.7796164,0.6563623
1570726893,0.24967957,12.695557,2.0807495,-1.1999359,2.0345917,3.2230682,1.1238681,2.3746014,0.99603176
1570726893,0.8482208,15.033493,3.0540009,0.18278503,1.017273,3.1144104,1.0204351,3.836357,2.222646
1570726893,3.2029266,13.957306,1.9514618,1.0871887,-0.45492554,1.3045197,1.899603,4.5802565,0.9044201
1570726893,1.9758911,11.700775,0.17736816,1.9127655,-0.98542786,0.16149902,1.4335148,1.2964659,0.122188956
1570726893,2.311081,12.225098,-0.4379425,2.0736237,-1.2485504,0.57907104,1.5885228,1.7387896,-0.09607133
1570726893,2.3170624,13.555084,-1.1346588,1.6847992,-1.1867676,0.77508545,1.2984586,2.9578457,-0.6880401
1570726893,0.99905396,11.783371,0.11630249,-2.1522827,-0.03201294,1.1916046,0.08723557,1.5461998,0.0502398
1570726893,2.1147614,12.378326,4.123001,-2.0031433,0.5410919,1.8403473,0.21830058,2.0075455,4.0531616
1570726893,1.8154755,11.913849,2.7247925,-0.20071411,-2.3308563,1.7945404,-0.16246247,1.5838604,4.1004224
1570726893,2.2991028,9.640564,-2.2443695,-0.49473572,-2.2818604,1.2288818,-0.5279119,-0.25992012,-2.0780919
1570726893,3.3896637,9.212006,-0.66539,-1.3671875,-0.30259705,1.2714996,0.11639094,-0.56438255,-1.3671949
1570726893,2.86055,8.176514,0.259964,-1.8390961,0.5304413,0.7655029,-0.68485713,-1.9346514,-0.7947107
1570726893,4.26355,10.842453,4.2151794,-1.9296417,0.6327057,0.7868042,0.34659266,0.5906954,1.8457389
1570726893,3.7571716,7.265518,4.944214,-1.1796875,-0.49754333,0.9220886,0.2569003,-2.6748686,3.035613
1570726893,5.3780518,9.744705,4.83049,-0.90805054,0.18849182,1.0765533,0.560143,0.6860218,2.0499327
1570726893,4.2192535,8.736755,5.3332825,0.07305908,0.14375305,0.83154297,-0.5069914,-0.46654987,2.9743161
1570726893,5.0847626,7.307419,3.3999634,0.03364563,0.31098938,0.7537842,0.1603775,-1.4511175,0.99389434
1570726893,4.571213,6.9039917,3.165329,0.06880188,0.8148651,0.28292847,-0.34891748,-1.8980036,0.660774
1570726893,4.082794,6.4323273,3.714798,0.050689697,0.94589233,0.02619934,-0.5400529,-2.56608,1.3228283
1570726893,4.5113525,10.543182,5.979706,1.125534,0.92352295,0.34791565,-0.34432554,1.6503134,3.3321245
1570726893,5.820984,9.104263,4.003296,1.5601654,-0.013916016,1.0435333,0.66967916,0.54193115,2.0681353
1570726893,6.533249,9.550781,1.0081482,1.4568329,0.44522095,0.6472473,1.0866766,-0.7749796,-2.166716
1570726893,3.781128,6.817795,-1.7068787,1.5995789,0.60180664,0.39904785,-1.0840025,-1.6410017,-2.6454492
1570726893,0.4124756,5.2507935,-2.324585,1.3907928,1.6702728,-0.85157776,-4.359502,-4.946001,-2.7270074
1570726893,0.12637329,5.4411316,-2.388031,0.965744,1.1898346,-0.7919159,-4.5689077,-4.265314,-3.9035637
1570726894,2.9455414,12.615356,-2.1186829,0.7750702,1.3219299,-0.5383911,-1.8542056,2.5102844,-3.057983
1570726894,4.992584,10.006866,1.7383881,0.8592224,0.6859741,0.4342041,0.34363985,1.2375536,0.5178627
1570726894,3.4435425,10.540787,0.19412231,1.1798706,-0.30578613,0.50450134,-0.91063356,1.5010042,-0.654702
1570726894,3.5476837,9.630981,-8.110168,1.1564331,-1.1494751,-0.103759766,-0.94847965,-0.32751083,-3.1298442
1570726894,3.6925354,13.632889,0.94470215,0.4267273,0.3834381,-0.77168274,-0.4280057,3.798212,-0.5757046
1570726894,2.9036407,7.619858,-1.664978,0.20727539,-0.923645,-1.6494598,-0.9882288,-2.0287561,-1.2810218
1570726894,4.529312,11.780975,-3.534851,-0.3945923,-1.0568085,-2.2609253,-0.25960135,0.970808,-3.8678904
1570726894,3.6362762,14.676758,-0.15782166,1.8499146,-0.03414917,-0.5596924,0.5092623,4.299837,0.4131187
1570726894,6.6936646,5.3776855,-2.12706,0.2829132,-1.3923645,0.47148132,3.0968485,-4.829753,-0.9147624
1570726894,4.89682,10.288193,-0.4056244,-0.39245605,0.1789093,-0.39137268,2.01856,-0.45465755,-0.23773986
1570726894,-0.66371155,10.512054,1.7060547,-0.08779907,-0.35159302,-0.24862671,-4.2467513,0.5813379,2.2683325
1570726894,1.8944855,8.693649,0.7519684,0.61846924,0.08622742,0.84858704,-1.9203515,-1.2361612,1.6536214
1570726894,4.5819855,8.286636,-1.0783997,-0.5970001,-0.6456146,-0.11759949,1.2598419,-1.3140335,-0.55097234
1570726894,1.5736694,2.770401,2.0831451,-1.1722412,-1.8823853,0.009155273,-2.0136888,-6.799327,2.2384338
1570726894,2.4307861,10.168488,-0.27633667,0.26586914,-1.8323212,0.7899933,-1.1810195,-0.02547741,1.2418913
1570726894,4.6573944,8.601471,-2.025299,0.077316284,-0.2823639,0.20835876,1.5751383,-0.77952576,-1.4037526
1570726894,0.8170929,5.833786,1.6450043,-0.24012756,-0.3388214,-0.19004822,-2.7618325,-3.625391,2.143352
1570726894,-1.025238,1.2416992,-5.950592,-1.456665,-0.068237305,-0.63319397,-4.0890455,-8.519118,-5.2770915
1570726894,-0.040023804,5.981018,6.759018,-1.3490753,1.5594788,0.57481384,-3.627652,-3.7940388,7.3293977
1570726894,11.237869,24.56961,1.8616791,-0.02494812,0.011657715,0.25204468,4.577074,8.272753,4.6993194
1570726894,5.999344,10.629364,2.394394,-1.1488037,1.7011719,-2.2300262,4.058565,0.4103403,0.6710407
1570726894,-1.1377716,10.965744,0.088775635,-0.09844971,4.139557,-0.46914673,-4.0887384,0.9717779,-1.2793183
1570726894,0.54774475,11.025604,3.580719,-0.68222046,0.84043884,-0.3178711,-2.1215403,0.9397011,2.184666
1570726894,1.1283417,10.486908,2.8169708,-1.2681122,-0.5454712,-0.5554352,-1.3885374,0.35886383,1.1352854
1570726894,2.8390045,10.576691,3.5484009,-1.2681122,-1.542572,-0.28910828,0.1639185,0.6958904,1.4851594
1570726894,4.860901,11.687607,1.7204285,-0.69073486,-1.4040833,-0.40203857,2.3538864,1.728468,-0.32582092
1570726894,6.972595,14.177567,3.6393738,-2.6135406,-0.94921875,0.43527222,4.16343,4.260748,0.8175769
1570726894,4.568817,16.169556,2.8852081,-2.223648,0.7722473,0.79959106,1.8806272,6.6133413,-0.36795497
1570726894,1.9256134,14.916183,2.4518585,-2.188507,0.64868164,0.9125061,-0.8724482,5.6527777,-1.5247841
1570726894,0.7692108,13.616135,3.534027,-1.5077972,0.37597656,0.4065094,-2.264154,4.61067,-1.1007738
1570726894,1.6024017,12.197571,2.9019623,-0.7067108,-0.077819824,0.29997253,-1.4146929,3.57903,-1.7920213
1570726894,1.8741455,9.866806,2.5380402,-0.24545288,-0.13534546,0.66856384,-1.3417299,1.1503878,-2.3193183
1570726894,1.5569,7.676117,1.9179535,0.16679382,-0.008590698,0.47361755,-1.7413695,-0.99582577,-2.928936
1570726894,0.30593872,5.775116,0.888443,0.54389954,-0.049057007,0.097579956,-3.04108,-2.938136,-3.9052668
1570726895,-0.16212463,6.1809387,1.3170013,0.8570862,-0.13108826,-0.27633667,-3.5387564,-2.6881285,-3.269351
1570726895,-0.3105774,6.02652,1.085968,1.1596222,-0.13748169,-0.58525085,-3.588444,-2.9424582,-3.143608
1570726895,0.68182373,5.706894,0.3174286,1.3705444,-0.025634766,-0.91015625,-2.4516068,-3.4914312,-3.5525713
1570726895,2.956314,6.300644,1.030899,1.8669586,-0.0128479,-1.0411835,-0.09821558,-3.2407808,-2.546911
1570726895,4.232422,8.141785,2.7080383,2.2121124,-0.84588623,-0.9378662,1.7271409,-1.6104574,-0.11884284
1570726895,3.528534,9.5448,2.7355652,2.5561829,-0.34947205,-0.35516357,1.2061975,-0.4199152,0.7312887
1570726895,1.1618652,10.9897,4.896332,1.8211517,0.32484436,0.52900696,-1.1526735,0.87957764,3.5197058
1570726895,-0.491333,15.010757,5.7402954,0.39157104,1.0385742,0.69944763,-3.0935605,4.960641,4.5587187
1570726895,0.8530121,9.504089,7.6149445,0.23071289,0.54641724,0.2424469,-1.8449168,-0.24732018,6.4669037
1570726895,0.43762207,9.36882,2.528473,-0.6641083,-1.1079407,-0.23052979,-2.1885612,-0.79668903,1.5416178
1570726895,2.9898376,14.792877,-6.1253815,-0.9698334,-0.7201843,0.020874023,0.21098685,4.5578423,-7.4443736
1570726895,3.090393,16.867462,-2.5125275,-1.0135193,0.025497437,0.08265686,0.46602702,6.749443,-4.3252044
1570726895,3.1107483,10.737106,-3.320572,0.57266235,0.03616333,-0.018539429,0.16429234,0.6385231,-4.136652
1570726895,4.461075,16.823166,-2.380844,0.29782104,1.1333771,-0.3700714,1.7636569,6.3850393,-3.9650288
1570726895,3.4124146,15.875061,4.7239532,1.1755981,0.117111206,-0.5873871,1.1781895,6.184327,3.437768
1570726895,1.8130798,9.161728,-2.6094818,0.64190674,0.24813843,0.2531128,-0.31033635,-0.65243435,-3.4681873
1570726895,2.592392,9.08989,-0.36013794,-0.57888794,-0.15026855,0.65364075,0.00897789,-1.1215658,-1.3901036
1570726895,3.0365295,10.898712,0.63345337,-0.33706665,-1.9686737,0.6046448,-0.079745054,0.6077423,-0.14786732
1570726895,2.149475,10.273834,0.87646484,0.37878418,-2.3180847,0.04005432,-0.7259164,0.2686205,0.09242904
1570726895,2.2452393,7.169739,0.8692932,1.2480469,-0.9907532,-0.13252258,-0.76438284,-2.7615414,0.16905701
1570726895,2.319458,8.2603,3.0563965,1.0605621,-0.112976074,-0.20602417,-0.6848557,-2.229824,3.1963172
1570726895,3.4555054,9.815338,3.6381836,-1.09021,-0.39100647,-0.17407227,0.41708636,-0.202178,3.6064515
1570726895,3.2340393,8.642181,1.0632172,-0.8420105,-0.6711731,-0.4308014,0.57999253,-1.4869204,0.9511778
1570726895,2.137497,7.5911255,2.2698975,-1.2361603,-0.14813232,-0.33598328,-0.47205782,-2.5036936,1.759605
1570726895,1.675415,6.580765,1.1482086,-1.4545288,-0.39527893,-0.3370514,-0.8177457,-3.569026,0.18990117
1570726895,3.1945343,8.362061,0.03968811,-1.3501434,-0.5177765,-0.37539673,0.62920904,-1.7929344,-1.0667224
1570726895,4.48143,9.713577,-0.22366333,-0.95492554,-0.189682,-0.5895233,2.06431,-0.38721275,-1.7678974
1570726895,6.2028503,9.854843,0.9566803,0.053878784,0.49635315,-0.5469055,3.8699327,-0.14428139,-0.79327273
1570726895,6.4003754,12.384323,4.348068,-0.47235107,-0.09274292,-0.0057525635,4.916276,1.7063694,3.9703925
1570726895,4.1366577,14.6875305,3.532837,-1.8763733,1.7757263,0.5897217,2.108115,4.520507,0.64517736
1570726895,-0.09867859,16.894989,3.9937134,-1.7623901,1.2654724,1.0989227,-2.1012788,6.788575,1.6459372
1570726895,-1.1473389,17.218216,3.3891907,-1.9711914,0.49742126,1.3865509,-3.7285085,7.7491417,0.38290906
1570726895,1.4000854,15.253769,3.2670746,-1.7187195,0.39727783,0.60783386,-2.257319,5.9724674,-1.3105369
1570726896,4.173767,11.931808,2.0675812,-1.0156403,-0.30046082,0.31489563,1.0418901,3.518322,-1.929421
1570726896,2.1207428,7.5755615,1.8556976,-0.4457245,0.089416504,0.70051575,-0.5553136,-1.2709723,-2.643258
1570726896,0.9176483,5.94751,2.0915222,0.015533447,0.55174255,0.64512634,-2.1828983,-2.958068,-2.591486
1570726896,1.0253906,5.366913,0.6131134,0.48744202,0.2300415,0.55563354,-2.1814184,-3.4959564,-3.856194
1570726896,0.04257202,5.976242,0.20968628,1.0445709,0.11392212,0.31489563,-3.0698586,-3.1508684,-4.2320294
1570726896,-1.3544464,6.280304,0.29826355,1.3886566,0.19488525,-0.024932861,-4.5965166,-2.6373415,-3.9739246
1570726896,-0.93066406,5.4183807,1.0572357,1.5942535,-0.112976074,-0.39457703,-4.1903315,-3.716134,-2.6489043
1570726896,-0.24832153,5.8469543,0.42515564,1.5569763,-0.7659912,-0.8686218,-3.6144454,-3.9049683,-2.6780505
1570726896,3.1502533,9.001312,1.2607422,1.6890564,-0.8352356,-1.175415,-0.14678288,-1.0023203,-1.729095
1570726896,6.232788,11.863571,5.91626,3.1260986,-0.12043762,-1.1242828,2.9649358,1.8653641,3.093241
1570726896,6.0891266,10.227142,7.5347443,1.3833313,0.5592041,0.16575623,4.1540146,0.8867769,6.1050477
1570726896,-0.5607605,12.355591,4.995697,-0.080337524,0.29608154,0.5684204,-2.6177294,2.1486359,4.298696
1570726896,-1.2730408,14.1332855,4.3013763,-0.08886719,0.7530823,0.70051575,-3.7993867,3.939495,3.292112
1570726896,1.2779846,14.306854,-2.5436554,-0.49578857,-1.7492218,0.36175537,-2.124283,4.7242565,-2.1154127
1570726896,1.5174103,13.145676,-3.361267,-0.5991211,-1.3305817,-0.03665161,-1.0716541,2.841586,-5.1683674
1570726896,3.4842377,12.731476,-3.5611877,0.049621582,-0.20140076,-0.22839355,0.39395905,2.8984194,-4.001645
1570726896,4.777115,15.067017,-1.3980255,0.34683228,1.7949066,-0.55329895,1.7510054,4.4804935,-3.1090267
1570726896,5.6689453,15.85112,5.56192,1.5218201,1.1205902,-0.7738037,3.5743854,5.9677773,3.6870637
1570726896,1.5605011,11.032791,-1.1095276,1.0850525,-0.91085815,0.26481628,-0.4488306,1.2297277,0.10018426
1570726896,2.042923,9.56395,-1.0867767,-1.1264343,-0.31645203,0.864563,-0.44215584,-0.65955734,-1.7498682
1570726896,2.256012,9.359238,0.0756073,-0.8238983,-1.6128693,0.6152954,-0.528358,-0.83603764,-0.6115988
1570726896,2.0130005,8.61824,-0.27394104,-0.4649048,-2.5343323,0.19877625,-0.93898225,-1.4728413,-1.1731758
1570726896,2.4427643,8.778641,2.4279175,0.45228577,-2.2445679,-0.13891602,-0.7384262,-1.1887007,1.4676526
1570726896,2.6055603,7.767105,0.7364044,1.8754883,-0.8352356,-0.5405121,-0.3106737,-2.3613462,0.9455894
1570726896,3.3106537,8.166931,2.7212067,0.18171692,3.0540466,-0.16873169,0.85305214,-1.9090223,2.7750165
1570726896,2.8976593,6.9195557,3.7495117,-2.236435,0.16079712,-0.13998413,0.39868045,-3.2493877,3.5141187
1570726896,2.2763672,7.483383,-0.12071228,-1.201004,-1.1878357,-0.20921326,-0.35539532,-2.7742138,-0.9988818
1570726896,3.169403,8.310577,-0.3828888,-0.945343,0.13948059,-0.29763794,0.14723921,-1.6832237,-0.7536279
1570726896,3.0652618,8.515289,0.7759094,-1.1669159,0.907547,-0.664093,0.44138265,-1.7115812,-0.9661039
1570726896,4.868088,9.343674,1.082367,-0.6875458,0.49635315,-0.65982056,2.4576306,-0.8068752,-0.7509202
1570726896,7.182083,12.130524,2.9067535,-0.15704346,0.45480347,-0.27633667,4.88879,1.9219484,0.6494502
1570726896,4.75795,17.470795,2.624237,-0.84840393,0.7861023,0.4608307,2.7094202,7.160596,0.8697245
1570726896,0.48191833,16.571777,4.717972,-1.7698517,1.3773193,0.9806824,-1.7411122,6.774454,2.1583352
1570726897,-1.1054382,13.917801,4.073929,-2.044693,-0.0043182373,1.3950653,-3.7051284,4.218049,0.865747
1570726897,0.92962646,14.962875,3.225174,-1.5301666,0.55067444,1.0126343,-2.243,5.243206,-0.7394495
1570726897,5.2942505,16.216232,3.60466,-1.0678406,0.17463684,0.24884033,2.1868093,7.143359,-0.47952747
1570726897,4.6454315,8.778641,0.809433,-0.70777893,0.47824097,0.6365967,2.2890553,0.4422016,-3.165761
1570726897,0.36579895,6.226425,1.6258545,-0.18367004,0.84043884,1.0115814,-2.7757363,-2.8075657,-3.0485034
1570726897,-1.5759125,6.4335327,2.0879364,0.1018219,0.7115326,0.5652313,-4.7465253,-2.667966,-2.353013
1570726897,-1.1222076,6.319809,1.3768616,0.4309845,0.429245,0.18066406,-4.4786434,-2.6267204,-3.235118
1570726897,-0.3907776,5.7930756,0.675354,0.7601471,-0.0053863525,-0.1612854,-3.6589742,-3.245594,-3.6854472
1570726897,-0.35725403,5.4483185,1.0141296,0.9806671,-0.5518646,-0.55010986,-3.5285003,-3.7145367,-3.1512513
1570726897,0.69859314,5.4399414,0.93273926,1.3567047,-0.72869873,-0.83132935,-2.3957767,-3.9028091,-2.7692072
1570726897,3.5596619,6.7148438,0.79745483,1.8275452,-0.7319031,-1.2670288,0.6788559,-2.9513912,-2.3804393
1570726897,4.5819855,9.121017,1.619873,2.3218231,-0.5167084,-1.3224182,1.9645784,-0.937068,-1.301806
1570726897,5.834152,10.71196,6.4753113,4.065674,0.34828186,-0.4712677,3.4715157,0.5678959,4.755558
1570726897,4.4634705,10.440231,9.782898,0.45655823,0.47505188,0.34259033,2.5038877,0.11369038,8.728015
1570726897,-1.253891,13.2282715,5.9114685,0.04322815,0.733902,0.9572449,-3.6422772,2.9700928,5.133311
1570726897,-3.3931122,14.680359,2.6817017,-0.6641083,0.39941406,0.7655029,-6.0040245,4.613961,1.5486324
1570726897,2.6247253,11.587051,-2.5089264,-1.1754303,-2.2381897,0.2658844,-0.48347545,1.6346731,-3.3955927
1570726897,1.7245026,14.892242,-1.2627563,-0.96876526,-1.8237915,0.009155273,-1.1681273,4.7384787,-3.1303115
1570726897,4.810623,12.499237,-2.985382,-0.16130066,-0.17263794,-0.21881104,1.7900538,2.711792,-4.463962
1570726897,6.107086,12.184402,-0.5456848,0.49597168,2.4266052,-0.5000305,3.0888386,1.6940222,-2.4568558
1570726897,4.9339294,16.58374,2.7690887,1.9127655,0.9171295,-0.8334656,2.7084765,6.61106,1.5815341
1570726897,1.8896942,10.86879,0.9710388,1.8083801,-0.73402405,0.19664001,-0.49701333,0.56086063,0.63204163
1570726897,1.3917084,10.400726,-1.8648987,-0.757843,0.01272583,0.9210205,-1.4874523,0.118844986,-2.6153681
1570726897,2.3721313,10.497681,0.5352936,-0.48088074,-1.7151337,0.6163635,-0.6820183,0.16520214,0.14618939
1570726897,1.7089386,10.442612,0.4479065,-0.14744568,-2.6174164,0.15190125,-1.1002798,0.38371372,-0.3443467
1570726897,2.4176178,8.692459,0.6681671,0.8560333,-1.7311096,-0.113342285,-0.57097316,-1.2632179,0.5610722
1570726897,2.4367828,6.621475,1.9813995,1.3822632,-0.3388214,-0.20921326,-0.64527535,-3.465209,1.9722178
1570726897,2.619934,6.4203644,2.576355,-0.8697052,1.1600037,-0.10908508,-0.3996508,-3.7270927,2.6186788
1570726897,2.5026245,6.941101,2.0209045,-1.2734375,-0.70526123,-0.20388794,-0.45178723,-3.2070389,1.916087
1570726897,2.7073212,8.462616,1.1494141,-1.043335,-0.71698,-0.15382385,-0.16148114,-1.6475115,0.8580771
1570726897,2.2775574,7.0272827,0.52212524,-1.4843597,0.20233154,-0.3413086,-0.4039297,-2.9029722,-0.6791869
1570726897,2.8318176,6.894409,-0.13748169,-1.2510681,0.11178589,-0.47979736,0.04670143,-3.2506065,-1.4738846
1570726897,5.575577,11.496063,0.35214233,-0.5202942,0.31526184,-0.7940521,2.902257,1.0143614,-1.0068718
1570726897,8.297775,12.299316,2.8193665,0.2552185,1.1759949,-0.7418518,5.884796,2.1132765,0.7164216
1570726898,6.5583954,14.840775,2.3931885,-0.65345764,0.7126007,0.060287476,4.620267,4.5127697,1.0537801
1570726898,1.7508392,16.817184,6.494461,-1.9658661,2.3989105,1.0424652,-0.24394894,6.748371,4.0972857
1570726898,-2.5994263,16.739365,3.6477509,-2.1640015,0.3781128,1.5623169,-5.046812,6.823139,0.70855474
1570726898,-1.5028839,14.533112,1.2810822,-2.0894318,0.4526825,0.9678955,-4.518072,5.1213064,-2.508127
1570726898,3.8170319,15.432129,4.051178,-1.3416138,0.0574646,-0.3466339,0.84685636,5.87809,-0.09591627
1570726898,5.281082,10.684433,2.3129883,-0.9655762,-0.24507141,0.44592285,2.5381482,1.6382179,-1.8355455
1570726898,1.4946594,6.8573,1.0344849,-0.26249695,0.40153503,1.0019836,-1.1539545,-2.0290098,-3.792615
1570726898,-0.40992737,5.779907,1.9909668,0.079452515,0.7861023,0.74313354,-3.5315332,-3.2256184,-2.7797523
1570726898,-0.77145386,5.902008,1.4019928,0.3798523,0.38449097,0.42248535,-3.8986166,-3.1049309,-3.3289585
1570726898,-1.2443085,5.8840637,1.2415771,0.82299805,-0.02456665,-0.012145996,-4.4572787,-3.1359873,-3.2845378
1570726898,-1.1233978,5.890045,1.6234589,1.2256775,-0.714859,-0.49258423,-4.259675,-3.2793198,-2.7185988
1570726898,-0.9761505,5.814621,0.9423065,1.5132904,-0.9375,-0.82388306,-4.011547,-3.5386734,-2.676719
1570726898,2.4307861,6.034897,-1.1729736,1.155365,-0.2589264,-1.4033813,-0.869715,-3.723011,-4.5853586
1570726898,4.951889,8.845688,2.576355,1.4600372,-0.23442078,-1.6984558,2.5522056,-1.1271238,-0.5980599
1570726898,6.911545,11.9366,8.133301,4.1913757,-0.5593262,-0.888855,4.3796225,1.8885098,5.6922293
1570726898,4.907593,8.593094,8.165619,1.4525757,-0.57850647,0.074142456,3.7123022,-1.0746241,7.0098753
1570726898,-0.55596924,10.020035,5.4960785,-0.2657013,0.7733154,0.99453735,-2.7009141,-0.26986313,4.7132816
1570726898,-0.48414612,12.9313965,4.1409607,-0.6183014,0.8659973,0.8901367,-2.6833136,2.3224277,3.3622522
1570726898,1.3019257,13.570648,-1.7236328,-0.9197693,-1.7034149,0.62701416,-1.681153,3.5487537,-1.7107525
1570726898,1.6407013,14.247009,-1.5093536,-0.83561707,-2.0027618,0.37986755,-0.92476153,4.1167994,-3.6006746
1570726898,3.7332306,13.685562,-3.7515259,-0.3999176,-1.1441498,-0.029190063,0.63118243,4.218461,-4.6589837
1570726898,6.145401,18.286026,-0.1410675,0.15188599,1.9823914,-0.52027893,3.0319562,7.092146,-2.941041
1570726898,4.177368,13.412628,0.14263916,2.0991974,1.8226013,-0.8164215,2.291459,4.035804,0.13415504
1570726898,1.7005615,10.126587,-0.6905365,0.8720093,0.8180542,0.18492126,-0.52492905,-0.13587093,-1.5805478
1570726898,1.5509186,11.146515,-0.68455505,-0.39033508,-0.87997437,0.6877289,-1.0540876,0.7920151,-1.4528204
1570726898,2.62352,11.281784,-0.27993774,0.053878784,-1.3241882,0.49491882,-0.26011133,1.0427876,-1.1739571
1570726898,2.7037354,9.286224,1.3457336,0.43951416,-2.0411072,0.081604004,-0.45844197,-0.7158642,0.42227155
1570726898,2.283554,8.104675,1.5252991,1.5782776,-1.2027435,-0.19963074,-0.48462653,-2.0238495,1.4601423
1570726898,2.1159515,7.3349457,0.6681671,0.8602905,0.9118042,-0.013214111,-0.53831744,-2.9241095,0.88608885
1570726898,2.0884247,6.870468,3.5065002,-1.3160553,-0.53056335,-0.13998413,-0.68333673,-3.2710314,3.6592548
1570726898,2.564865,7.167343,0.010971069,-0.8132477,-0.54441833,-0.15063477,-0.19426894,-3.151661,-0.009738639
1570726898,3.1705933,7.011734,1.358902,-0.7194977,-0.17689514,-0.09736633,0.47997785,-3.085905,1.0790112
1570726898,2.9216003,7.2798767,1.130249,-0.9517212,-0.27809143,-0.12931824,0.15281057,-3.1793299,0.4991774
1570726899,4.6729584,10.874771,1.7922516,-0.7035217,-0.20884705,-0.2901764,1.5959094,0.04471302,0.3878395
1570726899,4.643036,9.835693,-0.49780273,-0.8281555,0.7019501,-0.44784546,2.2937596,0.10958862,-0.6653547
1570726899,4.556839,9.426285,-0.7013092,-0.94000244,0.827652,-0.44784546,2.078949,-0.6764822,-1.8878642
1570726899,4.556839,9.426285,-0.7013092,-0.94000244,0.827652,-0.44784546,2.078949,-0.6764822,-1.8878642
1570726899,4.556839,9.426285,-0.7013092,-0.94000244,0.827652,-0.44784546,2.078949,-0.6764822,-1.8878642
1570726899,4.556839,9.426285,-0.7013092,-0.94000244,0.827652,-0.44784546,2.078949,-0.6764822,-1.8878642
1570726899,4.556839,9.426285,-0.7013092,-0.94000244,0.827652,-0.44784546,2.078949,-0.6764822,-1.8878642
1570726899,4.556839,9.426285,-0.7013092,-0.94000244,0.827652,-0.44784546,2.078949,-0.6764822,-1.8878642
1570726899,4.556839,9.426285,-0.7013092,-0.94000244,0.827652,-0.44784546,2.078949,-0.6764822,-1.8878642
1570726899,4.556839,9.426285,-0.7013092,-0.94000244,0.827652,-0.44784546,2.078949,-0.6764822,-1.8878642
1570726899,4.556839,9.426285,-0.7013092,-0.94000244,0.827652,-0.44784546,2.078949,-0.6764822,-1.8878642
1570726899,4.556839,9.426285,-0.7013092,-0.94000244,0.827652,-0.44784546,2.078949,-0.6764822,-1.8878642
1570726899,4.556839,9.426285,-0.7013092,-0.94000244,0.827652,-0.44784546,2.078949,-0.6764822,-1.8878642
1570726899,4.556839,9.426285,-0.7013092,-0.94000244,0.827652,-0.44784546,2.078949,-0.6764822,-1.8878642
1570726899,4.556839,9.426285,-0.7013092,-0.94000244,0.827652,-0.44784546,2.078949,-0.6764822,-1.8878642
1570726899,4.556839,9.426285,-0.7013092,-0.94000244,0.827652,-0.44784546,2.078949,-0.6764822,-1.8878642
1570726899,4.556839,9.426285,-0.7013092,-0.94000244,0.827652,-0.44784546,2.078949,-0.6764822,-1.8878642
1570726899,4.556839,9.426285,-0.7013092,-0.94000244,0.827652,-0.44784546,2.078949,-0.6764822,-1.8878642
1570726899,4.556839,9.426285,-0.7013092,-0.94000244,0.827652,-0.44784546,2.078949,-0.6764822,-1.8878642
1570726899,4.556839,9.426285,-0.7013092,-0.94000244,0.827652,-0.44784546,2.078949,-0.6764822,-1.8878642
1570726899,-0.4530182,10.769424,5.051956,-0.57888794,0.59861755,0.5812073,3.8156734,-0.18593025,7.787364
1570726903,-0.4530182,10.769424,5.051956,-0.57888794,0.59861755,0.5812073,3.8156734,-0.18593025,7.787364
1570726903,-0.4530182,10.769424,5.051956,-0.57888794,0.59861755,0.5812073,3.8156734,-0.18593025,7.787364
1570726903,-0.4530182,10.769424,5.051956,-0.57888794,0.59861755,0.5812073,3.8156734,-0.18593025,7.787364
1570726903,-0.4530182,10.769424,5.051956,-0.57888794,0.59861755,0.5812073,3.8156734,-0.18593025,7.787364
1570726903,-0.4530182,10.769424,5.051956,-0.57888794,0.59861755,0.5812073,3.8156734,-0.18593025,7.787364
1570726903,-0.4530182,10.769424,5.051956,-0.57888794,0.59861755,0.5812073,3.8156734,-0.18593025,7.787364
1570726903,-0.4530182,10.769424,5.051956,-0.57888794,0.59861755,0.5812073,3.8156734,-0.18593025,7.787364
1570726903,-0.4530182,10.769424,5.051956,-0.57888794,0.59861755,0.5812073,3.8156734,-0.18593025,7.787364
1570726903,-0.4530182,10.769424,5.051956,-0.57888794,0.59861755,0.5812073,3.8156734,-0.18593025,7.787364
1570726903,-0.4530182,10.769424,5.051956,-0.57888794,0.59861755,0.5812073,3.8156734,-0.18593025,7.787364
1570726903,-0.4530182,10.769424,5.051956,-0.57888794,0.59861755,0.5812073,3.8156734,-0.18593025,7.787364
1570726903,-0.4530182,10.769424,5.051956,-0.57888794,0.59861755,0.5812073,3.8156734,-0.18593025,7.787364
1570726903,-0.4530182,10.769424,5.051956,-0.57888794,0.59861755,0.5812073,3.8156734,-0.18593025,7.787364
1570726903,-0.4530182,10.769424,5.051956,-0.57888794,0.59861755,0.5812073,3.8156734,-0.18593025,7.787364
1570726903,-0.4530182,10.769424,5.051956,-0.57888794,0.59861755,0.5812073,3.8156734,-0.18593025,7.787364
1570726903,-0.4530182,10.769424,5.051956,-0.57888794,0.59861755,0.5812073,3.8156734,-0.18593025,7.787364
1570726903,-0.4530182,10.769424,5.051956,-0.57888794,0.59861755,0.5812073,3.8156734,-0.18593025,7.787364
1570726903,-0.4530182,10.769424,5.051956,-0.57888794,0.59861755,0.5812073,3.8156734,-0.18593025,7.787364
1570726903,-0.4530182,10.769424,5.051956,-0.57888794,0.59861755,0.5812073,3.8156734,-0.18593025,7.787364
1570726903,-0.4530182,10.769424,5.051956,-0.57888794,0.59861755,0.5812073,3.8156734,-0.18593025,7.787364
1570726903,-0.4530182,10.769424,5.051956,-0.57888794,0.59861755,0.5812073,3.8156734,-0.18593025,7.787364
1570726903,-0.4530182,10.769424,5.051956,-0.57888794,0.59861755,0.5812073,3.8156734,-0.18593025,7.787364
1570726903,-0.4530182,10.769424,5.051956,-0.57888794,0.59861755,0.5812073,3.8156734,-0.18593025,7.787364
1570726903,-0.4530182,10.769424,5.051956,-0.57888794,0.59861755,0.5812073,3.8156734,-0.18593025,7.787364
1570726903,-0.4530182,10.769424,5.051956,-0.57888794,0.59861755,0.5812073,3.8156734,-0.18593025,7.787364
1570726903,-0.4530182,10.769424,5.051956,-0.57888794,0.59861755,0.5812073,3.8156734,-0.18593025,7.787364
1570726903,-0.4530182,10.769424,5.051956,-0.57888794,0.59861755,0.5812073,3.8156734,-0.18593025,7.787364
1570726903,-0.4530182,10.769424,5.051956,-0.57888794,0.59861755,0.5812073,3.8156734,-0.18593025,7.787364
1570726903,-0.4530182,10.769424,5.051956,-0.57888794,0.59861755,0.5812073,3.8156734,-0.18593025,7.787364
1570726903,-0.4530182,10.769424,5.051956,-0.57888794,0.59861755,0.5812073,3.8156734,-0.18593025,7.787364
1570726903,-0.4530182,10.769424,5.051956,-0.57888794,0.59861755,0.5812073,3.8156734,-0.18593025,7.787364
1570726903,-0.4530182,10.769424,5.051956,-0.57888794,0.59861755,0.5812073,3.8156734,-0.18593025,7.787364
1570726903,-0.4530182,10.769424,5.051956,-0.57888794,0.59861755,0.5812073,3.8156734,-0.18593025,7.787364
1570726903,-0.4530182,10.769424,5.051956,-0.57888794,0.59861755,0.5812073,3.8156734,-0.18593025,7.787364
1570726903,-0.4530182,10.769424,5.051956,-0.57888794,0.59861755,0.5812073,3.8156734,-0.18593025,7.787364
1570726903,-0.4530182,10.769424,5.051956,-0.57888794,0.59861755,0.5812073,3.8156734,-0.18593025,7.787364
1570726903,-0.4530182,10.769424,5.051956,-0.57888794,0.59861755,0.5812073,3.8156734,-0.18593025,7.787364
1570726903,-0.4530182,10.769424,5.051956,-0.57888794,0.59861755,0.5812073,3.8156734,-0.18593025,7.787364
1570726903,-0.4530182,10.769424,5.051956,-0.57888794,0.59861755,0.5812073,3.8156734,-0.18593025,7.787364
1570726903,-0.4530182,10.769424,5.051956,-0.57888794,0.59861755,0.5812073,3.8156734,-0.18593025,7.787364
1570726903,-0.4530182,10.769424,5.051956,-0.57888794,0.59861755,0.5812073,3.8156734,-0.18593025,7.787364
1570726903,-0.4530182,10.769424,5.051956,-0.57888794,0.59861755,0.5812073,3.8156734,-0.18593025,7.787364
1570726903,-0.4530182,10.769424,5.051956,-0.57888794,0.59861755,0.5812073,3.8156734,-0.18593025,7.787364
1570726903,-0.4530182,10.769424,5.051956,-0.57888794,0.59861755,0.5812073,3.8156734,-0.18593025,7.787364
1570726903,-0.4530182,10.769424,5.051956,-0.57888794,0.59861755,0.5812073,3.8156734,-0.18593025,7.787364
1570726903,-0.4530182,10.769424,5.051956,-0.57888794,0.59861755,0.5812073,3.8156734,-0.18593025,7.787364
1570726903,-0.4530182,10.769424,5.051956,-0.57888794,0.59861755,0.5812073,3.8156734,-0.18593025,7.787364
1570726903,-0.4530182,10.769424,5.051956,-0.57888794,0.59861755,0.5812073,3.8156734,-0.18593025,7.787364
1570726903,-0.4530182,10.769424,5.051956,-0.57888794,0.59861755,0.5812073,3.8156734,-0.18593025,7.787364
1570726903,-0.4530182,10.769424,5.051956,-0.57888794,0.59861755,0.5812073,3.8156734,-0.18593025,7.787364
1570726903,-0.4530182,10.769424,5.051956,-0.57888794,0.59861755,0.5812073,3.8156734,-0.18593025,7.787364
1570726903,-0.4530182,10.769424,5.051956,-0.57888794,0.59861755,0.5812073,3.8156734,-0.18593025,7.787364
1570726903,-0.4530182,10.769424,5.051956,-0.57888794,0.59861755,0.5812073,3.8156734,-0.18593025,7.787364
1570726903,-0.4530182,10.769424,5.051956,-0.57888794,0.59861755,0.5812073,3.8156734,-0.18593025,7.787364
1570726903,-0.4530182,10.769424,5.051956,-0.57888794,0.59861755,0.5812073,3.8156734,-0.18593025,7.787364
1570726903,-0.4530182,10.769424,5.051956,-0.57888794,0.59861755,0.5812073,3.8156734,-0.18593025,7.787364
1570726903,-0.4530182,10.769424,5.051956,-0.57888794,0.59861755,0.5812073,3.8156734,-0.18593025,7.787364
1570726903,-0.4530182,10.769424,5.051956,-0.57888794,0.59861755,0.5812073,3.8156734,-0.18593025,7.787364
1570726903,-0.4530182,10.769424,5.051956,-0.57888794,0.59861755,0.5812073,3.8156734,-0.18593025,7.787364
1570726903,-0.4530182,10.769424,5.051956,-0.57888794,0.59861755,0.5812073,3.8156734,-0.18593025,7.787364
1570726903,-0.4530182,10.769424,5.051956,-0.57888794,0.59861755,0.5812073,3.8156734,-0.18593025,7.787364
1570726903,-0.4530182,10.769424,5.051956,-0.57888794,0.59861755,0.5812073,3.8156734,-0.18593025,7.787364
1570726903,-0.4530182,10.769424,5.051956,-0.57888794,0.59861755,0.5812073,3.8156734,-0.18593025,7.787364
1570726903,-0.4530182,10.769424,5.051956,-0.57888794,0.59861755,0.5812073,3.8156734,-0.18593025,7.787364
1570726903,-0.4530182,10.769424,5.051956,-0.57888794,0.59861755,0.5812073,3.8156734,-0.18593025,7.787364
1570726903,-0.4530182,10.769424,5.051956,-0.57888794,0.59861755,0.5812073,3.8156734,-0.18593025,7.787364
1570726903,-0.4530182,10.769424,5.051956,-0.57888794,0.59861755,0.5812073,3.8156734,-0.18593025,7.787364
1570726903,-0.4530182,10.769424,5.051956,-0.57888794,0.59861755,0.5812073,3.8156734,-0.18593025,7.787364
1570726903,-0.4530182,10.769424,5.051956,-0.57888794,0.59861755,0.5812073,3.8156734,-0.18593025,7.787364
1570726903,-0.4530182,10.769424,5.051956,-0.57888794,0.59861755,0.5812073,3.8156734,-0.18593025,7.787364
1570726903,-0.4530182,10.769424,5.051956,-0.57888794,0.59861755,0.5812073,3.8156734,-0.18593025,7.787364
1570726903,-0.4530182,10.769424,5.051956,-0.57888794,0.59861755,0.5812073,3.8156734,-0.18593025,7.787364
1570726903,-0.4530182,10.769424,5.051956,-0.57888794,0.59861755,0.5812073,3.8156734,-0.18593025,7.787364
1570726903,-0.4530182,10.769424,5.051956,-0.57888794,0.59861755,0.5812073,3.8156734,-0.18593025,7.787364
1570726903,-0.4530182,10.769424,5.051956,-0.57888794,0.59861755,0.5812073,3.8156734,-0.18593025,7.787364
1570726903,-0.4530182,10.769424,5.051956,-0.57888794,0.59861755,0.5812073,3.8156734,-0.18593025,7.787364
1570726903,-0.4530182,10.769424,5.051956,-0.57888794,0.59861755,0.5812073,3.8156734,-0.18593025,7.787364
1570726903,-0.4530182,10.769424,5.051956,-0.57888794,0.59861755,0.5812073,3.8156734,-0.18593025,7.787364
1570726903,-0.4530182,10.769424,5.051956,-0.57888794,0.59861755,0.5812073,3.8156734,-0.18593025,7.787364
1570726903,-0.4530182,10.769424,5.051956,-0.57888794,0.59861755,0.5812073,3.8156734,-0.18593025,7.787364
1570726903,-0.4530182,10.769424,5.051956,-0.57888794,0.59861755,0.5812073,3.8156734,-0.18593025,7.787364
1570726903,-0.4530182,10.769424,5.051956,-0.57888794,0.59861755,0.5812073,3.8156734,-0.18593025,7.787364
1570726903,-0.4530182,10.769424,5.051956,-0.57888794,0.59861755,0.5812073,3.8156734,-0.18593025,7.787364
1570726903,-0.4530182,10.769424,5.051956,-0.57888794,0.59861755,0.5812073,3.8156734,-0.18593025,7.787364
1570726903,-0.4530182,10.769424,5.051956,-0.57888794,0.59861755,0.5812073,3.8156734,-0.18593025,7.787364
1570726903,-0.4530182,10.769424,5.051956,-0.57888794,0.59861755,0.5812073,3.8156734,-0.18593025,7.787364
1570726903,-0.4530182,10.769424,5.051956,-0.57888794,0.59861755,0.5812073,3.8156734,-0.18593025,7.787364
1570726903,-0.4530182,10.769424,5.051956,-0.57888794,0.59861755,0.5812073,3.8156734,-0.18593025,7.787364
1570726903,-0.4530182,10.769424,5.051956,-0.57888794,0.59861755,0.5812073,3.8156734,-0.18593025,7.787364
1570726903,-0.4530182,10.769424,5.051956,-0.57888794,0.59861755,0.5812073,3.8156734,-0.18593025,7.787364
1570726903,-0.4530182,10.769424,5.051956,-0.57888794,0.59861755,0.5812073,3.8156734,-0.18593025,7.787364
1570726903,-0.4530182,10.769424,5.051956,-0.57888794,0.59861755,0.5812073,3.8156734,-0.18593025,7.787364
1570726903,-0.4530182,10.769424,5.051956,-0.57888794,0.59861755,0.5812073,3.8156734,-0.18593025,7.787364
1570726903,-0.4530182,10.769424,5.051956,-0.57888794,0.59861755,0.5812073,3.8156734,-0.18593025,7.787364
1570726903,-0.4530182,10.769424,5.051956,-0.57888794,0.59861755,0.5812073,3.8156734,-0.18593025,7.787364
1570726903,-0.4530182,10.769424,5.051956,-0.57888794,0.59861755,0.5812073,3.8156734,-0.18593025,7.787364
1570726903,-0.4530182,10.769424,5.051956,-0.57888794,0.59861755,0.5812073,3.8156734,-0.18593025,7.787364
1570726903,-0.4530182,10.769424,5.051956,-0.57888794,0.59861755,0.5812073,3.8156734,-0.18593025,7.787364
1570726903,-0.4530182,10.769424,5.051956,-0.57888794,0.59861755,0.5812073,3.8156734,-0.18593025,7.787364
1570726903,-0.4530182,10.769424,5.051956,-0.57888794,0.59861755,0.5812073,3.8156734,-0.18593025,7.787364
1570726903,-0.4530182,10.769424,5.051956,-0.57888794,0.59861755,0.5812073,3.8156734,-0.18593025,7.787364
1570726903,-0.4530182,10.769424,5.051956,-0.57888794,0.59861755,0.5812073,3.8156734,-0.18593025,7.787364
1570726903,-0.4530182,10.769424,5.051956,-0.57888794,0.59861755,0.5812073,3.8156734,-0.18593025,7.787364
1570726903,-0.4530182,10.769424,5.051956,-0.57888794,0.59861755,0.5812073,3.8156734,-0.18593025,7.787364
1570726903,-0.4530182,10.769424,5.051956,-0.57888794,0.59861755,0.5812073,3.8156734,-0.18593025,7.787364
1570726903,-0.4530182,10.769424,5.051956,-0.57888794,0.59861755,0.5812073,3.8156734,-0.18593025,7.787364
1570726903,-0.4530182,10.769424,5.051956,-0.57888794,0.59861755,0.5812073,3.8156734,-0.18593025,7.787364
1570726903,-0.4530182,10.769424,5.051956,-0.57888794,0.59861755,0.5812073,3.8156734,-0.18593025,7.787364
1570726903,-0.4530182,10.769424,5.051956,-0.57888794,0.59861755,0.5812073,3.8156734,-0.18593025,7.787364
1570726903,-0.4530182,10.769424,5.051956,-0.57888794,0.59861755,0.5812073,3.8156734,-0.18593025,7.787364
1570726903,-0.4530182,10.769424,5.051956,-0.57888794,0.59861755,0.5812073,3.8156734,-0.18593025,7.787364
1570726903,-0.4530182,10.769424,5.051956,-0.57888794,0.59861755,0.5812073,3.8156734,-0.18593025,7.787364
1570726903,-0.4530182,10.769424,5.051956,-0.57888794,0.59861755,0.5812073,3.8156734,-0.18593025,7.787364
1570726903,-0.4530182,10.769424,5.051956,-0.57888794,0.59861755,0.5812073,3.8156734,-0.18593025,7.787364
1570726903,-0.4530182,10.769424,5.051956,-0.57888794,0.59861755,0.5812073,3.8156734,-0.18593025,7.787364
1570726903,-0.4530182,10.769424,5.051956,-0.57888794,0.59861755,0.5812073,3.8156734,-0.18593025,7.787364
1570726903,-0.4530182,10.769424,5.051956,-0.57888794,0.59861755,0.5812073,3.8156734,-0.18593025,7.787364
1570726903,-0.4530182,10.769424,5.051956,-0.57888794,0.59861755,0.5812073,3.8156734,-0.18593025,7.787364
1570726903,-0.4530182,10.769424,5.051956,-0.57888794,0.59861755,0.5812073,3.8156734,-0.18593025,7.787364
1570726903,-0.4530182,10.769424,5.051956,-0.57888794,0.59861755,0.5812073,3.8156734,-0.18593025,7.787364
1570726903,-0.4530182,10.769424,5.051956,-0.57888794,0.59861755,0.5812073,3.8156734,-0.18593025,7.787364
1570726903,-0.4530182,10.769424,5.051956,-0.57888794,0.59861755,0.5812073,3.8156734,-0.18593025,7.787364
1570726903,-0.4530182,10.769424,5.051956,-0.57888794,0.59861755,0.5812073,3.8156734,-0.18593025,7.787364
1570726903,-0.4530182,10.769424,5.051956,-0.57888794,0.59861755,0.5812073,3.8156734,-0.18593025,7.787364
1570726903,-0.4530182,10.769424,5.051956,-0.57888794,0.59861755,0.5812073,3.8156734,-0.18593025,7.787364
1570726903,-0.4530182,10.769424,5.051956,-0.57888794,0.59861755,0.5812073,3.8156734,-0.18593025,7.787364
1570726903,-0.4530182,10.769424,5.051956,-0.57888794,0.59861755,0.5812073,3.8156734,-0.18593025,7.787364
1570726903,-0.4530182,10.769424,5.051956,-0.57888794,0.59861755,0.5812073,3.8156734,-0.18593025,7.787364
1570726903,-0.4530182,10.769424,5.051956,-0.57888794,0.59861755,0.5812073,3.8156734,-0.18593025,7.787364
1570726903,-0.4530182,10.769424,5.051956,-0.57888794,0.59861755,0.5812073,3.8156734,-0.18593025,7.787364
1570726903,-0.4530182,10.769424,5.051956,-0.57888794,0.59861755,0.5812073,3.8156734,-0.18593025,7.787364
1570726903,-0.4530182,10.769424,5.051956,-0.57888794,0.59861755,0.5812073,3.8156734,-0.18593025,7.787364
1570726903,-0.4530182,10.769424,5.051956,-0.57888794,0.59861755,0.5812073,3.8156734,-0.18593025,7.787364
1570726903,-0.4530182,10.769424,5.051956,-0.57888794,0.59861755,0.5812073,3.8156734,-0.18593025,7.787364
1570726903,-0.4530182,10.769424,5.051956,-0.57888794,0.59861755,0.5812073,3.8156734,-0.18593025,7.787364
1570726903,-0.4530182,10.769424,5.051956,-0.57888794,0.59861755,0.5812073,3.8156734,-0.18593025,7.787364
1570726903,-0.4530182,10.769424,5.051956,-0.57888794,0.59861755,0.5812073,3.8156734,-0.18593025,7.787364
1570726903,-0.4530182,10.769424,5.051956,-0.57888794,0.59861755,0.5812073,3.8156734,-0.18593025,7.787364
1570726903,-0.4530182,10.769424,5.051956,-0.57888794,0.59861755,0.5812073,3.8156734,-0.18593025,7.787364
1570726903,-0.4530182,10.769424,5.051956,-0.57888794,0.59861755,0.5812073,3.8156734,-0.18593025,7.787364
1570726903,-0.4530182,10.769424,5.051956,-0.57888794,0.59861755,0.5812073,3.8156734,-0.18593025,7.787364
1570726904,-0.4530182,10.769424,5.051956,-0.57888794,0.59861755,0.5812073,3.8156734,-0.18593025,7.787364
1570726904,-0.4530182,10.769424,5.051956,-0.57888794,0.59861755,0.5812073,3.8156734,-0.18593025,7.787364
1570726904,-0.4530182,10.769424,5.051956,-0.57888794,0.59861755,0.5812073,3.8156734,-0.18593025,7.787364
1570726904,-0.4530182,10.769424,5.051956,-0.57888794,0.59861755,0.5812073,3.8156734,-0.18593025,7.787364
1570726904,-0.4530182,10.769424,5.051956,-0.57888794,0.59861755,0.5812073,3.8156734,-0.18593025,7.787364
1570726904,-0.4530182,10.769424,5.051956,-0.57888794,0.59861755,0.5812073,3.8156734,-0.18593025,7.787364
1570726904,-0.4530182,10.769424,5.051956,-0.57888794,0.59861755,0.5812073,3.8156734,-0.18593025,7.787364
1570726904,-0.4530182,10.769424,5.051956,-0.57888794,0.59861755,0.5812073,3.8156734,-0.18593025,7.787364
1570726904,-0.4530182,10.769424,5.051956,-0.57888794,0.59861755,0.5812073,3.8156734,-0.18593025,7.787364
1570726904,-0.4530182,10.769424,5.051956,-0.57888794,0.59861755,0.5812073,3.8156734,-0.18593025,7.787364
1570726904,-0.4530182,10.769424,5.051956,-0.57888794,0.59861755,0.5812073,3.8156734,-0.18593025,7.787364
1570726904,-0.4530182,10.769424,5.051956,-0.57888794,0.59861755,0.5812073,3.8156734,-0.18593025,7.787364
1570726904,-0.4530182,10.769424,5.051956,-0.57888794,0.59861755,0.5812073,3.8156734,-0.18593025,7.787364
1570726904,-0.4530182,10.769424,5.051956,-0.57888794,0.59861755,0.5812073,3.8156734,-0.18593025,7.787364
1570726904,-0.4530182,10.769424,5.051956,-0.57888794,0.59861755,0.5812073,3.8156734,-0.18593025,7.787364
1570726904,-0.4530182,10.769424,5.051956,-0.57888794,0.59861755,0.5812073,3.8156734,-0.18593025,7.787364
1570726904,-0.4530182,10.769424,5.051956,-0.57888794,0.59861755,0.5812073,3.8156734,-0.18593025,7.787364
1570726904,-0.4530182,10.769424,5.051956,-0.57888794,0.59861755,0.5812073,3.8156734,-0.18593025,7.787364
1570726904,-0.4530182,10.769424,5.051956,-0.57888794,0.59861755,0.5812073,3.8156734,-0.18593025,7.787364
1570726904,-0.4530182,10.769424,5.051956,-0.57888794,0.59861755,0.5812073,3.8156734,-0.18593025,7.787364
1570726904,-0.4530182,10.769424,5.051956,-0.57888794,0.59861755,0.5812073,3.8156734,-0.18593025,7.787364
1570726904,-0.4530182,10.769424,5.051956,-0.57888794,0.59861755,0.5812073,3.8156734,-0.18593025,7.787364
1570726904,-0.4530182,10.769424,5.051956,-0.57888794,0.59861755,0.5812073,3.8156734,-0.18593025,7.787364
1570726904,-0.4530182,10.769424,5.051956,-0.57888794,0.59861755,0.5812073,3.8156734,-0.18593025,7.787364
1570726904,-0.4530182,10.769424,5.051956,-0.57888794,0.59861755,0.5812073,3.8156734,-0.18593025,7.787364
1570726904,-0.4530182,10.769424,5.051956,-0.57888794,0.59861755,0.5812073,3.8156734,-0.18593025,7.787364
1570726904,-0.4530182,10.769424,5.051956,-0.57888794,0.59861755,0.5812073,3.8156734,-0.18593025,7.787364
1570726904,-0.4530182,10.769424,5.051956,-0.57888794,0.59861755,0.5812073,3.8156734,-0.18593025,7.787364
1570726904,-0.4530182,10.769424,5.051956,-0.57888794,0.59861755,0.5812073,3.8156734,-0.18593025,7.787364
1570726904,-0.4530182,10.769424,5.051956,-0.57888794,0.59861755,0.5812073,3.8156734,-0.18593025,7.787364
1570726904,-0.4530182,10.769424,5.051956,-0.57888794,0.59861755,0.5812073,3.8156734,-0.18593025,7.787364
1570726904,-0.4530182,10.769424,5.051956,-0.57888794,0.59861755,0.5812073,3.8156734,-0.18593025,7.787364
1570726904,-0.4530182,10.769424,5.051956,-0.57888794,0.59861755,0.5812073,3.8156734,-0.18593025,7.787364
1570726904,-0.4530182,10.769424,5.051956,-0.57888794,0.59861755,0.5812073,3.8156734,-0.18593025,7.787364
1570726904,-0.4530182,10.769424,5.051956,-0.57888794,0.59861755,0.5812073,3.8156734,-0.18593025,7.787364
1570726904,-0.4530182,10.769424,5.051956,-0.57888794,0.59861755,0.5812073,3.8156734,-0.18593025,7.787364
1570726904,-0.4530182,10.769424,5.051956,-0.57888794,0.59861755,0.5812073,3.8156734,-0.18593025,7.787364
1570726904,-0.4530182,10.769424,5.051956,-0.57888794,0.59861755,0.5812073,3.8156734,-0.18593025,7.787364
1570726905,-0.4530182,10.769424,5.051956,-0.57888794,0.59861755,0.5812073,3.8156734,-0.18593025,7.787364
1570726905,-0.4530182,10.769424,5.051956,-0.57888794,0.59861755,0.5812073,3.8156734,-0.18593025,7.787364
1570726905,-0.4530182,10.769424,5.051956,-0.57888794,0.59861755,0.5812073,3.8156734,-0.18593025,7.787364
1570726905,-0.4530182,10.769424,5.051956,-0.57888794,0.59861755,0.5812073,3.8156734,-0.18593025,7.787364
1570726906,-0.4530182,10.769424,5.051956,-0.57888794,0.59861755,0.5812073,3.8156734,-0.18593025,7.787364
1570726906,-0.4530182,10.769424,5.051956,-0.57888794,0.59861755,0.5812073,3.8156734,-0.18593025,7.787364
1570726906,-0.4530182,10.769424,5.051956,-0.57888794,0.59861755,0.5812073,3.8156734,-0.18593025,7.787364
1570726906,-0.4530182,10.769424,5.051956,-0.57888794,0.59861755,0.5812073,3.8156734,-0.18593025,7.787364
1570726906,-0.4530182,10.769424,5.051956,-0.57888794,0.59861755,0.5812073,3.8156734,-0.18593025,7.787364
1570726906,-0.4530182,10.769424,5.051956,-0.57888794,0.59861755,0.5812073,3.8156734,-0.18593025,7.787364
1570726906,-0.4530182,10.769424,5.051956,-0.57888794,0.59861755,0.5812073,3.8156734,-0.18593025,7.787364
1570726906,-0.4530182,10.769424,5.051956,-0.57888794,0.59861755,0.5812073,3.8156734,-0.18593025,7.787364
1570726906,-0.4530182,10.769424,5.051956,-0.57888794,0.59861755,0.5812073,3.8156734,-0.18593025,7.787364
1570726906,-0.4530182,10.769424,5.051956,-0.57888794,0.59861755,0.5812073,3.8156734,-0.18593025,7.787364
1570726906,-0.4530182,10.769424,5.051956,-0.57888794,0.59861755,0.5812073,3.8156734,-0.18593025,7.787364
1570726906,-0.4530182,10.769424,5.051956,-0.57888794,0.59861755,0.5812073,3.8156734,-0.18593025,7.787364
1570726906,-0.4530182,10.769424,5.051956,-0.57888794,0.59861755,0.5812073,3.8156734,-0.18593025,7.787364
1570726906,-0.4530182,10.769424,5.051956,-0.57888794,0.59861755,0.5812073,3.8156734,-0.18593025,7.787364
1570726906,-0.4530182,10.769424,5.051956,-0.57888794,0.59861755,0.5812073,3.8156734,-0.18593025,7.787364
1570726906,-0.4530182,10.769424,5.051956,-0.57888794,0.59861755,0.5812073,3.8156734,-0.18593025,7.787364
1570726906,-0.4530182,10.769424,5.051956,-0.57888794,0.59861755,0.5812073,3.8156734,-0.18593025,7.787364
1570726906,-0.4530182,10.769424,5.051956,-0.57888794,0.59861755,0.5812073,3.8156734,-0.18593025,7.787364
1570726906,-0.4530182,10.769424,5.051956,-0.57888794,0.59861755,0.5812073,3.8156734,-0.18593025,7.787364
1570726906,-0.4530182,10.769424,5.051956,-0.57888794,0.59861755,0.5812073,3.8156734,-0.18593025,7.787364
1570726906,-0.4530182,10.769424,5.051956,-0.57888794,0.59861755,0.5812073,3.8156734,-0.18593025,7.787364
1570726906,-0.4530182,10.769424,5.051956,-0.57888794,0.59861755,0.5812073,3.8156734,-0.18593025,7.787364
1570726906,-0.4530182,10.769424,5.051956,-0.57888794,0.59861755,0.5812073,3.8156734,-0.18593025,7.787364
1570726906,-0.4530182,10.769424,5.051956,-0.57888794,0.59861755,0.5812073,3.8156734,-0.18593025,7.787364
1570726906,-0.4530182,10.769424,5.051956,-0.57888794,0.59861755,0.5812073,3.8156734,-0.18593025,7.787364
1570726906,-0.4530182,10.769424,5.051956,-0.57888794,0.59861755,0.5812073,3.8156734,-0.18593025,7.787364
1570726906,-0.4530182,10.769424,5.051956,-0.57888794,0.59861755,0.5812073,3.8156734,-0.18593025,7.787364
1570726906,-0.4530182,10.769424,5.051956,-0.57888794,0.59861755,0.5812073,3.8156734,-0.18593025,7.787364
1570726906,-0.4530182,10.769424,5.051956,-0.57888794,0.59861755,0.5812073,3.8156734,-0.18593025,7.787364
1570726906,-0.4530182,10.769424,5.051956,-0.57888794,0.59861755,0.5812073,3.8156734,-0.18593025,7.787364
1570726906,-0.4530182,10.769424,5.051956,-0.57888794,0.59861755,0.5812073,3.8156734,-0.18593025,7.787364
1570726906,-0.4530182,10.769424,5.051956,-0.57888794,0.59861755,0.5812073,3.8156734,-0.18593025,7.787364
1570726906,-0.4530182,10.769424,5.051956,-0.57888794,0.59861755,0.5812073,3.8156734,-0.18593025,7.787364
1570726906,-0.4530182,10.769424,5.051956,-0.57888794,0.59861755,0.5812073,3.8156734,-0.18593025,7.787364
1570726906,-0.4530182,10.769424,5.051956,-0.57888794,0.59861755,0.5812073,3.8156734,-0.18593025,7.787364
1570726906,-0.4530182,10.769424,5.051956,-0.57888794,0.59861755,0.5812073,3.8156734,-0.18593025,7.787364
1570726906,-0.4530182,10.769424,5.051956,-0.57888794,0.59861755,0.5812073,3.8156734,-0.18593025,7.787364
1570726906,-0.4530182,10.769424,5.051956,-0.57888794,0.59861755,0.5812073,3.8156734,-0.18593025,7.787364
1570726906,-0.4530182,10.769424,5.051956,-0.57888794,0.59861755,0.5812073,3.8156734,-0.18593025,7.787364
1570726906,-0.4530182,10.769424,5.051956,-0.57888794,0.59861755,0.5812073,3.8156734,-0.18593025,7.787364
1570726906,-0.4530182,10.769424,5.051956,-0.57888794,0.59861755,0.5812073,3.8156734,-0.18593025,7.787364
1570726906,-0.4530182,10.769424,5.051956,-0.57888794,0.59861755,0.5812073,3.8156734,-0.18593025,7.787364
1570726906,-0.4530182,10.769424,5.051956,-0.57888794,0.59861755,0.5812073,3.8156734,-0.18593025,7.787364
1570726906,-0.4530182,10.769424,5.051956,-0.57888794,0.59861755,0.5812073,3.8156734,-0.18593025,7.787364
1570726906,-0.4530182,10.769424,5.051956,-0.57888794,0.59861755,0.5812073,3.8156734,-0.18593025,7.787364
1570726916,-0.4530182,10.769424,5.051956,-0.57888794,0.59861755,0.5812073,3.8156734,-0.18593025,7.787364
1570726916,-0.4530182,10.769424,5.051956,-0.57888794,0.59861755,0.5812073,3.8156734,-0.18593025,7.787364
1570726916,-0.4530182,10.769424,5.051956,-0.57888794,0.59861755,0.5812073,3.8156734,-0.18593025,7.787364
1570726916,-0.4530182,10.769424,5.051956,-0.57888794,0.59861755,0.5812073,3.8156734,-0.18593025,7.787364
1570726916,-0.4530182,10.769424,5.051956,-0.57888794,0.59861755,0.5812073,3.8156734,-0.18593025,7.787364
1570726916,-0.4530182,10.769424,5.051956,-0.57888794,0.59861755,0.5812073,3.8156734,-0.18593025,7.787364
1570726916,-0.4530182,10.769424,5.051956,-0.57888794,0.59861755,0.5812073,3.8156734,-0.18593025,7.787364
1570726916,-0.4530182,10.769424,5.051956,-0.57888794,0.59861755,0.5812073,3.8156734,-0.18593025,7.787364
1570726916,-0.4530182,10.769424,5.051956,-0.57888794,0.59861755,0.5812073,3.8156734,-0.18593025,7.787364
1570726916,-0.4530182,10.769424,5.051956,-0.57888794,0.59861755,0.5812073,3.8156734,-0.18593025,7.787364
1570726916,-0.4530182,10.769424,5.051956,-0.57888794,0.59861755,0.5812073,3.8156734,-0.18593025,7.787364
1570726916,-0.4530182,10.769424,5.051956,-0.57888794,0.59861755,0.5812073,3.8156734,-0.18593025,7.787364
1570726916,-0.4530182,10.769424,5.051956,-0.57888794,0.59861755,0.5812073,3.8156734,-0.18593025,7.787364
1570726916,-0.4530182,10.769424,5.051956,-0.57888794,0.59861755,0.5812073,3.8156734,-0.18593025,7.787364
1570726916,-0.4530182,10.769424,5.051956,-0.57888794,0.59861755,0.5812073,3.8156734,-0.18593025,7.787364
1570726916,-0.4530182,10.769424,5.051956,-0.57888794,0.59861755,0.5812073,3.8156734,-0.18593025,7.787364
1570726916,-0.4530182,10.769424,5.051956,-0.57888794,0.59861755,0.5812073,3.8156734,-0.18593025,7.787364
1570726916,-0.4530182,10.769424,5.051956,-0.57888794,0.59861755,0.5812073,3.8156734,-0.18593025,7.787364
1570726916,-0.4530182,10.769424,5.051956,-0.57888794,0.59861755,0.5812073,3.8156734,-0.18593025,7.787364
1570726916,-0.4530182,10.769424,5.051956,-0.57888794,0.59861755,0.5812073,3.8156734,-0.18593025,7.787364
1570726916,-0.4530182,10.769424,5.051956,-0.57888794,0.59861755,0.5812073,3.8156734,-0.18593025,7.787364
1570726916,-0.4530182,10.769424,5.051956,-0.57888794,0.59861755,0.5812073,3.8156734,-0.18593025,7.787364
1570726916,-0.4530182,10.769424,5.051956,-0.57888794,0.59861755,0.5812073,3.8156734,-0.18593025,7.787364
1570726916,-0.4530182,10.769424,5.051956,-0.57888794,0.59861755,0.5812073,3.8156734,-0.18593025,7.787364
1570726916,-0.4530182,10.769424,5.051956,-0.57888794,0.59861755,0.5812073,3.8156734,-0.18593025,7.787364
1570726916,-0.4530182,10.769424,5.051956,-0.57888794,0.59861755,0.5812073,3.8156734,-0.18593025,7.787364
1570726916,-0.4530182,10.769424,5.051956,-0.57888794,0.59861755,0.5812073,3.8156734,-0.18593025,7.787364
1570726916,-0.4530182,10.769424,5.051956,-0.57888794,0.59861755,0.5812073,3.8156734,-0.18593025,7.787364
1570726916,-0.4530182,10.769424,5.051956,-0.57888794,0.59861755,0.5812073,3.8156734,-0.18593025,7.787364
1570726916,-0.4530182,10.769424,5.051956,-0.57888794,0.59861755,0.5812073,3.8156734,-0.18593025,7.787364
1570726916,-0.4530182,10.769424,5.051956,-0.57888794,0.59861755,0.5812073,3.8156734,-0.18593025,7.787364
1570726916,-0.4530182,10.769424,5.051956,-0.57888794,0.59861755,0.5812073,3.8156734,-0.18593025,7.787364
1570726916,-0.4530182,10.769424,5.051956,-0.57888794,0.59861755,0.5812073,3.8156734,-0.18593025,7.787364
1570726916,-0.4530182,10.769424,5.051956,-0.57888794,0.59861755,0.5812073,3.8156734,-0.18593025,7.787364
1570726916,-0.4530182,10.769424,5.051956,-0.57888794,0.59861755,0.5812073,3.8156734,-0.18593025,7.787364
1570726916,-0.4530182,10.769424,5.051956,-0.57888794,0.59861755,0.5812073,3.8156734,-0.18593025,7.787364
1570726916,-0.4530182,10.769424,5.051956,-0.57888794,0.59861755,0.5812073,3.8156734,-0.18593025,7.787364
1570726916,-0.4530182,10.769424,5.051956,-0.57888794,0.59861755,0.5812073,3.8156734,-0.18593025,7.787364
1570726916,-0.4530182,10.769424,5.051956,-0.57888794,0.59861755,0.5812073,3.8156734,-0.18593025,7.787364
1570726916,-0.4530182,10.769424,5.051956,-0.57888794,0.59861755,0.5812073,3.8156734,-0.18593025,7.787364
1570726916,-0.4530182,10.769424,5.051956,-0.57888794,0.59861755,0.5812073,3.8156734,-0.18593025,7.787364
1570726916,-0.4530182,10.769424,5.051956,-0.57888794,0.59861755,0.5812073,3.8156734,-0.18593025,7.787364
1570726916,-0.4530182,10.769424,5.051956,-0.57888794,0.59861755,0.5812073,3.8156734,-0.18593025,7.787364
1570726916,-0.4530182,10.769424,5.051956,-0.57888794,0.59861755,0.5812073,3.8156734,-0.18593025,7.787364
1570726916,-0.4530182,10.769424,5.051956,-0.57888794,0.59861755,0.5812073,3.8156734,-0.18593025,7.787364
1570726916,-0.4530182,10.769424,5.051956,-0.57888794,0.59861755,0.5812073,3.8156734,-0.18593025,7.787364
1570726916,-0.4530182,10.769424,5.051956,-0.57888794,0.59861755,0.5812073,3.8156734,-0.18593025,7.787364
1570726916,-0.4530182,10.769424,5.051956,-0.57888794,0.59861755,0.5812073,3.8156734,-0.18593025,7.787364
1570726916,-0.4530182,10.769424,5.051956,-0.57888794,0.59861755,0.5812073,3.8156734,-0.18593025,7.787364
1570726916,-0.4530182,10.769424,5.051956,-0.57888794,0.59861755,0.5812073,3.8156734,-0.18593025,7.787364
1570726916,-0.4530182,10.769424,5.051956,-0.57888794,0.59861755,0.5812073,3.8156734,-0.18593025,7.787364
1570726916,-0.4530182,10.769424,5.051956,-0.57888794,0.59861755,0.5812073,3.8156734,-0.18593025,7.787364
1570726916,-0.4530182,10.769424,5.051956,-0.57888794,0.59861755,0.5812073,3.8156734,-0.18593025,7.787364
1570726916,-0.4530182,10.769424,5.051956,-0.57888794,0.59861755,0.5812073,3.8156734,-0.18593025,7.787364
1570726916,-0.4530182,10.769424,5.051956,-0.57888794,0.59861755,0.5812073,3.8156734,-0.18593025,7.787364
1570726916,-0.4530182,10.769424,5.051956,-0.57888794,0.59861755,0.5812073,3.8156734,-0.18593025,7.787364
1570726916,-0.4530182,10.769424,5.051956,-0.57888794,0.59861755,0.5812073,3.8156734,-0.18593025,7.787364
1570726916,-0.4530182,10.769424,5.051956,-0.57888794,0.59861755,0.5812073,3.8156734,-0.18593025,7.787364
1570726916,-0.4530182,10.769424,5.051956,-0.57888794,0.59861755,0.5812073,3.8156734,-0.18593025,7.787364
1570726916,-0.4530182,10.769424,5.051956,-0.57888794,0.59861755,0.5812073,3.8156734,-0.18593025,7.787364
1570726916,-0.4530182,10.769424,5.051956,-0.57888794,0.59861755,0.5812073,3.8156734,-0.18593025,7.787364
1570726916,-0.4530182,10.769424,5.051956,-0.57888794,0.59861755,0.5812073,3.8156734,-0.18593025,7.787364
1570726916,-0.4530182,10.769424,5.051956,-0.57888794,0.59861755,0.5812073,3.8156734,-0.18593025,7.787364
1570726916,-0.4530182,10.769424,5.051956,-0.57888794,0.59861755,0.5812073,3.8156734,-0.18593025,7.787364
1570726916,-0.4530182,10.769424,5.051956,-0.57888794,0.59861755,0.5812073,3.8156734,-0.18593025,7.787364
1570726916,-0.4530182,10.769424,5.051956,-0.57888794,0.59861755,0.5812073,3.8156734,-0.18593025,7.787364
1570726916,-0.4530182,10.769424,5.051956,-0.57888794,0.59861755,0.5812073,3.8156734,-0.18593025,7.787364
1570726916,-0.4530182,10.769424,5.051956,-0.57888794,0.59861755,0.5812073,3.8156734,-0.18593025,7.787364
1570726916,-0.4530182,10.769424,5.051956,-0.57888794,0.59861755,0.5812073,3.8156734,-0.18593025,7.787364
1570726916,-0.4530182,10.769424,5.051956,-0.57888794,0.59861755,0.5812073,3.8156734,-0.18593025,7.787364
1570726916,-0.4530182,10.769424,5.051956,-0.57888794,0.59861755,0.5812073,3.8156734,-0.18593025,7.787364
1570726916,-0.4530182,10.769424,5.051956,-0.57888794,0.59861755,0.5812073,3.8156734,-0.18593025,7.787364
1570726916,-0.4530182,10.769424,5.051956,-0.57888794,0.59861755,0.5812073,3.8156734,-0.18593025,7.787364
1570726916,-0.4530182,10.769424,5.051956,-0.57888794,0.59861755,0.5812073,3.8156734,-0.18593025,7.787364
1570726916,-0.4530182,10.769424,5.051956,-0.57888794,0.59861755,0.5812073,3.8156734,-0.18593025,7.787364
1570726916,-0.4530182,10.769424,5.051956,-0.57888794,0.59861755,0.5812073,3.8156734,-0.18593025,7.787364
1570726916,-0.4530182,10.769424,5.051956,-0.57888794,0.59861755,0.5812073,3.8156734,-0.18593025,7.787364
1570726916,-0.4530182,10.769424,5.051956,-0.57888794,0.59861755,0.5812073,3.8156734,-0.18593025,7.787364
1570726916,-0.4530182,10.769424,5.051956,-0.57888794,0.59861755,0.5812073,3.8156734,-0.18593025,7.787364
1570726916,-0.4530182,10.769424,5.051956,-0.57888794,0.59861755,0.5812073,3.8156734,-0.18593025,7.787364
1570726916,-0.4530182,10.769424,5.051956,-0.57888794,0.59861755,0.5812073,3.8156734,-0.18593025,7.787364
1570726916,-0.4530182,10.769424,5.051956,-0.57888794,0.59861755,0.5812073,3.8156734,-0.18593025,7.787364
1570726916,-0.4530182,10.769424,5.051956,-0.57888794,0.59861755,0.5812073,3.8156734,-0.18593025,7.787364
1570726916,-0.4530182,10.769424,5.051956,-0.57888794,0.59861755,0.5812073,3.8156734,-0.18593025,7.787364
1570726916,-0.4530182,10.769424,5.051956,-0.57888794,0.59861755,0.5812073,3.8156734,-0.18593025,7.787364
1570726916,-0.4530182,10.769424,5.051956,-0.57888794,0.59861755,0.5812073,3.8156734,-0.18593025,7.787364
1570726916,-0.4530182,10.769424,5.051956,-0.57888794,0.59861755,0.5812073,3.8156734,-0.18593025,7.787364
1570726916,-0.4530182,10.769424,5.051956,-0.57888794,0.59861755,0.5812073,3.8156734,-0.18593025,7.787364
1570726916,-0.4530182,10.769424,5.051956,-0.57888794,0.59861755,0.5812073,3.8156734,-0.18593025,7.787364
1570726916,-0.4530182,10.769424,5.051956,-0.57888794,0.59861755,0.5812073,3.8156734,-0.18593025,7.787364
1570726916,-0.4530182,10.769424,5.051956,-0.57888794,0.59861755,0.5812073,3.8156734,-0.18593025,7.787364
1570726916,-0.4530182,10.769424,5.051956,-0.57888794,0.59861755,0.5812073,3.8156734,-0.18593025,7.787364
1570726916,-0.4530182,10.769424,5.051956,-0.57888794,0.59861755,0.5812073,3.8156734,-0.18593025,7.787364
1570726916,-0.4530182,10.769424,5.051956,-0.57888794,0.59861755,0.5812073,3.8156734,-0.18593025,7.787364
1570726916,-0.4530182,10.769424,5.051956,-0.57888794,0.59861755,0.5812073,3.8156734,-0.18593025,7.787364
1570726916,-0.4530182,10.769424,5.051956,-0.57888794,0.59861755,0.5812073,3.8156734,-0.18593025,7.787364
1570726916,-0.4530182,10.769424,5.051956,-0.57888794,0.59861755,0.5812073,3.8156734,-0.18593025,7.787364
1570726916,-0.4530182,10.769424,5.051956,-0.57888794,0.59861755,0.5812073,3.8156734,-0.18593025,7.787364
1570726916,-0.4530182,10.769424,5.051956,-0.57888794,0.59861755,0.5812073,3.8156734,-0.18593025,7.787364
1570726916,-0.4530182,10.769424,5.051956,-0.57888794,0.59861755,0.5812073,3.8156734,-0.18593025,7.787364
1570726916,-0.4530182,10.769424,5.051956,-0.57888794,0.59861755,0.5812073,3.8156734,-0.18593025,7.787364
1570726916,-0.4530182,10.769424,5.051956,-0.57888794,0.59861755,0.5812073,3.8156734,-0.18593025,7.787364
1570726916,-0.4530182,10.769424,5.051956,-0.57888794,0.59861755,0.5812073,3.8156734,-0.18593025,7.787364
1570726916,-0.4530182,10.769424,5.051956,-0.57888794,0.59861755,0.5812073,3.8156734,-0.18593025,7.787364
1570726916,-0.4530182,10.769424,5.051956,-0.57888794,0.59861755,0.5812073,3.8156734,-0.18593025,7.787364
1570726916,-0.4530182,10.769424,5.051956,-0.57888794,0.59861755,0.5812073,3.8156734,-0.18593025,7.787364
1570726916,-0.4530182,10.769424,5.051956,-0.57888794,0.59861755,0.5812073,3.8156734,-0.18593025,7.787364
1570726916,-0.4530182,10.769424,5.051956,-0.57888794,0.59861755,0.5812073,3.8156734,-0.18593025,7.787364
1570726916,-0.4530182,10.769424,5.051956,-0.57888794,0.59861755,0.5812073,3.8156734,-0.18593025,7.787364
1570726916,-0.4530182,10.769424,5.051956,-0.57888794,0.59861755,0.5812073,3.8156734,-0.18593025,7.787364
1570726916,-0.4530182,10.769424,5.051956,-0.57888794,0.59861755,0.5812073,3.8156734,-0.18593025,7.787364
1570726916,-0.4530182,10.769424,5.051956,-0.57888794,0.59861755,0.5812073,3.8156734,-0.18593025,7.787364
1570726916,-0.4530182,10.769424,5.051956,-0.57888794,0.59861755,0.5812073,3.8156734,-0.18593025,7.787364
1570726916,-0.4530182,10.769424,5.051956,-0.57888794,0.59861755,0.5812073,3.8156734,-0.18593025,7.787364
1570726916,-0.4530182,10.769424,5.051956,-0.57888794,0.59861755,0.5812073,3.8156734,-0.18593025,7.787364
1570726916,-0.4530182,10.769424,5.051956,-0.57888794,0.59861755,0.5812073,3.8156734,-0.18593025,7.787364
1570726916,-0.4530182,10.769424,5.051956,-0.57888794,0.59861755,0.5812073,3.8156734,-0.18593025,7.787364
1570726916,-0.4530182,10.769424,5.051956,-0.57888794,0.59861755,0.5812073,3.8156734,-0.18593025,7.787364
1570726916,-0.4530182,10.769424,5.051956,-0.57888794,0.59861755,0.5812073,3.8156734,-0.18593025,7.787364
1570726916,-0.4530182,10.769424,5.051956,-0.57888794,0.59861755,0.5812073,3.8156734,-0.18593025,7.787364
1570726916,-0.4530182,10.769424,5.051956,-0.57888794,0.59861755,0.5812073,3.8156734,-0.18593025,7.787364
1570726916,-0.4530182,10.769424,5.051956,-0.57888794,0.59861755,0.5812073,3.8156734,-0.18593025,7.787364
1570726916,-0.4530182,10.769424,5.051956,-0.57888794,0.59861755,0.5812073,3.8156734,-0.18593025,7.787364
1570726916,-0.4530182,10.769424,5.051956,-0.57888794,0.59861755,0.5812073,3.8156734,-0.18593025,7.787364
1570726916,-0.4530182,10.769424,5.051956,-0.57888794,0.59861755,0.5812073,3.8156734,-0.18593025,7.787364
1570726916,-0.4530182,10.769424,5.051956,-0.57888794,0.59861755,0.5812073,3.8156734,-0.18593025,7.787364
1570726916,-0.4530182,10.769424,5.051956,-0.57888794,0.59861755,0.5812073,3.8156734,-0.18593025,7.787364
1570726916,-0.4530182,10.769424,5.051956,-0.57888794,0.59861755,0.5812073,3.8156734,-0.18593025,7.787364
1570726916,-0.4530182,10.769424,5.051956,-0.57888794,0.59861755,0.5812073,3.8156734,-0.18593025,7.787364
1570726916,-0.4530182,10.769424,5.051956,-0.57888794,0.59861755,0.5812073,3.8156734,-0.18593025,7.787364
1570726916,-0.4530182,10.769424,5.051956,-0.57888794,0.59861755,0.5812073,3.8156734,-0.18593025,7.787364
1570726916,-0.4530182,10.769424,5.051956,-0.57888794,0.59861755,0.5812073,3.8156734,-0.18593025,7.787364
1570726916,-0.4530182,10.769424,5.051956,-0.57888794,0.59861755,0.5812073,3.8156734,-0.18593025,7.787364
1570726916,-0.4530182,10.769424,5.051956,-0.57888794,0.59861755,0.5812073,3.8156734,-0.18593025,7.787364
1570726916,-0.4530182,10.769424,5.051956,-0.57888794,0.59861755,0.5812073,3.8156734,-0.18593025,7.787364
1570726916,-0.4530182,10.769424,5.051956,-0.57888794,0.59861755,0.5812073,3.8156734,-0.18593025,7.787364
1570726916,-0.4530182,10.769424,5.051956,-0.57888794,0.59861755,0.5812073,3.8156734,-0.18593025,7.787364
1570726916,-0.4530182,10.769424,5.051956,-0.57888794,0.59861755,0.5812073,3.8156734,-0.18593025,7.787364
1570726916,-0.4530182,10.769424,5.051956,-0.57888794,0.59861755,0.5812073,3.8156734,-0.18593025,7.787364
1570726916,-0.4530182,10.769424,5.051956,-0.57888794,0.59861755,0.5812073,3.8156734,-0.18593025,7.787364
1570726916,-0.4530182,10.769424,5.051956,-0.57888794,0.59861755,0.5812073,3.8156734,-0.18593025,7.787364
1570726916,-0.4530182,10.769424,5.051956,-0.57888794,0.59861755,0.5812073,3.8156734,-0.18593025,7.787364
1570726916,-0.4530182,10.769424,5.051956,-0.57888794,0.59861755,0.5812073,3.8156734,-0.18593025,7.787364
1570726916,-0.4530182,10.769424,5.051956,-0.57888794,0.59861755,0.5812073,3.8156734,-0.18593025,7.787364
1570726916,-0.4530182,10.769424,5.051956,-0.57888794,0.59861755,0.5812073,3.8156734,-0.18593025,7.787364
1570726916,-0.4530182,10.769424,5.051956,-0.57888794,0.59861755,0.5812073,3.8156734,-0.18593025,7.787364
1570726916,-0.4530182,10.769424,5.051956,-0.57888794,0.59861755,0.5812073,3.8156734,-0.18593025,7.787364
1570726916,-0.4530182,10.769424,5.051956,-0.57888794,0.59861755,0.5812073,3.8156734,-0.18593025,7.787364
1570726916,-0.4530182,10.769424,5.051956,-0.57888794,0.59861755,0.5812073,3.8156734,-0.18593025,7.787364
1570726916,-0.4530182,10.769424,5.051956,-0.57888794,0.59861755,0.5812073,3.8156734,-0.18593025,7.787364
1570726916,-0.4530182,10.769424,5.051956,-0.57888794,0.59861755,0.5812073,3.8156734,-0.18593025,7.787364
1570726916,-0.4530182,10.769424,5.051956,-0.57888794,0.59861755,0.5812073,3.8156734,-0.18593025,7.787364
1570726916,-0.4530182,10.769424,5.051956,-0.57888794,0.59861755,0.5812073,3.8156734,-0.18593025,7.787364
1570726916,-0.4530182,10.769424,5.051956,-0.57888794,0.59861755,0.5812073,3.8156734,-0.18593025,7.787364
1570726916,-0.4530182,10.769424,5.051956,-0.57888794,0.59861755,0.5812073,3.8156734,-0.18593025,7.787364
1570726916,-0.4530182,10.769424,5.051956,-0.57888794,0.59861755,0.5812073,3.8156734,-0.18593025,7.787364
1570726916,-0.4530182,10.769424,5.051956,-0.57888794,0.59861755,0.5812073,3.8156734,-0.18593025,7.787364
1570726916,-0.4530182,10.769424,5.051956,-0.57888794,0.59861755,0.5812073,3.8156734,-0.18593025,7.787364
1570726916,-0.4530182,10.769424,5.051956,-0.57888794,0.59861755,0.5812073,3.8156734,-0.18593025,7.787364
1570726916,-0.4530182,10.769424,5.051956,-0.57888794,0.59861755,0.5812073,3.8156734,-0.18593025,7.787364
1570726916,-0.4530182,10.769424,5.051956,-0.57888794,0.59861755,0.5812073,3.8156734,-0.18593025,7.787364
1570726916,-0.4530182,10.769424,5.051956,-0.57888794,0.59861755,0.5812073,3.8156734,-0.18593025,7.787364
1570726916,-0.4530182,10.769424,5.051956,-0.57888794,0.59861755,0.5812073,3.8156734,-0.18593025,7.787364
1570726916,-0.4530182,10.769424,5.051956,-0.57888794,0.59861755,0.5812073,3.8156734,-0.18593025,7.787364
1570726916,-0.4530182,10.769424,5.051956,-0.57888794,0.59861755,0.5812073,3.8156734,-0.18593025,7.787364
1570726916,-0.4530182,10.769424,5.051956,-0.57888794,0.59861755,0.5812073,3.8156734,-0.18593025,7.787364
1570726916,-0.4530182,10.769424,5.051956,-0.57888794,0.59861755,0.5812073,3.8156734,-0.18593025,7.787364
1570726916,-0.4530182,10.769424,5.051956,-0.57888794,0.59861755,0.5812073,3.8156734,-0.18593025,7.787364
1570726916,-0.4530182,10.769424,5.051956,-0.57888794,0.59861755,0.5812073,3.8156734,-0.18593025,7.787364
1570726916,-0.4530182,10.769424,5.051956,-0.57888794,0.59861755,0.5812073,3.8156734,-0.18593025,7.787364
1570726916,-0.4530182,10.769424,5.051956,-0.57888794,0.59861755,0.5812073,3.8156734,-0.18593025,7.787364
1570726916,-0.4530182,10.769424,5.051956,-0.57888794,0.59861755,0.5812073,3.8156734,-0.18593025,7.787364
1570726916,-0.4530182,10.769424,5.051956,-0.57888794,0.59861755,0.5812073,3.8156734,-0.18593025,7.787364
1570726916,-0.4530182,10.769424,5.051956,-0.57888794,0.59861755,0.5812073,3.8156734,-0.18593025,7.787364
1570726916,-0.4530182,10.769424,5.051956,-0.57888794,0.59861755,0.5812073,3.8156734,-0.18593025,7.787364
1570726916,-0.4530182,10.769424,5.051956,-0.57888794,0.59861755,0.5812073,3.8156734,-0.18593025,7.787364
1570726916,-0.4530182,10.769424,5.051956,-0.57888794,0.59861755,0.5812073,3.8156734,-0.18593025,7.787364
1570726916,-0.4530182,10.769424,5.051956,-0.57888794,0.59861755,0.5812073,3.8156734,-0.18593025,7.787364
1570726916,-0.4530182,10.769424,5.051956,-0.57888794,0.59861755,0.5812073,3.8156734,-0.18593025,7.787364
1570726916,-0.4530182,10.769424,5.051956,-0.57888794,0.59861755,0.5812073,3.8156734,-0.18593025,7.787364
1570726916,-0.4530182,10.769424,5.051956,-0.57888794,0.59861755,0.5812073,3.8156734,-0.18593025,7.787364
1570726916,-0.4530182,10.769424,5.051956,-0.57888794,0.59861755,0.5812073,3.8156734,-0.18593025,7.787364
1570726916,-0.4530182,10.769424,5.051956,-0.57888794,0.59861755,0.5812073,3.8156734,-0.18593025,7.787364
1570726916,-0.4530182,10.769424,5.051956,-0.57888794,0.59861755,0.5812073,3.8156734,-0.18593025,7.787364
1570726916,-0.4530182,10.769424,5.051956,-0.57888794,0.59861755,0.5812073,3.8156734,-0.18593025,7.787364
1570726916,-0.4530182,10.769424,5.051956,-0.57888794,0.59861755,0.5812073,3.8156734,-0.18593025,7.787364
1570726916,-0.4530182,10.769424,5.051956,-0.57888794,0.59861755,0.5812073,3.8156734,-0.18593025,7.787364
1570726916,-0.4530182,10.769424,5.051956,-0.57888794,0.59861755,0.5812073,3.8156734,-0.18593025,7.787364
1570726916,-0.4530182,10.769424,5.051956,-0.57888794,0.59861755,0.5812073,3.8156734,-0.18593025,7.787364
1570726916,-0.4530182,10.769424,5.051956,-0.57888794,0.59861755,0.5812073,3.8156734,-0.18593025,7.787364
1570726916,-0.4530182,10.769424,5.051956,-0.57888794,0.59861755,0.5812073,3.8156734,-0.18593025,7.787364
1570726916,-0.4530182,10.769424,5.051956,-0.57888794,0.59861755,0.5812073,3.8156734,-0.18593025,7.787364
1570726916,-0.4530182,10.769424,5.051956,-0.57888794,0.59861755,0.5812073,3.8156734,-0.18593025,7.787364
1570726916,-0.4530182,10.769424,5.051956,-0.57888794,0.59861755,0.5812073,3.8156734,-0.18593025,7.787364
1570726916,-0.4530182,10.769424,5.051956,-0.57888794,0.59861755,0.5812073,3.8156734,-0.18593025,7.787364
1570726916,-0.4530182,10.769424,5.051956,-0.57888794,0.59861755,0.5812073,3.8156734,-0.18593025,7.787364
1570726916,-0.4530182,10.769424,5.051956,-0.57888794,0.59861755,0.5812073,3.8156734,-0.18593025,7.787364
1570726916,-0.4530182,10.769424,5.051956,-0.57888794,0.59861755,0.5812073,3.8156734,-0.18593025,7.787364
1570726916,-0.4530182,10.769424,5.051956,-0.57888794,0.59861755,0.5812073,3.8156734,-0.18593025,7.787364
1570726916,-0.4530182,10.769424,5.051956,-0.57888794,0.59861755,0.5812073,3.8156734,-0.18593025,7.787364
1570726916,-0.4530182,10.769424,5.051956,-0.57888794,0.59861755,0.5812073,3.8156734,-0.18593025,7.787364
1570726916,-0.4530182,10.769424,5.051956,-0.57888794,0.59861755,0.5812073,3.8156734,-0.18593025,7.787364
1570726916,-0.4530182,10.769424,5.051956,-0.57888794,0.59861755,0.5812073,3.8156734,-0.18593025,7.787364
1570726916,-0.4530182,10.769424,5.051956,-0.57888794,0.59861755,0.5812073,3.8156734,-0.18593025,7.787364
1570726916,-0.4530182,10.769424,5.051956,-0.57888794,0.59861755,0.5812073,3.8156734,-0.18593025,7.787364
1570726916,-0.4530182,10.769424,5.051956,-0.57888794,0.59861755,0.5812073,3.8156734,-0.18593025,7.787364
1570726916,-0.4530182,10.769424,5.051956,-0.57888794,0.59861755,0.5812073,3.8156734,-0.18593025,7.787364
1570726916,-0.4530182,10.769424,5.051956,-0.57888794,0.59861755,0.5812073,3.8156734,-0.18593025,7.787364
1570726916,-0.4530182,10.769424,5.051956,-0.57888794,0.59861755,0.5812073,3.8156734,-0.18593025,7.787364
1570726916,-0.4530182,10.769424,5.051956,-0.57888794,0.59861755,0.5812073,3.8156734,-0.18593025,7.787364
1570726916,-0.4530182,10.769424,5.051956,-0.57888794,0.59861755,0.5812073,3.8156734,-0.18593025,7.787364
1570726916,-0.4530182,10.769424,5.051956,-0.57888794,0.59861755,0.5812073,3.8156734,-0.18593025,7.787364
1570726916,-0.4530182,10.769424,5.051956,-0.57888794,0.59861755,0.5812073,3.8156734,-0.18593025,7.787364
1570726916,-0.4530182,10.769424,5.051956,-0.57888794,0.59861755,0.5812073,3.8156734,-0.18593025,7.787364
1570726916,-0.4530182,10.769424,5.051956,-0.57888794,0.59861755,0.5812073,3.8156734,-0.18593025,7.787364
1570726916,-0.4530182,10.769424,5.051956,-0.57888794,0.59861755,0.5812073,3.8156734,-0.18593025,7.787364
1570726916,-0.4530182,10.769424,5.051956,-0.57888794,0.59861755,0.5812073,3.8156734,-0.18593025,7.787364
1570726916,-0.4530182,10.769424,5.051956,-0.57888794,0.59861755,0.5812073,3.8156734,-0.18593025,7.787364
1570726916,-0.4530182,10.769424,5.051956,-0.57888794,0.59861755,0.5812073,3.8156734,-0.18593025,7.787364
1570726916,-0.4530182,10.769424,5.051956,-0.57888794,0.59861755,0.5812073,3.8156734,-0.18593025,7.787364
1570726916,-0.4530182,10.769424,5.051956,-0.57888794,0.59861755,0.5812073,3.8156734,-0.18593025,7.787364
1570726916,-0.4530182,10.769424,5.051956,-0.57888794,0.59861755,0.5812073,3.8156734,-0.18593025,7.787364
1570726916,-0.4530182,10.769424,5.051956,-0.57888794,0.59861755,0.5812073,3.8156734,-0.18593025,7.787364
1570726916,-0.4530182,10.769424,5.051956,-0.57888794,0.59861755,0.5812073,3.8156734,-0.18593025,7.787364
1570726916,-0.4530182,10.769424,5.051956,-0.57888794,0.59861755,0.5812073,3.8156734,-0.18593025,7.787364
1570726916,-0.4530182,10.769424,5.051956,-0.57888794,0.59861755,0.5812073,3.8156734,-0.18593025,7.787364
1570726916,-0.4530182,10.769424,5.051956,-0.57888794,0.59861755,0.5812073,3.8156734,-0.18593025,7.787364
1570726916,-0.4530182,10.769424,5.051956,-0.57888794,0.59861755,0.5812073,3.8156734,-0.18593025,7.787364
1570726916,-0.4530182,10.769424,5.051956,-0.57888794,0.59861755,0.5812073,3.8156734,-0.18593025,7.787364
1570726916,-0.4530182,10.769424,5.051956,-0.57888794,0.59861755,0.5812073,3.8156734,-0.18593025,7.787364
1570726916,-0.4530182,10.769424,5.051956,-0.57888794,0.59861755,0.5812073,3.8156734,-0.18593025,7.787364
1570726916,-0.4530182,10.769424,5.051956,-0.57888794,0.59861755,0.5812073,3.8156734,-0.18593025,7.787364
1570726916,-0.4530182,10.769424,5.051956,-0.57888794,0.59861755,0.5812073,3.8156734,-0.18593025,7.787364
1570726916,-0.4530182,10.769424,5.051956,-0.57888794,0.59861755,0.5812073,3.8156734,-0.18593025,7.787364
1570726916,-0.4530182,10.769424,5.051956,-0.57888794,0.59861755,0.5812073,3.8156734,-0.18593025,7.787364
1570726916,-0.4530182,10.769424,5.051956,-0.57888794,0.59861755,0.5812073,3.8156734,-0.18593025,7.787364
1570726916,-0.4530182,10.769424,5.051956,-0.57888794,0.59861755,0.5812073,3.8156734,-0.18593025,7.787364
1570726916,-0.4530182,10.769424,5.051956,-0.57888794,0.59861755,0.5812073,3.8156734,-0.18593025,7.787364
1570726916,-0.4530182,10.769424,5.051956,-0.57888794,0.59861755,0.5812073,3.8156734,-0.18593025,7.787364
1570726916,-0.4530182,10.769424,5.051956,-0.57888794,0.59861755,0.5812073,3.8156734,-0.18593025,7.787364
1570726916,-0.4530182,10.769424,5.051956,-0.57888794,0.59861755,0.5812073,3.8156734,-0.18593025,7.787364
1570726916,-0.4530182,10.769424,5.051956,-0.57888794,0.59861755,0.5812073,3.8156734,-0.18593025,7.787364
1570726916,-0.4530182,10.769424,5.051956,-0.57888794,0.59861755,0.5812073,3.8156734,-0.18593025,7.787364
1570726916,-0.4530182,10.769424,5.051956,-0.57888794,0.59861755,0.5812073,3.8156734,-0.18593025,7.787364
1570726916,-0.4530182,10.769424,5.051956,-0.57888794,0.59861755,0.5812073,3.8156734,-0.18593025,7.787364
1570726916,-0.4530182,10.769424,5.051956,-0.57888794,0.59861755,0.5812073,3.8156734,-0.18593025,7.787364
1570726916,-0.4530182,10.769424,5.051956,-0.57888794,0.59861755,0.5812073,3.8156734,-0.18593025,7.787364
1570726916,-0.4530182,10.769424,5.051956,-0.57888794,0.59861755,0.5812073,3.8156734,-0.18593025,7.787364
1570726916,-0.4530182,10.769424,5.051956,-0.57888794,0.59861755,0.5812073,3.8156734,-0.18593025,7.787364
1570726916,-0.4530182,10.769424,5.051956,-0.57888794,0.59861755,0.5812073,3.8156734,-0.18593025,7.787364
1570726916,-0.4530182,10.769424,5.051956,-0.57888794,0.59861755,0.5812073,3.8156734,-0.18593025,7.787364
1570726916,-0.4530182,10.769424,5.051956,-0.57888794,0.59861755,0.5812073,3.8156734,-0.18593025,7.787364
1570726916,-0.4530182,10.769424,5.051956,-0.57888794,0.59861755,0.5812073,3.8156734,-0.18593025,7.787364
1570726916,-0.4530182,10.769424,5.051956,-0.57888794,0.59861755,0.5812073,3.8156734,-0.18593025,7.787364
1570726916,-0.4530182,10.769424,5.051956,-0.57888794,0.59861755,0.5812073,3.8156734,-0.18593025,7.787364
1570726916,-0.4530182,10.769424,5.051956,-0.57888794,0.59861755,0.5812073,3.8156734,-0.18593025,7.787364
1570726916,-0.4530182,10.769424,5.051956,-0.57888794,0.59861755,0.5812073,3.8156734,-0.18593025,7.787364
1570726916,-0.4530182,10.769424,5.051956,-0.57888794,0.59861755,0.5812073,3.8156734,-0.18593025,7.787364
1570726916,-0.4530182,10.769424,5.051956,-0.57888794,0.59861755,0.5812073,3.8156734,-0.18593025,7.787364
1570726916,-0.4530182,10.769424,5.051956,-0.57888794,0.59861755,0.5812073,3.8156734,-0.18593025,7.787364
1570726916,-0.4530182,10.769424,5.051956,-0.57888794,0.59861755,0.5812073,3.8156734,-0.18593025,7.787364
1570726916,-0.4530182,10.769424,5.051956,-0.57888794,0.59861755,0.5812073,3.8156734,-0.18593025,7.787364
1570726916,-0.4530182,10.769424,5.051956,-0.57888794,0.59861755,0.5812073,3.8156734,-0.18593025,7.787364
1570726916,-0.4530182,10.769424,5.051956,-0.57888794,0.59861755,0.5812073,3.8156734,-0.18593025,7.787364
1570726916,-0.4530182,10.769424,5.051956,-0.57888794,0.59861755,0.5812073,3.8156734,-0.18593025,7.787364
1570726916,-0.4530182,10.769424,5.051956,-0.57888794,0.59861755,0.5812073,3.8156734,-0.18593025,7.787364
1570726916,-0.4530182,10.769424,5.051956,-0.57888794,0.59861755,0.5812073,3.8156734,-0.18593025,7.787364
1570726916,-0.4530182,10.769424,5.051956,-0.57888794,0.59861755,0.5812073,3.8156734,-0.18593025,7.787364
1570726916,-0.4530182,10.769424,5.051956,-0.57888794,0.59861755,0.5812073,3.8156734,-0.18593025,7.787364
1570726916,-0.4530182,10.769424,5.051956,-0.57888794,0.59861755,0.5812073,3.8156734,-0.18593025,7.787364
1570726916,-0.4530182,10.769424,5.051956,-0.57888794,0.59861755,0.5812073,3.8156734,-0.18593025,7.787364
1570726916,-0.4530182,10.769424,5.051956,-0.57888794,0.59861755,0.5812073,3.8156734,-0.18593025,7.787364
1570726916,-0.4530182,10.769424,5.051956,-0.57888794,0.59861755,0.5812073,3.8156734,-0.18593025,7.787364
1570726916,-0.4530182,10.769424,5.051956,-0.57888794,0.59861755,0.5812073,3.8156734,-0.18593025,7.787364
1570726916,-0.4530182,10.769424,5.051956,-0.57888794,0.59861755,0.5812073,3.8156734,-0.18593025,7.787364
1570726916,-0.4530182,10.769424,5.051956,-0.57888794,0.59861755,0.5812073,3.8156734,-0.18593025,7.787364
1570726916,-0.4530182,10.769424,5.051956,-0.57888794,0.59861755,0.5812073,3.8156734,-0.18593025,7.787364
1570726916,-0.4530182,10.769424,5.051956,-0.57888794,0.59861755,0.5812073,3.8156734,-0.18593025,7.787364
1570726916,-0.4530182,10.769424,5.051956,-0.57888794,0.59861755,0.5812073,3.8156734,-0.18593025,7.787364
1570726916,-0.4530182,10.769424,5.051956,-0.57888794,0.59861755,0.5812073,3.8156734,-0.18593025,7.787364
1570726916,-0.4530182,10.769424,5.051956,-0.57888794,0.59861755,0.5812073,3.8156734,-0.18593025,7.787364
1570726916,-0.4530182,10.769424,5.051956,-0.57888794,0.59861755,0.5812073,3.8156734,-0.18593025,7.787364
1570726916,-0.4530182,10.769424,5.051956,-0.57888794,0.59861755,0.5812073,3.8156734,-0.18593025,7.787364
1570726916,-0.4530182,10.769424,5.051956,-0.57888794,0.59861755,0.5812073,3.8156734,-0.18593025,7.787364
1570726916,-0.4530182,10.769424,5.051956,-0.57888794,0.59861755,0.5812073,3.8156734,-0.18593025,7.787364
1570726916,-0.4530182,10.769424,5.051956,-0.57888794,0.59861755,0.5812073,3.8156734,-0.18593025,7.787364
1570726916,-0.4530182,10.769424,5.051956,-0.57888794,0.59861755,0.5812073,3.8156734,-0.18593025,7.787364
1570726916,-0.4530182,10.769424,5.051956,-0.57888794,0.59861755,0.5812073,3.8156734,-0.18593025,7.787364
1570726916,-0.4530182,10.769424,5.051956,-0.57888794,0.59861755,0.5812073,3.8156734,-0.18593025,7.787364
1570726916,-0.4530182,10.769424,5.051956,-0.57888794,0.59861755,0.5812073,3.8156734,-0.18593025,7.787364
1570726916,-0.4530182,10.769424,5.051956,-0.57888794,0.59861755,0.5812073,3.8156734,-0.18593025,7.787364
1570726916,-0.4530182,10.769424,5.051956,-0.57888794,0.59861755,0.5812073,3.8156734,-0.18593025,7.787364
1570726916,-0.4530182,10.769424,5.051956,-0.57888794,0.59861755,0.5812073,3.8156734,-0.18593025,7.787364
1570726916,-0.4530182,10.769424,5.051956,-0.57888794,0.59861755,0.5812073,3.8156734,-0.18593025,7.787364
1570726916,-0.4530182,10.769424,5.051956,-0.57888794,0.59861755,0.5812073,3.8156734,-0.18593025,7.787364
1570726916,-0.4530182,10.769424,5.051956,-0.57888794,0.59861755,0.5812073,3.8156734,-0.18593025,7.787364
1570726916,-0.4530182,10.769424,5.051956,-0.57888794,0.59861755,0.5812073,3.8156734,-0.18593025,7.787364
1570726916,-0.4530182,10.769424,5.051956,-0.57888794,0.59861755,0.5812073,3.8156734,-0.18593025,7.787364
1570726916,-0.4530182,10.769424,5.051956,-0.57888794,0.59861755,0.5812073,3.8156734,-0.18593025,7.787364
1570726916,-0.4530182,10.769424,5.051956,-0.57888794,0.59861755,0.5812073,3.8156734,-0.18593025,7.787364
1570726916,-0.4530182,10.769424,5.051956,-0.57888794,0.59861755,0.5812073,3.8156734,-0.18593025,7.787364
1570726916,-0.4530182,10.769424,5.051956,-0.57888794,0.59861755,0.5812073,3.8156734,-0.18593025,7.787364
1570726916,-0.4530182,10.769424,5.051956,-0.57888794,0.59861755,0.5812073,3.8156734,-0.18593025,7.787364
1570726916,-0.4530182,10.769424,5.051956,-0.57888794,0.59861755,0.5812073,3.8156734,-0.18593025,7.787364
1570726916,-0.4530182,10.769424,5.051956,-0.57888794,0.59861755,0.5812073,3.8156734,-0.18593025,7.787364
1570726916,-0.4530182,10.769424,5.051956,-0.57888794,0.59861755,0.5812073,3.8156734,-0.18593025,7.787364
1570726916,-0.4530182,10.769424,5.051956,-0.57888794,0.59861755,0.5812073,3.8156734,-0.18593025,7.787364
1570726916,-0.4530182,10.769424,5.051956,-0.57888794,0.59861755,0.5812073,3.8156734,-0.18593025,7.787364
1570726916,-0.4530182,10.769424,5.051956,-0.57888794,0.59861755,0.5812073,3.8156734,-0.18593025,7.787364
1570726916,-0.4530182,10.769424,5.051956,-0.57888794,0.59861755,0.5812073,3.8156734,-0.18593025,7.787364
1570726916,-0.4530182,10.769424,5.051956,-0.57888794,0.59861755,0.5812073,3.8156734,-0.18593025,7.787364
1570726916,-0.4530182,10.769424,5.051956,-0.57888794,0.59861755,0.5812073,3.8156734,-0.18593025,7.787364
1570726916,-0.4530182,10.769424,5.051956,-0.57888794,0.59861755,0.5812073,3.8156734,-0.18593025,7.787364
1570726916,-0.4530182,10.769424,5.051956,-0.57888794,0.59861755,0.5812073,3.8156734,-0.18593025,7.787364
1570726916,-0.4530182,10.769424,5.051956,-0.57888794,0.59861755,0.5812073,3.8156734,-0.18593025,7.787364
1570726916,-0.4530182,10.769424,5.051956,-0.57888794,0.59861755,0.5812073,3.8156734,-0.18593025,7.787364
1570726916,-0.4530182,10.769424,5.051956,-0.57888794,0.59861755,0.5812073,3.8156734,-0.18593025,7.787364
1570726916,-0.4530182,10.769424,5.051956,-0.57888794,0.59861755,0.5812073,3.8156734,-0.18593025,7.787364
1570726916,-0.4530182,10.769424,5.051956,-0.57888794,0.59861755,0.5812073,3.8156734,-0.18593025,7.787364
1570726916,-0.4530182,10.769424,5.051956,-0.57888794,0.59861755,0.5812073,3.8156734,-0.18593025,7.787364
1570726916,-0.4530182,10.769424,5.051956,-0.57888794,0.59861755,0.5812073,3.8156734,-0.18593025,7.787364
1570726916,-0.4530182,10.769424,5.051956,-0.57888794,0.59861755,0.5812073,3.8156734,-0.18593025,7.787364
1570726916,-0.4530182,10.769424,5.051956,-0.57888794,0.59861755,0.5812073,3.8156734,-0.18593025,7.787364
1570726916,-0.4530182,10.769424,5.051956,-0.57888794,0.59861755,0.5812073,3.8156734,-0.18593025,7.787364
1570726916,-0.4530182,10.769424,5.051956,-0.57888794,0.59861755,0.5812073,3.8156734,-0.18593025,7.787364
1570726916,-0.4530182,10.769424,5.051956,-0.57888794,0.59861755,0.5812073,3.8156734,-0.18593025,7.787364
1570726916,-0.4530182,10.769424,5.051956,-0.57888794,0.59861755,0.5812073,3.8156734,-0.18593025,7.787364
1570726916,-0.4530182,10.769424,5.051956,-0.57888794,0.59861755,0.5812073,3.8156734,-0.18593025,7.787364
1570726916,-0.4530182,10.769424,5.051956,-0.57888794,0.59861755,0.5812073,3.8156734,-0.18593025,7.787364
1570726916,4.939911,14.115326,1.2104645,-0.57888794,0.59861755,0.5812073,3.8156734,-0.18593025,7.787364
1570726916,-4.344803,22.11914,7.6532593,-0.57888794,0.59861755,0.5812073,3.8156734,-0.18593025,7.787364
1570726916,-4.344803,22.11914,7.6532593,-0.57888794,0.59861755,0.5812073,3.8156734,-0.18593025,7.787364
1570726916,-4.344803,22.11914,7.6532593,-0.57888794,0.59861755,0.5812073,3.8156734,-0.18593025,7.787364
1570726923,-4.344803,22.11914,7.6532593,-0.57888794,0.59861755,0.5812073,3.8156734,-0.18593025,7.787364
1570726923,-4.344803,22.11914,7.6532593,-0.57888794,0.59861755,0.5812073,3.8156734,-0.18593025,7.787364
1570726923,-4.344803,22.11914,7.6532593,-0.57888794,0.59861755,0.5812073,3.8156734,-0.18593025,7.787364
1570726923,-4.344803,22.11914,7.6532593,-0.57888794,0.59861755,0.5812073,3.8156734,-0.18593025,7.787364
1570726923,-4.344803,22.11914,7.6532593,-0.57888794,0.59861755,0.5812073,3.8156734,-0.18593025,7.787364
1570726923,-4.344803,22.11914,7.6532593,-0.57888794,0.59861755,0.5812073,3.8156734,-0.18593025,7.787364
1570726923,-4.344803,22.11914,7.6532593,-0.57888794,0.59861755,0.5812073,3.8156734,-0.18593025,7.787364
1570726923,-4.344803,22.11914,7.6532593,-0.57888794,0.59861755,0.5812073,3.8156734,-0.18593025,7.787364
1570726923,-4.344803,22.11914,7.6532593,-0.57888794,0.59861755,0.5812073,3.8156734,-0.18593025,7.787364
1570726923,-4.344803,22.11914,7.6532593,-0.57888794,0.59861755,0.5812073,3.8156734,-0.18593025,7.787364
1570726923,-4.344803,22.11914,7.6532593,-0.57888794,0.59861755,0.5812073,3.8156734,-0.18593025,7.787364
1570726923,-4.344803,22.11914,7.6532593,-0.57888794,0.59861755,0.5812073,3.8156734,-0.18593025,7.787364
1570726923,-4.344803,22.11914,7.6532593,-0.57888794,0.59861755,0.5812073,3.8156734,-0.18593025,7.787364
1570726923,-4.344803,22.11914,7.6532593,-0.57888794,0.59861755,0.5812073,3.8156734,-0.18593025,7.787364
1570726923,-4.344803,22.11914,7.6532593,-0.57888794,0.59861755,0.5812073,3.8156734,-0.18593025,7.787364
1570726923,-4.344803,22.11914,7.6532593,-0.57888794,0.59861755,0.5812073,3.8156734,-0.18593025,7.787364
1570726923,-4.344803,22.11914,7.6532593,-0.57888794,0.59861755,0.5812073,3.8156734,-0.18593025,7.787364
1570726923,-4.344803,22.11914,7.6532593,-0.57888794,0.59861755,0.5812073,3.8156734,-0.18593025,7.787364
1570726923,-4.344803,22.11914,7.6532593,-0.57888794,0.59861755,0.5812073,3.8156734,-0.18593025,7.787364
1570726923,-4.344803,22.11914,7.6532593,-0.57888794,0.59861755,0.5812073,3.8156734,-0.18593025,7.787364
1570726923,-4.344803,22.11914,7.6532593,-0.57888794,0.59861755,0.5812073,3.8156734,-0.18593025,7.787364
1570726923,-4.344803,22.11914,7.6532593,-0.57888794,0.59861755,0.5812073,3.8156734,-0.18593025,7.787364
1570726923,-4.344803,22.11914,7.6532593,-0.57888794,0.59861755,0.5812073,3.8156734,-0.18593025,7.787364
1570726923,-4.344803,22.11914,7.6532593,-0.57888794,0.59861755,0.5812073,3.8156734,-0.18593025,7.787364
1570726923,-4.344803,22.11914,7.6532593,-0.57888794,0.59861755,0.5812073,3.8156734,-0.18593025,7.787364
1570726923,-4.344803,22.11914,7.6532593,-0.57888794,0.59861755,0.5812073,3.8156734,-0.18593025,7.787364
1570726923,-4.344803,22.11914,7.6532593,-0.57888794,0.59861755,0.5812073,3.8156734,-0.18593025,7.787364
1570726923,-4.344803,22.11914,7.6532593,-0.57888794,0.59861755,0.5812073,3.8156734,-0.18593025,7.787364
1570726923,-4.344803,22.11914,7.6532593,-0.57888794,0.59861755,0.5812073,3.8156734,-0.18593025,7.787364
1570726923,-4.344803,22.11914,7.6532593,-0.57888794,0.59861755,0.5812073,3.8156734,-0.18593025,7.787364
1570726923,-4.344803,22.11914,7.6532593,-0.57888794,0.59861755,0.5812073,3.8156734,-0.18593025,7.787364
1570726923,-4.344803,22.11914,7.6532593,-0.57888794,0.59861755,0.5812073,3.8156734,-0.18593025,7.787364
1570726923,-4.344803,22.11914,7.6532593,-0.57888794,0.59861755,0.5812073,3.8156734,-0.18593025,7.787364
1570726923,-4.344803,22.11914,7.6532593,-0.57888794,0.59861755,0.5812073,3.8156734,-0.18593025,7.787364
1570726923,-4.344803,22.11914,7.6532593,-0.57888794,0.59861755,0.5812073,3.8156734,-0.18593025,7.787364
1570726923,-4.344803,22.11914,7.6532593,-0.57888794,0.59861755,0.5812073,3.8156734,-0.18593025,7.787364
1570726923,-4.344803,22.11914,7.6532593,-0.57888794,0.59861755,0.5812073,3.8156734,-0.18593025,7.787364
1570726923,-4.344803,22.11914,7.6532593,-0.57888794,0.59861755,0.5812073,3.8156734,-0.18593025,7.787364
1570726923,-4.344803,22.11914,7.6532593,-0.57888794,0.59861755,0.5812073,3.8156734,-0.18593025,7.787364
1570726923,-4.344803,22.11914,7.6532593,-0.57888794,0.59861755,0.5812073,3.8156734,-0.18593025,7.787364
1570726923,-4.344803,22.11914,7.6532593,-0.57888794,0.59861755,0.5812073,3.8156734,-0.18593025,7.787364
1570726923,-4.344803,22.11914,7.6532593,-0.57888794,0.59861755,0.5812073,3.8156734,-0.18593025,7.787364
1570726923,-4.344803,22.11914,7.6532593,-0.57888794,0.59861755,0.5812073,3.8156734,-0.18593025,7.787364
1570726923,-4.344803,22.11914,7.6532593,-0.57888794,0.59861755,0.5812073,3.8156734,-0.18593025,7.787364
1570726923,-4.344803,22.11914,7.6532593,-0.57888794,0.59861755,0.5812073,3.8156734,-0.18593025,7.787364
1570726923,-4.344803,22.11914,7.6532593,-0.57888794,0.59861755,0.5812073,3.8156734,-0.18593025,7.787364
1570726923,-4.344803,22.11914,7.6532593,-0.57888794,0.59861755,0.5812073,3.8156734,-0.18593025,7.787364
1570726923,-4.344803,22.11914,7.6532593,-0.57888794,0.59861755,0.5812073,3.8156734,-0.18593025,7.787364
1570726923,-4.344803,22.11914,7.6532593,-0.57888794,0.59861755,0.5812073,3.8156734,-0.18593025,7.787364
1570726923,-4.344803,22.11914,7.6532593,-0.57888794,0.59861755,0.5812073,3.8156734,-0.18593025,7.787364
1570726923,-4.344803,22.11914,7.6532593,-0.57888794,0.59861755,0.5812073,3.8156734,-0.18593025,7.787364
1570726923,-4.344803,22.11914,7.6532593,-0.57888794,0.59861755,0.5812073,3.8156734,-0.18593025,7.787364
1570726923,-4.344803,22.11914,7.6532593,-0.57888794,0.59861755,0.5812073,3.8156734,-0.18593025,7.787364
1570726923,-4.344803,22.11914,7.6532593,-0.57888794,0.59861755,0.5812073,3.8156734,-0.18593025,7.787364
1570726923,-4.344803,22.11914,7.6532593,-0.57888794,0.59861755,0.5812073,3.8156734,-0.18593025,7.787364
1570726923,-4.344803,22.11914,7.6532593,-0.57888794,0.59861755,0.5812073,3.8156734,-0.18593025,7.787364
1570726923,-4.344803,22.11914,7.6532593,-0.57888794,0.59861755,0.5812073,3.8156734,-0.18593025,7.787364
1570726923,-4.344803,22.11914,7.6532593,-0.57888794,0.59861755,0.5812073,3.8156734,-0.18593025,7.787364
1570726923,-4.344803,22.11914,7.6532593,-0.57888794,0.59861755,0.5812073,3.8156734,-0.18593025,7.787364
1570726923,-4.344803,22.11914,7.6532593,-0.57888794,0.59861755,0.5812073,3.8156734,-0.18593025,7.787364
1570726923,-4.344803,22.11914,7.6532593,-0.57888794,0.59861755,0.5812073,3.8156734,-0.18593025,7.787364
1570726923,-4.344803,22.11914,7.6532593,-0.57888794,0.59861755,0.5812073,3.8156734,-0.18593025,7.787364
1570726923,-4.344803,22.11914,7.6532593,-0.57888794,0.59861755,0.5812073,3.8156734,-0.18593025,7.787364
1570726923,-4.344803,22.11914,7.6532593,-0.57888794,0.59861755,0.5812073,3.8156734,-0.18593025,7.787364
1570726923,-4.344803,22.11914,7.6532593,-0.57888794,0.59861755,0.5812073,3.8156734,-0.18593025,7.787364
1570726923,-4.344803,22.11914,7.6532593,-0.57888794,0.59861755,0.5812073,3.8156734,-0.18593025,7.787364
1570726923,-4.344803,22.11914,7.6532593,-0.57888794,0.59861755,0.5812073,3.8156734,-0.18593025,7.787364
1570726923,-4.344803,22.11914,7.6532593,-0.57888794,0.59861755,0.5812073,3.8156734,-0.18593025,7.787364
1570726923,-4.344803,22.11914,7.6532593,-0.57888794,0.59861755,0.5812073,3.8156734,-0.18593025,7.787364
1570726923,-4.344803,22.11914,7.6532593,-0.57888794,0.59861755,0.5812073,3.8156734,-0.18593025,7.787364
1570726923,-4.344803,22.11914,7.6532593,-0.57888794,0.59861755,0.5812073,3.8156734,-0.18593025,7.787364
1570726923,-4.344803,22.11914,7.6532593,-0.57888794,0.59861755,0.5812073,3.8156734,-0.18593025,7.787364
1570726923,-4.344803,22.11914,7.6532593,-0.57888794,0.59861755,0.5812073,3.8156734,-0.18593025,7.787364
1570726923,-4.344803,22.11914,7.6532593,-0.57888794,0.59861755,0.5812073,3.8156734,-0.18593025,7.787364
1570726923,-4.344803,22.11914,7.6532593,-0.57888794,0.59861755,0.5812073,3.8156734,-0.18593025,7.787364
1570726923,-4.344803,22.11914,7.6532593,-0.57888794,0.59861755,0.5812073,3.8156734,-0.18593025,7.787364
1570726923,-4.344803,22.11914,7.6532593,-0.57888794,0.59861755,0.5812073,3.8156734,-0.18593025,7.787364
1570726923,-4.344803,22.11914,7.6532593,-0.57888794,0.59861755,0.5812073,3.8156734,-0.18593025,7.787364
1570726923,-4.344803,22.11914,7.6532593,-0.57888794,0.59861755,0.5812073,3.8156734,-0.18593025,7.787364
1570726923,-4.344803,22.11914,7.6532593,-0.57888794,0.59861755,0.5812073,3.8156734,-0.18593025,7.787364
1570726923,-4.344803,22.11914,7.6532593,-0.57888794,0.59861755,0.5812073,3.8156734,-0.18593025,7.787364
1570726923,-4.344803,22.11914,7.6532593,-0.57888794,0.59861755,0.5812073,3.8156734,-0.18593025,7.787364
1570726923,-4.344803,22.11914,7.6532593,-0.57888794,0.59861755,0.5812073,3.8156734,-0.18593025,7.787364
1570726923,-4.344803,22.11914,7.6532593,-0.57888794,0.59861755,0.5812073,3.8156734,-0.18593025,7.787364
1570726923,-4.344803,22.11914,7.6532593,-0.57888794,0.59861755,0.5812073,3.8156734,-0.18593025,7.787364
1570726923,-4.344803,22.11914,7.6532593,-0.57888794,0.59861755,0.5812073,3.8156734,-0.18593025,7.787364
1570726923,-4.344803,22.11914,7.6532593,-0.57888794,0.59861755,0.5812073,3.8156734,-0.18593025,7.787364
1570726923,-4.344803,22.11914,7.6532593,-0.57888794,0.59861755,0.5812073,3.8156734,-0.18593025,7.787364
1570726923,-4.344803,22.11914,7.6532593,-0.57888794,0.59861755,0.5812073,3.8156734,-0.18593025,7.787364
1570726923,-4.344803,22.11914,7.6532593,-0.57888794,0.59861755,0.5812073,3.8156734,-0.18593025,7.787364
1570726923,-4.344803,22.11914,7.6532593,-0.57888794,0.59861755,0.5812073,3.8156734,-0.18593025,7.787364
1570726923,-4.344803,22.11914,7.6532593,-0.57888794,0.59861755,0.5812073,3.8156734,-0.18593025,7.787364
1570726923,-4.344803,22.11914,7.6532593,-0.57888794,0.59861755,0.5812073,3.8156734,-0.18593025,7.787364
1570726923,-4.344803,22.11914,7.6532593,-0.57888794,0.59861755,0.5812073,3.8156734,-0.18593025,7.787364
1570726923,-4.344803,22.11914,7.6532593,-0.57888794,0.59861755,0.5812073,3.8156734,-0.18593025,7.787364
1570726923,-4.344803,22.11914,7.6532593,-0.57888794,0.59861755,0.5812073,3.8156734,-0.18593025,7.787364
1570726923,-4.344803,22.11914,7.6532593,-0.57888794,0.59861755,0.5812073,3.8156734,-0.18593025,7.787364
1570726923,-4.344803,22.11914,7.6532593,-0.57888794,0.59861755,0.5812073,3.8156734,-0.18593025,7.787364
1570726923,-4.344803,22.11914,7.6532593,-0.57888794,0.59861755,0.5812073,3.8156734,-0.18593025,7.787364
1570726923,-4.344803,22.11914,7.6532593,-0.57888794,0.59861755,0.5812073,3.8156734,-0.18593025,7.787364
1570726923,-4.344803,22.11914,7.6532593,-0.57888794,0.59861755,0.5812073,3.8156734,-0.18593025,7.787364
1570726923,-4.344803,22.11914,7.6532593,-0.57888794,0.59861755,0.5812073,3.8156734,-0.18593025,7.787364
1570726923,-4.344803,22.11914,7.6532593,-0.57888794,0.59861755,0.5812073,3.8156734,-0.18593025,7.787364
1570726923,-4.344803,22.11914,7.6532593,-0.57888794,0.59861755,0.5812073,3.8156734,-0.18593025,7.787364
1570726923,-4.344803,22.11914,7.6532593,-0.57888794,0.59861755,0.5812073,3.8156734,-0.18593025,7.787364
1570726923,-4.344803,22.11914,7.6532593,-0.57888794,0.59861755,0.5812073,3.8156734,-0.18593025,7.787364
1570726923,-4.344803,22.11914,7.6532593,-0.57888794,0.59861755,0.5812073,3.8156734,-0.18593025,7.787364
1570726923,-4.344803,22.11914,7.6532593,-0.57888794,0.59861755,0.5812073,3.8156734,-0.18593025,7.787364
1570726923,-4.344803,22.11914,7.6532593,-0.57888794,0.59861755,0.5812073,3.8156734,-0.18593025,7.787364
1570726923,-4.344803,22.11914,7.6532593,-0.57888794,0.59861755,0.5812073,3.8156734,-0.18593025,7.787364
1570726923,-4.344803,22.11914,7.6532593,-0.57888794,0.59861755,0.5812073,3.8156734,-0.18593025,7.787364
1570726923,-4.344803,22.11914,7.6532593,-0.57888794,0.59861755,0.5812073,3.8156734,-0.18593025,7.787364
1570726923,-4.344803,22.11914,7.6532593,-0.57888794,0.59861755,0.5812073,3.8156734,-0.18593025,7.787364
1570726923,-4.344803,22.11914,7.6532593,-0.57888794,0.59861755,0.5812073,3.8156734,-0.18593025,7.787364
1570726923,-4.344803,22.11914,7.6532593,-0.57888794,0.59861755,0.5812073,3.8156734,-0.18593025,7.787364
1570726923,-4.344803,22.11914,7.6532593,-0.57888794,0.59861755,0.5812073,3.8156734,-0.18593025,7.787364
1570726923,-4.344803,22.11914,7.6532593,-0.57888794,0.59861755,0.5812073,3.8156734,-0.18593025,7.787364
1570726923,-4.344803,22.11914,7.6532593,-0.57888794,0.59861755,0.5812073,3.8156734,-0.18593025,7.787364
1570726923,3.9810333,11.399109,6.604599,-0.57888794,0.59861755,0.5812073,1.5582988,2.624485,-1.9898688
1570726923,1.4108582,15.341156,-3.6030884,-0.57888794,0.59861755,0.5812073,0.021224499,-0.5231447,1.1087809
1570726923,1.4108582,15.341156,-3.6030884,-0.57888794,0.59861755,0.5812073,2.890776,2.1471415,-5.0002856
1570726923,1.4108582,15.341156,-3.6030884,-0.57888794,0.59861755,0.5812073,-3.52142,0.6315298,-1.5085356
1570726923,1.4108582,15.341156,-3.6030884,-0.57888794,0.59861755,0.5812073,1.8383763,2.4074202,4.3117027
1570726923,1.4108582,15.341156,-3.6030884,-0.57888794,0.59861755,0.5812073,-1.5615968,-5.262472,-5.3807526
1570726923,1.4108582,15.341156,-3.6030884,-0.57888794,0.59861755,0.5812073,-0.44608212,-0.93482685,-0.5644447
1570726923,1.4108582,15.341156,-3.6030884,-0.57888794,0.59861755,0.5812073,1.2699258,0.683094,0.3773266
1570726923,1.4108582,15.341156,-3.6030884,-0.57888794,0.59861755,0.5812073,1.6502485,1.1552954,-0.34429485
1570726923,1.4108582,15.341156,-3.6030884,-0.57888794,0.59861755,0.5812073,-1.609926,1.1254311,-3.3168151
1570726923,1.4108582,15.341156,-3.6030884,-0.57888794,0.59861755,0.5812073,-2.1760123,-1.3357477,-0.41491866
1570726923,1.4108582,15.341156,-3.6030884,-0.57888794,0.59861755,0.5812073,-1.1826079,-0.8627348,0.15026486
1570726923,1.4108582,15.341156,-3.6030884,-0.57888794,0.59861755,0.5812073,-1.7329705,-1.2334023,-2.4601195
1570726923,1.4108582,15.341156,-3.6030884,-0.57888794,0.59861755,0.5812073,-1.0061502,-2.06987,1.6904277
1570726923,1.4108582,15.341156,-3.6030884,-0.57888794,0.59861755,0.5812073,3.8387413,1.6307268,3.8544416
1570726923,1.4108582,15.341156,-3.6030884,-0.57888794,0.59861755,0.5812073,-1.5059698,-3.483632,-2.9002938
1570726923,1.4108582,15.341156,-3.6030884,-0.57888794,0.59861755,0.5812073,4.6459227,0.79624367,4.8274956
1570726923,1.4108582,15.341156,-3.6030884,-0.57888794,0.59861755,0.5812073,1.5445611,4.345751,3.4814181
1570726923,1.4108582,15.341156,-3.6030884,-0.57888794,0.59861755,0.5812073,-0.8671832,-3.6469326,1.1593684
1570726923,1.4108582,15.341156,-3.6030884,-0.57888794,0.59861755,0.5812073,4.8657913,1.8057652,1.7912295
1570726923,1.4108582,15.341156,-3.6030884,-0.57888794,0.59861755,0.5812073,-0.87363553,-0.4870634,-1.8365397
1570726923,2.097992,12.978073,-6.8927155,-0.57888794,0.59861755,0.5812073,-1.2991803,-5.829035,-4.603551
1570726923,2.8354034,12.659653,-2.2671204,-0.57888794,0.59861755,0.5812073,-1.2991803,-5.829035,-4.603551
1570726923,3.1394806,8.594299,0.9315338,-0.57888794,0.59861755,0.5812073,-1.2991803,-5.829035,-4.603551
1570726923,1.7867432,6.162979,1.892807,-0.57888794,0.59861755,0.5812073,-1.2991803,-5.829035,-4.603551
1570726923,3.8996277,9.042007,-1.0879669,-0.57888794,0.59861755,0.5812073,-1.2991803,-5.829035,-4.603551
1570726923,4.4000244,15.246582,5.181244,-0.57888794,0.59861755,0.5812073,-1.2991803,-5.829035,-4.603551
1570726923,2.406845,13.471283,2.670929,-0.57888794,0.59861755,0.5812073,-1.2991803,-5.829035,-4.603551
1570726923,1.1666565,6.5556335,0.9494934,-0.57888794,0.59861755,0.5812073,-1.2991803,-5.829035,-4.603551
1570726923,-2.3863373,3.8717346,-0.03213501,-0.57888794,0.59861755,0.5812073,-1.2991803,-5.829035,-4.603551
1570726923,-0.48893738,9.648941,2.6900787,-0.57888794,0.59861755,0.5812073,-1.2991803,-5.829035,-4.603551
1570726923,4.16539,13.438965,-3.6773071,-0.57888794,0.59861755,0.5812073,-1.2991803,-5.829035,-4.603551
1570726923,1.4252319,8.669708,-0.58399963,-0.57888794,0.59861755,0.5812073,-1.2991803,-5.829035,-4.603551
1570726923,1.7987213,7.8449097,1.3253784,-0.57888794,0.59861755,0.5812073,-1.2991803,-5.829035,-4.603551
1570726923,2.2751617,9.727951,2.370453,-0.57888794,0.59861755,0.5812073,-1.2991803,-5.829035,-4.603551
1570726923,6.485367,11.487686,5.856415,-0.57888794,0.59861755,0.5812073,-1.2991803,-5.829035,-4.603551
1570726923,-1.8069458,16.074982,2.4997406,-0.57888794,0.59861755,0.5812073,-1.2991803,-5.829035,-4.603551
1570726923,0.9715271,5.7595673,1.9945679,-0.57888794,0.59861755,0.5812073,-1.2991803,-5.829035,-4.603551
1570726923,-0.36444092,5.660202,0.7579498,-0.57888794,0.59861755,0.5812073,-1.2991803,-5.829035,-4.603551
1570726923,6.0448456,12.474106,3.228775,-0.57888794,0.59861755,0.5812073,-1.2991803,-5.829035,-4.603551
1570726923,-1.574707,16.892593,1.655777,-0.57888794,0.59861755,0.5812073,-1.2991803,-5.829035,-4.603551
1570726923,0.7357025,12.434601,-5.8177185,-0.57888794,0.59861755,0.5812073,-1.2991803,-5.829035,-4.603551
1570726923,8.680847,20.438416,5.0854797,-0.57888794,0.59861755,0.5812073,-1.2991803,-5.829035,-4.603551
1570726923,1.7580261,10.530014,0.967453,-0.57888794,0.59861755,0.5812073,-1.2991803,-5.829035,-4.603551
1570726923,2.2739716,6.7447815,4.0691376,-0.57888794,0.59861755,0.5812073,-1.2991803,-5.829035,-4.603551
1570726923,1.848999,5.976242,2.2938385,-0.57888794,0.59861755,0.5812073,-1.2991803,-5.829035,-4.603551
1570726923,3.8553467,17.584518,6.3496094,-0.57888794,0.59861755,0.5812073,-1.2991803,-5.829035,-4.603551
1570726923,3.8577423,11.469727,1.8090057,-0.57888794,0.59861755,0.5812073,-1.2991803,-5.829035,-4.603551
1570726923,-1.3520508,7.463028,1.2272186,-0.57888794,0.59861755,0.5812073,-1.2991803,-5.829035,-4.603551
1570726923,0.40170288,4.0644684,0.012161255,-0.57888794,0.59861755,0.5812073,-1.2991803,-5.829035,-4.603551
1570726923,-2.385147,13.510788,3.6537476,-0.57888794,0.59861755,0.5812073,-1.2991803,-5.829035,-4.603551
1570726923,1.7161255,14.934143,-4.408737,-0.57888794,0.59861755,0.5812073,-1.4358189,1.4420271,1.5597408
1570726923,1.7161255,14.934143,-4.408737,-0.57888794,0.59861755,0.5812073,-1.4643612,-1.3485689,0.43783295
1570726923,1.7161255,14.934143,-4.408737,-0.57888794,0.59861755,0.5812073,0.8863301,1.1307278,-1.0229608
1570726923,7.1629333,20.289963,0.9614563,-0.57888794,0.59861755,0.5812073,2.0728827,2.1428137,-2.275218
1570726923,2.2512207,11.199188,0.057647705,-0.57888794,0.59861755,0.5812073,2.0728827,2.1428137,-2.275218
1570726923,2.014206,8.639786,1.2152557,-0.57888794,0.59861755,0.5812073,-3.5274012,6.477578,0.43509293
1570726923,2.014206,8.639786,1.2152557,-0.57888794,0.59861755,0.5812073,-3.152757,-3.0825472,-3.7003975
1570726923,2.631897,8.188477,0.85850525,-0.57888794,0.59861755,0.5812073,-3.2834902,-5.194515,-2.7564566
1570726923,3.0101929,7.838928,0.5065613,-0.57888794,0.59861755,0.5812073,-3.2834902,-5.194515,-2.7564566
1570726923,3.497406,8.760696,-2.866867,-0.57888794,0.59861755,0.5812073,2.626825,0.86483574,0.1515739
1570726923,3.497406,8.760696,-2.866867,-0.57888794,0.59861755,0.5812073,1.9064009,0.48681545,-5.9572735
1570726923,3.497406,8.760696,-2.866867,-0.57888794,0.59861755,0.5812073,-0.5414443,-1.9822283,2.2232847
1570726923,3.497406,8.760696,-2.866867,-0.57888794,0.59861755,0.5812073,6.172472,4.2438774,-0.7533835
1570726923,3.497406,8.760696,-2.866867,-0.57888794,0.59861755,0.5812073,0.865108,-1.7956333,-3.129085
1570726923,3.497406,8.760696,-2.866867,-0.57888794,0.59861755,0.5812073,0.86294246,-4.3166075,-2.5728219
1570726923,3.497406,8.760696,-2.866867,-0.57888794,0.59861755,0.5812073,-0.049776316,5.4572287,-2.87352
1570726923,3.497406,8.760696,-2.866867,-0.57888794,0.59861755,0.5812073,1.1730248,-2.2000399,2.26316
1570726923,3.497406,8.760696,-2.866867,-0.57888794,0.59861755,0.5812073,4.4093847,0.07310867,1.5830054
1570726923,3.497406,8.760696,-2.866867,-0.57888794,0.59861755,0.5812073,1.0483687,1.9586678,-3.673995
1570726923,3.497406,8.760696,-2.866867,-0.57888794,0.59861755,0.5812073,-1.6495736,1.6686811,4.830099
1570726923,3.497406,8.760696,-2.866867,-0.57888794,0.59861755,0.5812073,-0.97126985,-2.6226282,-4.282099
1570726923,3.497406,8.760696,-2.866867,-0.57888794,0.59861755,0.5812073,-4.058378,0.28629494,-1.2377715
1570726923,3.497406,8.760696,-2.866867,-0.57888794,0.59861755,0.5812073,-0.53766584,-0.24568844,1.1800975
1570726923,3.497406,8.760696,-2.866867,-0.57888794,0.59861755,0.5812073,4.553091,3.2288437,1.8806131
1570726923,3.497406,8.760696,-2.866867,-0.57888794,0.59861755,0.5812073,0.8934467,0.461442,-2.8776999
1570726923,5.956253,12.301712,-0.095581055,-0.57888794,0.59861755,0.5812073,-1.3414106,1.2046518,-3.3979585
1570726923,0.88414,14.9006195,-3.1290283,-0.57888794,0.59861755,0.5812073,-1.3414106,1.2046518,-3.3979585
1570726923,3.0197601,12.237076,-1.2950745,-0.57888794,0.59861755,0.5812073,-1.3414106,1.2046518,-3.3979585
1570726923,-0.18247986,7.817383,-0.052474976,-0.57888794,0.59861755,0.5812073,-1.3414106,1.2046518,-3.3979585
1570726923,0.04975891,12.085037,2.8002167,-0.57888794,0.59861755,0.5812073,-1.3414106,1.2046518,-3.3979585
1570726923,4.643036,10.049973,5.491287,-0.57888794,0.59861755,0.5812073,-1.3414106,1.2046518,-3.3979585
1570726923,0.04975891,9.824921,0.9135742,-0.57888794,0.59861755,0.5812073,-1.3414106,1.2046518,-3.3979585
1570726923,5.358902,12.161652,2.1669464,-0.57888794,0.59861755,0.5812073,-1.3414106,1.2046518,-3.3979585
1570726923,-0.6146393,10.988495,-2.0755768,-0.57888794,0.59861755,0.5812073,-1.3414106,1.2046518,-3.3979585
1570726923,4.1151123,10.528809,-0.14944458,-0.57888794,0.59861755,0.5812073,-1.3414106,1.2046518,-3.3979585
1570726923,0.9020996,10.234329,-0.13388062,-0.57888794,0.59861755,0.5812073,-1.3414106,1.2046518,-3.3979585
1570726923,3.3693237,11.984482,-0.11592102,-0.57888794,0.59861755,0.5812073,-1.3414106,1.2046518,-3.3979585
1570726923,5.2691193,13.640076,-0.15663147,-0.57888794,0.59861755,0.5812073,-1.3414106,1.2046518,-3.3979585
1570726923,-0.2171936,10.59465,-0.92277527,-0.57888794,0.59861755,0.5812073,-1.3414106,1.2046518,-3.3979585
1570726923,3.01857,10.516846,-0.10395813,-0.57888794,0.59861755,0.5812073,-1.3414106,1.2046518,-3.3979585
1570726923,1.2660065,10.958572,0.26235962,-0.57888794,0.59861755,0.5812073,-1.3414106,1.2046518,-3.3979585
1570726923,1.833435,5.984619,1.0081482,-0.57888794,0.59861755,0.5812073,-1.3414106,1.2046518,-3.3979585
1570726923,1.5832367,8.915115,1.9790039,-0.57888794,0.59861755,0.5812073,-1.3414106,1.2046518,-3.3979585
1570726923,1.433609,8.978561,5.7965546,-0.57888794,0.59861755,0.5812073,-1.3414106,1.2046518,-3.3979585
1570726923,1.8597717,19.66269,-0.66778564,-0.57888794,0.59861755,0.5812073,-1.3414106,1.2046518,-3.3979585
1570726923,0.4950714,10.151718,-3.993332,-0.57888794,0.59861755,0.5812073,-1.3414106,1.2046518,-3.3979585
1570726923,2.405655,8.159744,1.1649628,-0.57888794,0.59861755,0.5812073,-1.3414106,1.2046518,-3.3979585
1570726923,1.3246765,7.6102753,6.691986,-0.57888794,0.59861755,0.5812073,-1.3414106,1.2046518,-3.3979585
1570726923,1.9567413,5.9032135,-0.98861694,-0.57888794,0.59861755,0.5812073,-1.3414106,1.2046518,-3.3979585
1570726923,5.6509857,15.924149,6.7123413,-0.57888794,0.59861755,0.5812073,-1.3414106,1.2046518,-3.3979585
1570726923,0.6171875,17.000336,3.7100067,-0.57888794,0.59861755,0.5812073,-1.3414106,1.2046518,-3.3979585
1570726923,1.1307373,5.6386566,1.2619324,-0.57888794,0.59861755,0.5812073,-1.3414106,1.2046518,-3.3979585
1570726923,-1.6010437,5.5752106,0.45388794,-0.57888794,0.59861755,0.5812073,-1.3414106,1.2046518,-3.3979585
1570726923,4.773514,9.937439,9.861908,-0.57888794,0.59861755,0.5812073,-1.3414106,1.2046518,-3.3979585
1570726923,0.041381836,15.669159,0.28749084,-0.57888794,0.59861755,0.5812073,-1.3414106,1.2046518,-3.3979585
1570726923,6.050827,14.144058,-0.0045928955,-0.57888794,0.59861755,0.5812073,-1.3414106,1.2046518,-3.3979585
1570726923,2.2368622,8.613449,0.1618042,-0.57888794,0.59861755,0.5812073,-1.3414106,1.2046518,-3.3979585
1570726923,1.2312927,8.098694,0.7950592,-0.57888794,0.59861755,0.5812073,-1.3414106,1.2046518,-3.3979585
1570726923,4.465866,11.836044,1.9909668,-0.57888794,0.59861755,0.5812073,-1.3414106,1.2046518,-3.3979585
1570726923,2.1291199,16.300034,5.267441,-0.57888794,0.59861755,0.5812073,-1.3414106,1.2046518,-3.3979585
1570726923,3.6506348,11.192001,2.5931091,-0.57888794,0.59861755,0.5812073,-1.3414106,1.2046518,-3.3979585
1570726923,-0.44345093,5.7332306,0.9470978,-0.57888794,0.59861755,0.5812073,-1.3414106,1.2046518,-3.3979585
1570726923,-1.4107056,5.054474,1.6653595,-0.57888794,0.59861755,0.5812073,-1.3414106,1.2046518,-3.3979585
1570726923,7.865631,15.13884,9.885849,-0.57888794,0.59861755,0.5812073,-1.3414106,1.2046518,-3.3979585
1570726923,2.6295166,15.440521,-2.6513824,-0.57888794,0.59861755,0.5812073,-2.649796,1.2244368,-2.878293
1570726923,2.4427643,15.440521,-2.6513824,-0.57888794,0.59861755,0.5812073,-1.922893,-2.0241356,-0.73911405
1570726923,2.4427643,15.440521,-2.6513824,-0.57888794,0.59861755,0.5812073,-1.0543978,5.037406,-1.1445838
1570726923,2.4427643,15.440521,-2.6513824,-0.57888794,0.59861755,0.5812073,-0.39026666,0.070287704,-0.16940129
1570726923,-0.33929443,8.766678,4.825699,-0.57888794,0.59861755,0.5812073,-4.354796,-1.6432047,-1.570775
1570726923,-2.1924133,22.916412,2.2962341,-0.07394409,-1.3103333,0.3447113,-4.354796,-1.6432047,-1.570775
1570726923,-2.1924133,22.916412,2.2962341,-0.07394409,-1.3103333,0.3447113,-4.354796,-1.6432047,-1.570775
1570726923,-2.5647125,14.036316,6.711136,-0.9996643,1.2803802,-0.17726135,-4.354796,-1.6432047,-1.570775
1570726923,4.142639,13.245026,-1.9917908,-0.65452576,-0.13215637,-0.21134949,-4.6524363,-2.9515305,-3.4017458
1570726923,5.698883,14.922165,-0.2607727,-0.65452576,-0.13215637,-0.21134949,1.3364929,2.0432549,4.604083
1570726923,-3.8707428,6.7016754,4.9514008,-3.1728058,3.0561829,-1.8326874,-2.0619187,-3.2393837,-0.6504798
1570726923,-3.8707428,6.7016754,4.9514008,-3.1728058,3.0561829,-1.8326874,-2.0619187,-3.2393837,-0.6504798
1570726923,-3.8707428,6.7016754,4.9514008,-3.1728058,3.0561829,-1.8326874,-2.0619187,-3.2393837,-0.6504798
1570726923,-3.8707428,6.7016754,4.9514008,-3.1728058,3.0561829,-1.8326874,-2.0619187,-3.2393837,-0.6504798
1570726923,-3.8707428,6.7016754,4.9514008,-3.1728058,3.0561829,-1.8326874,-2.0619187,-3.2393837,-0.6504798
1570726923,-3.8707428,6.7016754,4.9514008,-3.1728058,3.0561829,-1.8326874,-2.0619187,-3.2393837,-0.6504798
1570726923,-3.8707428,6.7016754,4.9514008,-3.1728058,3.0561829,-1.8326874,-2.0619187,-3.2393837,-0.6504798
1570726923,-3.8707428,6.7016754,4.9514008,-3.1728058,3.0561829,-1.8326874,-2.0619187,-3.2393837,-0.6504798
1570726924,-3.8707428,6.7016754,4.9514008,-3.1728058,3.0561829,-1.8326874,-2.0619187,-3.2393837,-0.6504798
1570726924,1.675415,10.479721,7.999222,-3.1728058,3.0561829,-1.8326874,-2.0619187,-3.2393837,-0.6504798
1570726924,-1.3029633,4.028549,8.231461,-5.2990723,1.1919708,0.10183716,0.6666888,-0.24167204,-1.9438181
1570726924,-1.5687256,3.3234558,8.542709,-3.479599,0.7829132,-0.69711304,0.8362818,1.149276,-1.5583639
1570726924,-1.7973633,3.0289764,9.147232,-2.2747803,1.2324524,-0.52453613,0.683862,1.6110402,-1.2321291
1570726924,-2.6951904,2.560913,11.243362,-1.1860809,1.5094147,-0.2124176,0.4183004,1.5900211,0.64261436
1570726924,-2.7035675,1.5936432,10.143219,-0.08140564,0.32484436,-0.35835266,0.47317314,1.4918957,4.2423306
1570726924,-2.8113098,2.1838226,5.8324738,-0.5245514,0.19700623,-0.314682,0.5723336,1.650172,-3.6773148
1570726924,-2.3947296,1.3685913,8.068649,-1.4928894,-0.26531982,-0.7631531,1.3549125,1.0841584,-2.7375984
1570726924,-3.7187195,0.86221313,10.707062,-1.6334991,-0.8256378,-0.62786865,-0.28982687,1.2871875,0.63610077
1570726924,-3.6504822,0.26246643,9.701492,-1.1498718,-0.5369568,-0.08883667,-0.7361057,0.4574582,0.6056099
1570726924,-1.5555573,-0.5707092,11.780853,-1.0667725,-0.9790344,-0.11227417,2.04459,0.18047106,2.9031506
1570726924,-1.3903503,0.26846313,10.616089,-0.40737915,-0.83628845,-0.26461792,1.2272961,1.577971,0.6368351
1570726924,-2.5647125,-0.16848755,10.180344,-0.11442566,-0.5199127,-0.43185425,0.47719073,1.0138822,-0.2059946
1570726924,-3.333252,-0.100250244,9.377075,0.07305908,-0.2908783,0.05496216,-1.2490025,1.390583,-0.76775646
1570726924,-2.4581757,0.39175415,8.258987,-0.24012756,-0.7382965,0.39691162,-0.448426,1.8773035,-2.0200825
1570726924,-1.653717,0.23374939,9.782898,-0.44360352,-0.8341675,0.3127594,-0.11046529,1.6758783,-0.7676573
1570726924,-1.2886047,0.112838745,9.14006,-0.5426636,-0.7382965,0.081604004,0.26283967,1.6792979,-1.3018026
1570726924,-1.605835,-0.011657715,9.998383,-0.43721008,-0.4634552,-0.16767883,-0.026471853,1.666865,-0.37581348
1570726924,-1.8213043,-0.35762024,8.991623,-0.30723572,-0.32922363,-0.15382385,-0.6154406,1.6497782,-1.4339008
1570726924,-1.1652985,-1.0806732,9.598541,-0.2742157,-0.3888855,0.07839966,-0.09518719,0.9282696,-0.99435806
1570726924,-0.6074524,-1.2793884,9.487213,-0.09312439,-0.318573,0.27441406,0.31325698,0.5206766,-0.8918028
1570726924,-0.5811157,-0.960968,9.409409,-0.07182312,-0.16091919,0.3361969,0.4216329,1.0255415,-0.94153214
1570726924,-0.8133545,-0.6161957,9.118515,-0.4148407,0.11817932,0.45336914,0.18842494,1.3059921,-1.5574598
1570726924,-0.99890137,-0.69281006,9.268143,-0.51390076,0.26731873,0.7814789,0.016188145,1.6506376,-1.1043911
1570726924,-0.99650574,-1.4409943,10.00795,-0.39779663,0.12670898,0.72076416,0.2674929,0.8551767,-0.25860405
1570726924,-1.480133,-1.3560028,9.240616,-0.32962036,-0.0032653809,0.42674255,-0.26962185,1.1642811,-0.8411875
1570726924,-1.7961731,-1.0124359,9.271744,-0.55119324,0.07557678,0.4373932,-0.22415137,1.3646693,-0.8741827
1570726924,-1.7961731,-1.0124359,9.271744,-0.55119324,0.07557678,0.4373932,-0.22415137,1.3646693,-0.8741827
1570726925,-2.4737244,-1.3236847,10.258148,0.15827942,-0.09700012,0.7868042,0.3904345,1.4233644,-0.2176714
1570726925,-2.4737244,-1.3236847,10.258148,0.15827942,-0.09700012,0.7868042,0.3904345,1.4233644,-0.2176714
1570726925,-2.4737244,-1.3236847,10.258148,0.15827942,-0.09700012,0.7868042,0.3904345,1.4233644,-0.2176714
1570726925,-2.4737244,-1.3236847,10.258148,0.15827942,-0.09700012,0.7868042,0.3904345,1.4233644,-0.2176714
1570726925,-2.4737244,-1.3236847,10.258148,0.15827942,-0.09700012,0.7868042,0.3904345,1.4233644,-0.2176714
1570726925,-2.4737244,-1.3236847,10.258148,0.15827942,-0.09700012,0.7868042,0.3904345,1.4233644,-0.2176714
1570726925,-2.4737244,-1.3236847,10.258148,0.15827942,-0.09700012,0.7868042,0.3904345,1.4233644,-0.2176714
1570726925,-2.4737244,-1.3236847,10.258148,0.15827942,-0.09700012,0.7868042,0.3904345,1.4233644,-0.2176714
1570726925,-2.4737244,-1.3236847,10.258148,0.15827942,-0.09700012,0.7868042,0.3904345,1.4233644,-0.2176714
1570726925,-2.4737244,-1.3236847,10.258148,0.15827942,-0.09700012,0.7868042,0.3904345,1.4233644,-0.2176714
1570726925,-2.4737244,-1.3236847,10.258148,0.15827942,-0.09700012,0.7868042,0.3904345,1.4233644,-0.2176714
1570726925,-2.4737244,-1.3236847,10.258148,0.15827942,-0.09700012,0.7868042,0.3904345,1.4233644,-0.2176714
1570726925,-2.4737244,-1.3236847,10.258148,0.15827942,-0.09700012,0.7868042,0.3904345,1.4233644,-0.2176714
1570726925,-3.3775482,-0.69880676,9.471649,0.47146606,-0.5891571,0.5119629,-0.55925035,1.0248551,-0.51170063
1570726925,-2.7299042,-0.5671234,9.4058075,0.35534668,-0.21205139,0.68666077,0.07114482,0.9904387,-0.64305496
1570726925,-2.4593658,-0.292984,9.149628,0.2594757,-0.3462677,0.6429901,0.27944207,1.1109834,-0.9001131
1570726925,-2.977707,-0.213974,8.976059,0.11886597,-0.1385498,0.59931946,-0.28235173,1.0658191,-1.0833616
1570726925,-2.8891296,-0.31333923,8.838394,-0.06329346,0.10006714,0.72927856,-0.16923165,0.8785174,-1.2387896
1570726925,-2.7359009,-0.23072815,9.162796,-0.24438477,-0.051193237,0.85072327,0.026081562,0.9557508,-0.8764286
1570726925,-2.761032,0.31993103,9.729034,-0.25291443,-0.046936035,0.80171204,-0.0057172775,1.4832137,-0.36279678
1570726925,-2.9824982,0.53302,10.316803,-0.05796814,-0.6264343,0.73353577,-0.28935218,1.7260065,0.25702095
1570726925,-3.2973328,-0.05595398,9.695511,-0.0068359375,-0.96199036,1.0137024,-0.8030913,1.0495954,-0.39509487
1570726925,-2.8280792,0.14276123,9.96965,-0.23480225,-0.9555969,1.3993378,-0.6431012,1.1581755,-0.19608688
1570726925,-2.088272,0.30078125,9.7374115,-0.31362915,-0.9375,1.64328,-0.12099111,1.3114967,-0.49386215
1570726925,-1.4885101,0.45161438,9.893036,-0.24438477,-0.9215088,1.7679138,0.26690435,1.45121,-0.39945412
1570726925,-1.5004883,0.14276123,10.307236,-0.044128418,-0.8128662,1.9170532,0.04162824,1.1308626,-0.046401024
1570726925,-0.843277,-0.34924316,10.375458,0.3755951,-1.1782379,1.9064026,0.43157303,0.44738597,0.028593063
1570726925,-0.8169403,-0.09187317,9.155624,0.21260071,-0.20779419,1.5751038,0.24229431,0.5249763,-1.1800861
1570726925,-0.9869385,0.13198853,9.488419,0.07199097,0.6412201,1.5079803,0.22326219,0.6454063,-0.87162685
1570726925,-1.7231445,0.5270386,9.348358,-0.043060303,0.7605438,1.6826935,-0.26399016,0.9843915,-0.995759
1570726925,-1.8811646,0.0050964355,10.179138,-0.070755005,0.67744446,2.1119995,-0.18645847,0.42350614,-0.15289116
1570726925,-1.574707,-0.30854797,10.267731,-0.13999939,0.2651825,1.8371582,0.31561816,0.027994633,-0.01997757
1570726925,-1.8859558,-0.064331055,10.136047,-0.0664978,-0.42723083,1.4270325,-0.026616454,0.1896536,-0.086696625
1570726925,-2.1349487,0.086502075,9.481232,-0.16343689,-0.2163086,1.1766968,-0.37176907,0.3023411,-0.8325443
1570726925,-2.0355988,0.4444275,9.930145,-0.21029663,-0.25253296,1.1148987,-0.3651787,0.66938925,-0.38108253
1570726925,-1.1545258,0.17507935,9.622482,0.008071899,-0.5603943,1.3002625,0.37620032,0.3730621,-0.669158
1570726925,-0.8241272,-0.37078857,9.288498,-0.030273438,-0.25146484,0.9061127,0.69531596,-0.1700621,-1.064455
1570726925,-1.377182,-0.069122314,10.037888,-0.14958191,0.5133972,0.6334076,0.09475958,0.047490656,-0.30101204
1570726926,-1.6776581,-0.004486084,9.922958,0.30316162,0.41539,0.30210876,-0.0275954,0.035164304,-0.29807281
1570726926,-1.6513214,0.46717834,9.673965,0.3020935,0.1554718,0.24351501,-0.020029068,0.45412868,-0.6607599
1570726926,-1.7207489,0.7089844,9.803253,0.25735474,-0.2919464,0.12420654,-0.011120915,0.5845482,-0.4591732
1570726926,-1.708786,0.71377563,9.408203,0.23817444,-0.19926453,0.1359253,-0.16398108,0.4773057,-0.8015499
1570726926,-1.5998535,1.0633392,9.39624,0.24989319,-0.07676697,0.15190125,-0.023156524,0.7433032,-0.843997
1570726926,-1.6489258,0.9927063,9.531509,0.1998291,0.114990234,0.24777222,-0.024503946,0.6014016,-0.8098297
1570726926,-1.8835602,0.9496155,9.739807,0.17211914,0.07130432,0.3138275,-0.28040874,0.5211651,-0.5060463
1570726926,-1.8153229,0.9160919,9.976822,0.11993408,0.10006714,0.3905182,-0.08240366,0.44078684,-0.4393978
1570726926,-1.74469,0.9735565,9.8714905,0.018722534,-0.18222046,0.49172974,-0.20843506,0.41198927,-0.23869991
1570726926,-1.5340118,0.9101105,9.925354,0.100753784,-0.48262024,0.6131592,-0.057824492,0.1787023,-0.1817398
1570726926,-1.4178925,1.3027496,9.695511,0.3148651,-0.46984863,0.5780182,-0.051793814,0.5303508,-0.5970564
1570726926,-1.88237,1.3099365,9.9086,0.18597412,-0.23123169,0.5854645,-0.59927595,0.5627743,-0.510828
1570726926,-1.2610626,1.0058746,10.080978,0.01020813,-0.1662445,0.67601013,-0.17008674,0.188088,-0.19333744
1570726926,-1.2562866,1.0537567,9.764938,0.062408447,-0.08421326,0.6238251,-0.1803571,0.16811174,-0.5222206
1570726926,-1.8021545,1.5098572,9.84874,0.08157349,-0.04586792,0.7399292,-0.6410116,0.5103649,-0.47415352
1570726926,-1.5435791,1.7121582,9.736206,0.027252197,-0.050125122,0.9306183,-0.6158178,0.714934,-0.45838547
1570726926,-1.2012177,1.8582153,9.551865,-0.08673096,0.17251587,1.0446014,-0.15503585,0.8083806,-0.7745161
1570726926,-1.1246033,1.6894226,9.259766,-0.26782227,0.38023376,1.1894684,-0.08763409,0.6812625,-0.9123783
1570726926,-0.115448,1.458374,9.181961,-0.4425354,1.116333,1.0648346,0.9419563,0.58711267,-1.2817717
1570726926,-1.356842,1.1698761,9.35553,-0.4414673,1.6180725,0.7665558,0.5965884,0.398045,-1.0344601
1570726926,-1.818924,0.33670044,11.183502,-0.3945923,0.60180664,0.80384827,0.09551442,-0.2704144,0.7669735
1570726926,-2.8723602,0.49830627,10.845932,0.06985474,-0.68821716,0.7175598,-0.94130087,-0.31009495,0.78864384
1570726926,-2.886734,1.1387482,9.81282,0.09010315,-0.6669159,0.73353577,-1.3380083,0.17952102,0.0071754456
1570726926,-2.2175446,1.2021942,10.549042,-0.03666687,-0.3377533,0.6898651,-1.0377777,0.3078643,0.38847733
1570726926,-1.614212,1.770813,9.75177,-0.13999939,-0.5507965,0.1870575,-0.13172519,0.9513295,-0.66213703
1570726926,-1.3245087,1.1387482,10.272507,0.013397217,-0.079956055,0.06881714,-0.062064648,0.3472405,0.057258606
1570726926,-1.4980927,1.2273407,9.590164,0.028320312,0.10752869,0.06774902,-0.35204637,0.38574052,-0.50533485
1570726926,-1.8620148,1.3434601,9.142456,-0.10058594,0.05958557,0.025146484,-0.41286945,0.4522192,-1.009902
1570726926,-1.4585876,1.3386688,9.67276,-0.31576538,-0.23123169,0.046447754,-0.20282793,0.52708715,-0.5584011
1570726926,-1.4945068,0.88616943,9.933731,-0.29019165,0.027633667,0.03152466,-0.270975,0.2117089,-0.25260258
1570726926,-1.5184479,1.1040344,9.493195,-0.21456909,0.3323059,0.023010254,-0.3970127,0.29772145,-0.7301054
1570726926,-1.4777374,1.4990845,8.994003,-0.28700256,0.17570496,0.011291504,-0.11496019,0.9184311,-1.0161352
1570726926,-1.8296967,0.50787354,9.325607,-0.43400574,-0.10765076,0.03579712,-0.39728165,0.25886282,-0.8247347
