time,ax,ay,az,gx,gy,gz,la_x,la_y,la_z,fox,foy,foz
1570715250,-5.9519854,-1.7477672,5.3486466,-0.10120321,1.2495933,-0.175774,-1.3215994,-0.23942018,-3.1651347
1570715250,-6.83784,-2.2026656,12.061988,0.11505207,0.7041613,-0.15979454,-1.8722657,-0.6799533,3.739743
1570715250,-6.1626754,-1.1683705,7.9248075,0.12890093,0.6498311,-0.42718408,-1.1013328,0.37349546,-0.33039984
1570715250,-5.6359506,-0.81881696,7.5082164,-0.10013791,0.9992485,-0.5731298,-0.39743748,0.78050977,-0.62728083
1570715250,-5.592855,-1.3694834,8.441956,-0.64450467,0.9672896,-0.3845722,-0.12928689,0.4165911,0.49320555
1570715250,-6.540959,-2.3654714,8.169016,-0.74464256,0.93000424,-0.1384886,-0.90021986,-0.37828386,0.39264908
1570715250,-6.6654577,-1.9153614,8.63828,-0.8138869,1.610729,-0.312132,-0.5746084,0.47884035,0.50757074
1570715250,-5.7365074,-1.0486604,7.9104424,0.07137489,0.45914298,-0.14168449,0.4213795,1.2976574,0.6464345
1570715250,-6.5696893,-0.8714894,7.5848308,0.6072193,-0.17790459,0.22584295,-0.1388637,1.7525556,0.29688102
1570715250,-7.1059904,-2.695871,6.9862804,-0.039415985,-0.035154797,0.091615535,-0.9911995,-0.5793968,-0.38307226
1570715250,-6.5122285,-2.0638018,6.9048777,-0.12463974,0.25141007,-0.07776668,-0.44532153,-0.12928689,-0.5554548
1570715250,-5.837064,-2.078167,7.0341644,-0.14168449,0.3824416,-0.094811425,0.35434186,0.08619126,-0.25378537
1570715251,-4.663905,-2.255338,7.6470804,-0.089484945,0.119313255,0.07883197,1.3790601,0.076614454,0.47405192
1570715251,-6.220136,-2.8778305,7.297527,-0.2865649,-0.24075711,0.37391922,0.24899697,-1.0295067,0.14844051
1570715251,-6.8091097,-2.4851813,6.6079965,-1.0109668,-0.3451562,0.54330146,-0.58418524,-0.18195933,-0.62249243
1570715251,-6.229713,-3.2704794,6.172252,-1.5766394,-0.39522517,0.22690825,-0.11971009,-0.79487497,-1.0869676
1570715251,-6.4787097,-3.1124623,6.8905125,-1.628839,-0.16192514,0.122509144,-0.4213795,-0.31124622,-0.29688102
1570715251,-7.0245876,-2.9017725,6.4020953,-1.3444047,0.08522376,0.15233746,-0.9528923,0.18674773,-0.6512229
1570715251,-7.029376,-3.4476504,6.172252,-0.9832691,0.33237264,-0.01384886,-0.92895025,-0.05746084,-0.80445176
1570715251,-6.95755,-3.3806129,6.157887,-0.8735435,0.7979074,-0.35687447,-0.7517793,-0.05267244,-0.8331822
1570715251,-6.981492,-3.4811692,6.205771,-0.8692823,0.98433435,-0.5550197,-0.61291564,0.33039984,-0.20111294
1570715251,-7.479486,-4.10845,5.947197,-0.83306223,0.85862935,-0.43037996,-0.92895025,0.0047884034,-0.2825158
1570715251,-8.049306,-3.4476504,5.568913,-0.9310695,0.70203066,-0.22903883,-1.4700398,0.80924016,-0.2681506
1570715251,-7.0581064,-4.0462008,5.923255,-0.8437152,0.5017549,0.0031958907,-0.4405331,0.51235914,0.272939
1570715251,-6.933608,-4.0174704,5.841852,-0.6913777,-0.029828314,0.22797355,-0.20111294,0.38307226,0.2825158
1570715251,-7.627927,-4.6016555,5.3821654,-0.6647453,-0.43570644,0.4239882,-0.7517793,0.10534488,-0.08140286
1570715251,-8.111555,-4.783615,4.6112323,-0.64663523,-0.18855755,0.42292288,-1.283292,-0.21547815,-0.8714894
1570715251,-7.1873937,-4.7500963,5.023035,-0.72333664,0.26845482,0.43144527,-0.6368576,-0.02873042,-0.58897364
1570715251,-6.339846,-5.3965306,5.0278234,-0.68605125,0.2759119,0.22264706,0.521936,-0.5746084,-0.1388637
1570715251,-6.71813,-6.679823,3.3806129,-0.419727,0.21838588,0.13635801,-0.11492168,-1.0103531,-1.1061212
1570715251,-6.373365,-5.5162406,3.347094,0.81069094,0.7584914,-0.653027,0.60333884,-0.15801731,-2.4181437
1570715251,-6.8186865,-4.4436383,4.295198,-0.0021305939,1.1494554,-0.71587956,0.34955344,0.05746084,-0.6847417
1570715251,-9.361329,-5.415684,3.6583402,-1.6309696,0.9001759,-0.36113566,-2.207454,0.06703765,-0.36870706
1570715251,-9.361329,-5.415684,3.6583402,-1.6309696,0.9001759,-0.36113566,-2.207454,0.06703765,-0.36870706
1570715251,-9.150639,-5.45878,3.2130187,-1.356123,0.7883197,-0.015979454,-1.9153614,-0.110133275,-0.521936
1570715251,-8.542512,-3.6152446,3.7493198,-0.85436815,0.8064298,0.1033338,-1.3263878,1.7764976,0.41180268
1570715251,-8.829816,-4.462792,2.480393,-1.1292148,0.6967042,0.31745848,-1.4413095,1.2066777,-0.58897364
1570715251,-9.021352,-5.616797,0.6991069,-1.1878061,1.0429257,0.19068815,-1.6472107,-0.25378537,-2.0111294
1570715251,-8.049306,-4.390966,1.6903064,-1.7193892,0.8224092,0.3483521,-0.4261679,1.364695,-0.4213795
1570715251,-7.5848308,-5.434838,0.4309563,-1.6160555,0.56993383,0.37072334,0.10055647,0.48841715,-1.1252748
1570715251,-7.9152308,-5.793968,0.17238252,-1.4274979,0.6359823,0.09907261,-0.110133275,-0.009576807,-1.1827357
1570715251,-7.642292,-4.6160207,1.0582372,-1.7620012,0.64663523,-0.17683929,0.16280572,1.2401965,0.1340753
1570715251,-7.019799,-5.717354,1.508347,-0.8053645,0.64343935,-0.20347172,0.7661445,0.21547815,0.9911995
1570715251,-8.226477,-4.3957543,1.8579005,1.697018,1.3113805,-0.487906,-0.48362875,1.5993267,1.364695
1570715251,-6.9719152,-4.7500963,1.5035586,0.22797355,1.6085984,-1.1217576,0.61770403,1.4508862,1.2449849
1570715251,-5.2385135,-4.620809,2.336741,0.57099915,1.2357445,-1.3113805,2.1260512,1.8483237,2.2840683
1570715252,-6.5361705,-5.4922986,-0.30166942,0.22477765,0.9118942,-1.6980833,0.51235914,1.316811,-0.17238252
1570715252,-9.150639,-5.6359506,-1.7860745,-0.4506206,1.0205544,-0.98433435,-2.4037786,1.4748282,-1.4748282
1570715252,-6.6846113,-8.604761,-2.1643584,-0.15233746,0.7542302,0.24608359,0.038307227,-1.4891934,-1.5658079
1570715252,-5.363012,-7.144298,-2.030283,0.2428877,0.46979594,0.4239882,1.4269443,-0.110133275,-1.2976574
1570715252,-8.686164,-8.331821,-1.6424223,-0.11079088,1.306054,0.47192654,-1.8004397,-1.3982137,-0.7565677
1570715252,-10.860099,-12.512098,-6.9144545,0.19707993,2.1444428,-2.2296665,-4.189853,-5.4204726,-5.7029886
1570715252,-5.707777,-2.7389667,1.8770541,-0.74038136,4.585038,-7.1705136,-0.4309563,5.3007627,3.7972038
1570715252,-2.3175871,-5.1140146,3.169923,-0.33343795,1.1281495,-1.7098016,0.9911995,2.3080103,7.9631147
1570715252,-5.425261,-5.851429,-3.3997664,-0.5315832,-1.3944737,-0.37285393,-1.2018893,1.9967642,-0.4309563
1570715252,-5.1475334,-4.7500963,-3.667917,-0.18216577,0.15233746,-0.986465,-1.1444284,3.8786068,-1.1827357
1570715252,-2.552219,-6.6846113,-4.2281604,0.06285252,0.54649734,-1.1334759,1.1300632,2.2505496,-1.958457
1570715252,-2.5809495,-8.106767,-3.6583402,0.46340418,-0.2066676,-0.85010695,0.8523358,1.412579,-0.7134721
1570715252,-2.9640217,-8.580819,-4.2042184,1.1824796,-0.7797974,-0.7627526,0.45489833,0.19153613,-2.5091233
1570715252,-3.6296098,-13.522451,-2.6910827,1.628839,-0.62639457,-0.49642837,-0.11971009,-3.6870706,-1.1875241
1570715252,-4.027047,-13.259089,-0.04309563,0.93000424,0.28549957,-0.4911019,-1.0103531,-4.5920787,0.51714754
1570715252,-3.8355112,-8.968679,0.8283938,-0.1384886,0.2780425,-0.009587673,-0.5793968,0.22026655,1.043872
1570715252,-3.5434184,-7.656657,-3.3039982,-1.1366718,0.34302562,0.043677174,-0.6655881,1.0726024,-0.4357447
1570715252,-3.8163576,-9.02614,-3.3375173,-0.79471153,0.76168734,-0.08415846,-0.93852705,0.34955344,-1.9393034
1570715252,-2.954445,-8.901642,-4.2904096,0.2801731,-0.3483521,-0.11505207,-0.1340753,0.20111294,-2.5378537
1570715252,-3.1124623,-9.112331,-1.3694834,0.77873206,-0.4868407,-0.20347172,-0.05746084,0.11971009,-0.10055647
1570715252,-1.9536686,-9.179369,-0.5267244,-0.0031958907,-0.12144385,-0.09694202,1.0821792,0.1388637,1.2880806
1570715252,-2.4133554,-9.030929,-2.3894134,-0.47618774,0.12570503,-0.028763017,0.5315128,0.19153613,-0.4261679
1570715252,-2.432509,-9.14585,-3.2321723,-0.08522376,0.0010652969,-0.017044751,0.4309563,0.033518825,-1.4460979
1570715252,-2.7246015,-9.361329,-2.0685902,0.26845482,-0.092680834,-0.015979454,0.272939,-0.20111294,-0.62728083
1570715252,-1.541866,-3.6152446,-1.5514427,0.98859555,-0.24501829,0.023436533,0.29688102,6.2009826,-4.1036615
1570715252,-4.285621,-7.8769236,-1.460463,0.40800872,-0.2791078,0.11505207,-0.92895025,1.9393034,-0.37349546
1570715252,-3.0310593,-8.350976,-2.1499932,0.19175345,0.11505207,-0.46660006,-0.30166942,1.0055647,-0.92895025
1570715252,-2.9161377,-9.457097,-1.5658079,0.14381509,0.12570503,-0.5869786,-0.0047884034,-0.18195933,-0.2681506
1570715252,-2.2266076,-7.848193,-1.4987702,-0.01065297,0.15127216,-0.6370476,0.59855044,0.8858546,-0.5315128
1570715252,-1.8339585,-7.1873937,-1.8866309,-0.47299185,0.42505348,-0.41653112,0.7182605,2.1787236,-0.51714754
1570715252,-1.9057846,-9.385271,-2.2649148,-0.7552955,0.6274599,-0.42824936,0.10534488,-0.16759412,-0.3878607
1570715252,-2.006341,-9.040505,-2.4899697,-0.5646074,0.33343795,-0.054330144,0.38307226,-0.095768064,-0.58418524
1570715252,-2.1547816,-9.308656,-2.8107927,-0.3845722,0.26312834,0.18110047,0.2633622,-0.0047884034,-0.8619126
1570715253,-2.1164744,-8.12592,-2.9017725,-0.29934844,0.2865649,0.32598087,0.29209262,1.1492168,-0.81881696
1570715253,-1.934515,-10.7116585,-3.5577838,-0.21732058,0.31532788,0.43037996,-0.320823,0.2777274,-0.61291564
1570715253,-2.6623523,-11.209652,-2.6001031,1.3912778,-0.2759119,0.0042611877,-0.41180268,-3.739743,-0.6847417
1570715253,-2.8682537,-11.099519,-1.4556746,0.5230608,-0.08628905,-0.058591332,-0.30166942,-1.7812861,0.21068975
1570715253,-2.7581203,-12.325351,-1.5035586,-0.3163932,-0.29082605,-0.031958908,-0.18674773,-3.0071173,0.15801731
1570715253,-2.815581,-10.199299,-2.4612393,-0.2791078,-0.2780425,-0.120378554,-0.25378537,-0.89064306,-0.7374141
1570715253,-2.231396,-8.322245,-2.767697,-0.07350549,-0.1054644,-0.113986775,0.5554548,0.9816227,-1.0151415
1570715253,-2.7820623,-9.859323,-1.8052281,-0.07989727,-0.022371236,-0.02450183,-0.24899697,-0.5506664,-0.019153614
1570715253,-3.3039982,-9.892841,-1.9536686,0.120378554,0.07244019,-0.18642697,-0.79487497,-0.5746084,-0.17717093
1570715253,-2.6671407,-8.939949,-1.4939818,0.044742472,0.16618632,-0.29295665,-0.15322891,0.18195933,0.15322891
1570715253,-2.7485435,-8.269572,-1.9440918,-0.028763017,0.064983115,-0.31319728,-0.33039984,1.0055647,-0.033518825
1570715253,-2.9975405,-8.868123,-2.3942018,0.24075711,0.1747087,-0.32278496,-0.7613561,0.36870706,-0.46926352
1570715253,-3.0119057,-9.730036,-1.5945383,0.23862651,0.25780186,-0.38883337,-0.8762778,-0.30645782,0.10055647
1570715253,-2.777274,-9.749189,-1.6519991,0.23436533,0.12783563,-0.49855897,-0.7230489,-0.35434186,0.0047884034
1570715253,-2.6719291,-9.476251,-1.9009962,0.23543063,-0.020240642,-0.59656626,-0.80924016,-0.062249243,-0.23463176
1570715253,-2.7102363,-9.548077,-1.8435353,0.21412468,-0.063917816,-0.64876586,-0.9624691,0.04309563,-0.36391866
1570715253,-2.3942018,-10.180145,-1.9249382,0.20347172,-0.21625528,-0.6114804,-0.9768343,-0.59855044,-0.45010993
1570715253,-1.7477672,-9.44752,-2.1691468,0.24075711,-0.32704616,-0.5592809,-0.47405192,0.10055647,-0.79487497
1570715253,-1.7381904,-9.385271,-2.0925324,0.2066676,-0.30893612,-0.49749365,-0.545878,0.3878607,-0.7469909
1570715253,-0.4165911,-10.103531,-2.4660277,0.18216577,-0.4474247,-0.47725302,0.4261679,-0.6560113,-1.2545617
1570715253,-0.4405331,-9.399636,-2.0925324,0.2418224,-0.36859274,-0.50495076,0.58418524,0.2777274,-0.89543146
1570715253,-1.0965444,-8.135497,-1.5993267,0.21518998,-0.3185238,-0.49216717,-0.08619126,1.5993267,-0.56982
1570715253,-0.5793968,-8.738836,-2.3558946,0.175774,-0.49962425,-0.4836448,-0.02873042,1.0390835,-1.0295067
1570715253,-0.7278373,-9.428367,-2.9735985,0.18962285,-0.4932325,-0.47405714,-0.076614454,0.2777274,-2.1021092
1570715253,-0.58897364,-9.581595,-2.4995465,0.07244019,-0.4953631,-0.4868407,-0.31124622,0.16280572,-1.532289
1570715253,-0.29688102,-9.9550905,-2.858677,0.08096257,-0.6796594,-0.53264844,0.10534488,-0.18674773,-2.0685902
1570715253,-0.40222588,-9.054871,-3.0885203,0.113986775,-0.9033718,-0.5869786,-0.17717093,0.58897364,-2.030283
1570715253,0.047884032,-8.892065,-3.394978,0.13103153,-0.8479764,-0.57206446,-0.10055647,0.770933,-2.6479871
1570715253,1.0630256,-8.834604,-4.012682,0.059656627,-0.60402334,-0.45914298,0.78529817,1.0247183,-3.169923
1570715253,1.115698,-10.060435,-3.8786068,0.020240642,-0.2077329,-0.31106672,1.0103531,-0.25857377,-3.2848446
1570715253,0.21547815,-8.7292595,-2.5761611,0.025567126,-0.116117366,-0.44422883,0.05267244,0.59855044,-1.9488802
1570715253,-1.2497733,-9.169792,-1.8195933,-0.015979454,-0.23010413,-0.5113425,-1.6519991,0.59376204,-0.9959879
1570715253,-1.0726024,-8.892065,-2.4756045,0.13422741,-0.5944357,-0.46233886,-1.6089035,0.8619126,-1.6663644
1570715254,0.6560113,-9.840169,-2.9113493,0.4516859,-0.7041613,-0.49749365,-0.0047884034,-0.08140286,-2.183512
1570715254,1.091756,-9.753978,-3.1651347,0.4868407,-0.64237404,-0.742512,0.25378537,-0.25378537,-2.6001031
1570715254,0.8619126,-9.77792,-2.743755,0.506016,-0.49216717,-0.7414467,-0.16759412,-0.033518825,-2.2744915
1570715254,0.58418524,-10.271125,-2.9017725,0.63385165,-0.39415985,-0.85756403,-0.6655881,-0.545878,-2.585738
1570715254,-0.50278234,-9.02614,-3.8594532,0.70203066,-0.19921052,-0.77447087,-2.0015526,0.6607997,-3.7301662
1570715254,-0.2681506,-9.787497,-3.6966474,0.79045033,0.10866029,-0.6253293,-1.9776106,-0.12928689,-3.7828386
1570715254,1.0726024,-7.8529816,-3.1986535,0.96302843,0.29402196,-0.41440052,-0.79008657,1.7669208,-3.5625722
1570715254,-0.9816227,-10.70687,-2.5330653,0.6999001,0.26206306,-0.054330144,-2.896984,-1.1109096,-3.169923
1570715254,-3.5242648,-9.356541,-3.787627,0.07350549,-0.6327864,-0.2418224,-5.4779334,0.22505496,-4.4963107
1570715254,-3.193865,-5.046977,-5.746084,-0.51240784,-1.5745089,-0.053264845,-5.21936,4.5298295,-6.3063273
1570715254,-1.541866,-4.247314,-5.032612,-1.1324106,-2.331935,0.92254716,-3.4620156,5.363012,-5.21936
1570715254,0.641646,-7.7811556,-3.0119057,-1.2432015,-2.6632423,2.0549579,-0.79966336,1.910573,-2.695871
1570715254,1.5466543,-14.355634,-3.5051112,-1.2474627,-2.7761638,2.0602844,0.36870706,-3.4715924,-2.767697
1570715254,2.0350714,-17.468096,-4.2281604,-1.5627906,-2.256299,1.1441289,1.6328455,-7.40766,-2.7389667
1570715254,1.1779473,-14.188039,-6.5696893,-1.3529271,-2.7101154,1.0194892,1.3311762,-5.195418,-4.1659107
1570715254,-3.4093432,-11.247959,-6.191406,-2.1305938,-2.5396678,1.9654728,-2.5905263,0.59855044,-3.7445314
1570715254,-7.273585,-17.640478,-8.12592,-1.0205544,-1.5617253,1.7737194,-6.244078,-8.39886,-5.6120086
1570715254,-6.631939,-18.65562,-4.4436383,-1.0716888,-1.1505207,1.2826176,-5.391742,-9.600749,-2.5713725
1570715254,-1.6759412,-11.267113,-4.43885,-0.55075854,-1.6448184,0.5496932,0.58418524,-2.15957,-1.5849615
1570715254,1.6184803,-7.2831616,-4.1706996,-0.0031958907,-0.87567407,-0.22158176,3.6583402,1.0342951,-1.5658079
1570715254,2.456451,-2.7341783,-3.6774938,0.16405573,-0.053264845,-0.9065677,4.7740383,5.765238,-1.0247183
1570715254,3.4476504,0.038307227,-2.2649148,0.32704616,0.37285393,-1.4136491,5.1140146,8.700529,0.06703765
1570715254,4.1706996,4.0892963,-3.8402996,0.7808626,0.6594188,-1.4903504,5.6886234,13.000515,-0.7422025
1570715254,-0.08140286,0.91458505,-1.1971009,0.5230608,1.8131354,-0.74890375,1.8962077,11.286267,0.45010993
1570715254,-4.831499,-2.9975405,2.791639,0.2748466,1.7204546,0.24714889,-3.1747115,7.2592196,4.6351743
1570715254,-2.633622,-11.741165,5.851429,0.41440052,2.453379,-0.005326485,-3.643975,-0.41180268,4.735731
1570715254,8.049306,-34.658463,-6.2345014,-1.0887334,-0.28763017,0.40481284,7.2927384,-29.649794,-4.9655743
1570715254,2.753332,-1.1492168,-5.3725886,0.30041373,0.0042611877,-0.72014076,3.514688,8.317456,-1.4317327
1570715254,2.4516625,-12.425907,-4.76925,0.3856375,3.3823178,-0.28869548,2.920926,0.50757074,-5.3965306
1570715254,-0.641646,-24.957159,-9.476251,1.1249535,1.0695581,-1.0322727,1.9201498,-17.937359,-4.0222588
1570715254,-1.5705963,-12.277467,-8.590396,1.5010034,1.7002139,-1.9953011,-3.572149,-5.722142,-7.9966335
1570715254,1.9201498,-11.99495,-3.6296098,1.9654728,2.3266084,-1.4828933,0.9864111,-2.3223755,-2.2984335
1570715254,-6.5218053,-9.26556,-6.7851677,1.8312454,1.610729,-0.49962425,-7.824251,0.4261679,-6.0716953
1570715254,-8.939949,-3.7014358,-3.2082303,1.5755742,0.78725445,-0.32171968,-10.31901,6.0046577,-3.083732
1570715255,-8.987833,2.5474305,-2.4851813,-0.14914156,-0.32385027,-0.3877681,-10.472239,12.239159,-2.5234885
1570715255,-6.9958572,7.2687964,-0.8714894,-1.2048508,-1.5766394,-0.28763017,-9.313444,16.424223,-0.6895301
1570715255,-0.9816227,7.16824,-1.6280571,-1.6171207,-1.833376,0.10759499,-2.5809495,16.812084,-0.90021986
1570715255,3.7445314,-2.432509,-3.4332852,-1.8067436,-1.5840966,1.5617253,2.432509,7.192182,-2.111686
1570715255,16.49126,-36.65044,-24.277205,-2.8731058,-2.9721785,2.080525,12.813767,-23.463177,-9.294291
1570715255,3.5434184,-28.605923,5.6790466,-0.005326485,-0.05539544,3.2257192,3.8738184,-19.091364,8.034941
1570715255,-7.1395097,-13.560759,4.9464207,-2.160422,-4.2217717,0.85543346,-6.114791,-4.1706996,7.5944076
1570715255,-16.859968,-18.607735,-13.302185,-2.4203546,-2.2797353,1.9739952,-15.078682,-9.524135,-10.0508585
1570715255,-6.943185,-16.328455,-6.042965,-0.16831692,-0.84158456,1.1814142,-7.264008,-8.844181,-4.0653543
1570715255,4.1946416,-11.224017,1.2401965,-0.89271885,-1.6799732,0.40268224,6.7324953,-2.4037786,4.697424
1570715255,3.3758245,-3.1124623,-3.620033,-0.18323107,-1.4296285,-0.5241261,6.0956373,5.645528,-0.15801731
1570715255,6.694188,-0.93373865,-5.5976434,0.68498594,-0.29189137,-1.7769153,9.093178,7.575254,-1.4987702
1570715255,5.985504,5.544971,-5.161899,1.0056403,1.0589051,-2.2957149,8.499416,13.584701,-2.2840683
1570715255,-2.27928,1.8483237,1.2210429,0.7648832,1.639492,-0.5656727,-1.0342951,11.123461,4.146757
1570715255,-6.7708025,-1.484405,0.35913026,0.30893612,1.618186,0.6967042,-5.161899,9.222465,3.86903
1570715255,-3.9552212,-15.246277,8.389283,0.75209963,2.921044,0.9491796,-2.6384103,-5.9567738,11.247959
1570715255,5.0613422,-38.379055,-6.6654577,-1.9601463,-0.45914298,-0.78192794,7.872135,-29.338547,-4.9081135
1570715255,5.4922986,-5.12838,-4.6160207,-0.015979454,-0.63811284,-0.9044371,8.7292595,0.46447513,0.17717093
1570715255,2.6623523,-6.4978633,-9.500193,0.5475626,3.7040374,-0.60615396,3.2082303,4.247314,-11.674128
1570715255,-1.0103531,-31.36883,-2.6479871,0.8298663,1.2165691,0.204537,1.8291701,-17.041927,8.298303
1570715255,-2.906561,-14.374787,-5.985504,1.639492,2.489599,-2.20623,-4.333505,-10.213664,-4.9320555
1570715255,-1.3503298,-8.470686,-7.2113357,2.2648213,2.6067817,-0.92574304,-2.0446482,1.1013328,-5.2049947
1570715255,-7.3789296,-7.101202,-6.1243677,2.597194,1.6650591,-0.37285393,-6.8761473,1.3599066,-4.6399627
1570715255,-11.152191,-2.303222,-3.4237084,1.2645074,0.8405193,-0.77447087,-12.890382,4.6351743,-2.7581203
1570715255,-8.623915,1.9393034,-3.3997664,-0.44103295,-0.43037996,-0.9118942,-10.304645,11.477803,-2.504335
1570715255,-6.0764837,6.4164605,-1.9680338,-0.82134396,-1.4562609,-0.6114804,-8.1402855,14.987702,-1.5179238
1570715255,-1.1013328,5.813122,-1.4221559,-1.1345413,-2.1721404,0.5656727,-3.715801,16.395493,-0.1388637
1570715255,4.606444,-1.6519991,-3.145981,-1.180349,-2.1071572,1.5968801,2.633622,9.093178,-1.115698
1570715255,5.267244,-9.313444,-2.7485435,-1.5446806,-1.3550577,2.327674,4.1946416,2.0159178,-0.8283938
1570715255,5.3486466,-36.88507,-24.918852,-2.3223474,-2.81558,4.207923,8.504205,-21.365856,-19.665974
1570715255,-5.841852,-19.364304,11.822568,-1.8216578,-1.13028,1.521244,-3.9791632,-15.394717,14.097059
1570715255,-9.964667,-5.8083334,-9.23683,-2.5162313,-2.5268843,1.9537545,-6.143522,5.81791,-1.5514427
1570715255,-11.99495,-27.04969,-14.221559,-0.9044371,-0.08096257,1.4040613,-10.01734,-18.880674,-11.784261
1570715256,-5.48751,-19.6133,0.6607997,-0.4474247,-0.068179004,1.0503827,-2.4037786,-11.295844,4.8458643
1570715256,-0.24899697,-7.393295,-1.9776106,-0.020240642,-1.8024824,0.32598087,2.7246015,-0.58897364,4.0940847
1570715256,0.7374141,-1.2880806,-6.6510925,1.5691824,-0.15127216,-0.9907262,3.5529952,6.253655,-3.098097
1570715256,4.309563,2.2840683,-2.7485435,1.4285632,0.771275,-1.8280495,6.5601125,10.381259,-0.01436521
1570715256,7.374141,6.8426285,-2.7006595,1.0067056,0.60508865,-1.618186,9.931149,15.739482,0.521936
1570715256,0.58418524,2.5905263,-1.2066777,1.1547819,1.2943357,-0.49003658,2.791639,11.674128,1.7477672
1570715256,-3.7541082,-2.456451,1.6041151,0.20134112,2.9370236,0.7180101,-1.6663644,6.6606693,4.548983
1570715256,-7.7428484,-43.344627,-10.520123,-1.3007276,0.19707993,2.1508346,-5.626374,-28.64423,-6.0956373
1570715256,3.7541082,-3.2225955,-0.9624691,0.015979454,0.38883337,-0.7755362,5.889736,4.146757,2.9161377
1570715256,0.9911995,-11.353305,-16.079458,0.73185897,1.600076,-1.0780805,3.098097,-2.3558946,-12.794614
1570715256,0.2777274,-17.832014,-1.1252748,1.4264326,2.9189136,-0.64450467,2.5713725,-6.71813,-1.910573
1570715256,-9.648633,-20.997149,-10.644621,1.9739952,0.93000424,-1.5127217,-8.37013,-11.674128,-7.867347
1570715256,-1.3263878,-11.856087,-6.5505357,1.7140628,1.4967422,-2.4629664,-2.5570073,-3.2369606,-5.2768207
1570715256,-0.062249243,-8.48984,-8.374918,2.3915915,1.668255,-1.7683929,1.9393034,-0.20111294,-7.8050976
1570715256,-6.517017,-4.333505,-3.8259344,2.5375373,1.062101,-0.7084225,-6.9527617,5.4204726,-2.920926
1570715256,-8.058883,-0.30166942,-2.480393,1.1089741,0.50068957,-1.1462595,-8.805874,9.466674,-2.1164744
1570715256,-9.308656,5.8945246,-0.1388637,-0.12570503,-0.23543063,-1.0493175,-10.189722,13.986926,0.30166942
1570715256,-3.3614593,9.375694,-0.23942018,-1.1174965,-1.7896988,-0.28976077,-4.5872903,19.086576,0.33039984
1570715256,0.8283938,7.771579,-2.1068976,-1.7353687,-2.2509725,0.6903124,-0.7134721,18.272547,-0.91937345
1570715256,2.6862943,-4.4196963,-4.572925,-2.497056,-2.482142,2.1700099,1.7381904,7.359776,-1.9057846
1570715256,10.409989,-26.613947,-20.642807,-2.6643076,-2.4246159,3.0083985,9.179369,-13.939042,-13.752295
1570715256,-2.585738,-31.97217,3.6296098,-0.60189277,-1.1707613,3.9991248,1.3024458,-24.689009,1.091756
1570715256,-6.9958572,-10.654198,-4.4436383,-2.2264707,-3.2715268,1.1260189,-3.4859576,-5.12838,3.787627
1570715256,-15.662868,-21.049822,-10.85531,-1.9399058,-0.8905882,1.9313834,-12.497733,-9.624691,-7.465121
1570715256,-7.2448545,-17.688362,-3.466804,-0.5145384,-0.04793836,1.4147143,-5.5018754,-9.299079,-1.2258313
1570715256,1.2449849,-13.589489,0.79008657,-0.3483521,-1.3177723,0.692443,4.213795,-6.6750345,5.8705826
1570715256,1.5562311,-3.9073372,-4.9655743,0.4559471,-1.219765,-0.43783703,5.5258174,2.5617957,-1.0055647
1570715256,5.0421886,1.541866,-4.012682,1.4637179,0.22903883,-1.8919674,8.2169,9.284714,-0.7230489
1570715256,7.6135616,9.524135,-2.6431987,1.2868787,0.7041613,-1.9612117,10.840945,17.080235,0.7613561
1570715256,0.842759,4.189853,-0.93852705,1.3689066,1.1334759,-0.51666903,4.999093,14.403518,0.78529817
1570715256,-4.8219223,-1.8195933,1.3503298,0.36326626,2.0581536,0.674333,-1.3599066,8.796297,4.405331
1570715256,-11.870452,-36.300888,-7.493851,-2.234993,2.6802871,1.9441669,-9.734824,-17.223886,6.3350577
1570715256,3.1172507,-8.1642275,1.7956513,-0.46660006,0.60189277,-0.789385,4.209007,-7.8290396,4.213795
1570715257,-0.7326257,-8.887277,-14.858416,1.3284253,0.7414467,-0.79151565,3.4620156,1.982399,-10.931925
1570715257,0.062249243,-23.037008,-3.3566709,1.7236505,2.20623,-0.24927948,3.1172507,-11.36767,-3.3662477
1570715257,-9.088389,-23.760057,-8.42759,1.8482902,0.65622294,-2.138051,-7.422025,-17.889475,-6.105214
1570715257,-3.098097,-8.106767,-8.805874,1.5649211,1.2218956,-2.507709,-3.0550013,0.9528923,-6.042965
1570715257,-1.3311762,-4.6495395,-6.5505357,2.880563,1.2687687,-1.0983212,-0.47405192,4.4244847,-6.967127
1570715257,-5.1475334,-2.657564,-3.3279405,2.5194273,0.87567407,-0.26206306,-3.7684734,6.081272,-2.7581203
1570715257,-9.184157,2.1212628,-3.7110126,0.89698005,0.46446946,-0.7009654,-8.6813755,8.949526,-2.8874073
1570715257,-8.983045,5.6120086,-0.9911995,-0.54330146,-0.17790459,-0.9108289,-8.834604,15.409082,-0.6799533
1570715257,-4.0174704,9.074024,-1.2785037,-1.316707,-1.7172587,-0.3185238,-5.386954,18.971655,-0.641646
1570715257,-0.11971009,5.568913,-1.4891934,-1.5617253,-2.4320729,0.506016,-0.095768064,15.318103,-0.4405331
1570715257,3.0262709,-4.6160207,-4.9464207,-1.804613,-2.589737,1.6512103,3.5098996,5.056554,-3.4045548
1570715257,11.070788,-22.88378,-14.30775,-2.5641696,-2.0826554,2.0389783,12.191275,-13.374011,-12.186486
1570715257,-2.4708161,-34.653675,0.7326257,-1.2208303,-1.1206924,3.8265467,-0.21547815,-25.455153,3.2800562
1570715257,-8.1163435,-14.058752,0.22026655,-2.2467113,-2.8241022,0.7766015,-5.2145715,-5.1475334,3.1124623
1570715257,-16.587029,-14.681245,-11.070788,-2.327674,-0.79471153,1.6938221,-13.158532,-6.1387334,-7.680599
1570715257,-8.034941,-15.198392,-4.6016555,-0.39415985,-0.7286631,1.3529271,-4.189853,-6.909666,-1.0295067
1570715257,-1.1779473,-13.306973,1.13964,-0.47299185,-1.2687687,0.85756403,3.98874,-5.1906295,4.687847
1570715257,1.8339585,-5.133168,-3.9839516,0.012783563,-1.0514481,-0.30680552,6.2584434,2.906561,-0.5315128
1570715257,4.4436383,-2.0111294,-4.525041,0.6359823,-0.15979454,-1.4786321,7.632715,5.803545,-1.3359646
1570715257,9.174581,5.33907,-2.111686,0.839454,0.75742614,-2.27867,12.421119,11.722012,0.6799533
1570715257,1.1252748,5.66947,-1.2880806,1.5936842,1.1419983,-0.2428877,2.4947581,14.480132,1.532289
1570715257,-6.1530986,-1.388637,2.528277,0.14701098,1.4296285,0.76168734,-2.8921957,7.431602,5.2959743
1570715257,-13.302185,-39.394196,-11.238382,-1.8482902,1.7385646,2.2584295,-9.921572,-30.74155,-8.087613
1570715257,4.027047,-5.559336,4.213795,-0.035154797,0.49855897,-1.3731678,7.6231384,2.9400797,7.5225816
1570715257,-5.3582234,-12.74673,-17.041927,1.14839,0.60189277,-1.0674275,-0.5793968,-2.231396,-11.219229
1570715257,-2.504335,-17.808073,-3.8498764,2.1146145,1.9622769,-0.54543203,0.45010993,-7.5321584,-2.896984
1570715257,-9.332599,-21.198261,-11.36767,1.2719646,-0.10759499,-1.7811764,-6.411672,-13.192051,-6.105214
1570715257,-3.9456444,-9.883265,-8.236053,1.4775668,1.259181,-2.5449944,-3.5290532,-0.7134721,-5.1810527
1570715257,-0.16759412,-4.9943047,-6.3542113,2.4033098,1.0780805,-1.4882199,1.9776106,3.169923,-6.105214
1570715257,-4.663905,-3.667917,-4.2904096,2.2871926,0.721206,-0.48151422,-2.480393,6.0285997,-3.2513258
1570715257,-6.9048777,-1.4796166,-3.3566709,1.4551957,0.4911019,-0.99392205,-6.0046577,8.039729,-3.193865
1570715257,-1.6998832,9.141062,-1.3982137,-1.4892851,-1.8418984,-0.2428877,-3.490746,19.129671,-0.9911995
1570715257,-1.6998832,9.141062,-1.3982137,-1.4892851,-1.8418984,-0.2428877,-3.490746,19.129671,-0.9911995
1570715257,1.2162545,8.202535,-1.0965444,-1.9143386,-2.3106291,0.37178862,1.2497733,18.588581,0.11492168
1570715258,1.8626889,-6.4739213,-6.4260373,-2.7921433,-2.2584295,1.8376372,2.3942018,6.6079965,-3.2034419
1570715258,9.337387,-32.5372,-22.96997,-2.5386026,-1.9548199,3.3801873,10.213664,-19.70428,-18.061857
1570715258,-3.4380736,-28.864496,3.53863,-0.7254672,-1.306054,3.918162,0.29209262,-22.716187,2.705448
1570715258,-8.169016,-10.395624,-7.321469,-2.2403195,-2.8539305,1.4360203,-3.490746,-6.0716953,1.1827357
1570715258,-18.02834,-17.937359,-8.963891,-1.6597326,0.3494174,2.077329,-13.570335,-6.1866174,-6.8905125
1570715258,-8.355764,-15.586253,-0.61291564,-0.4889713,-0.2109288,1.3145764,-5.1666875,-7.441179,1.364695
1570715258,-0.770933,-11.803414,0.2777274,-0.92254716,-1.4711751,0.46340418,3.217807,-5.5258174,5.0038815
1570715258,2.5713725,-3.6727054,-4.462792,0.08735435,-0.6274599,-0.9033718,6.588843,3.0789435,-0.46447513
1570715258,8.8777,0.7517793,-3.3279405,0.87567407,0.6370476,-2.2978456,12.885593,7.4603324,-1.2354081
1570715258,3.8594532,8.293514,-3.347094,1.6096637,0.5401055,-1.6256431,9.9790325,16.529568,-0.6655881
1570715258,-3.5865142,1.7908629,0.10534488,0.7755362,1.0706234,-0.07776668,0.8283938,11.085154,2.504335
1570715258,-7.728483,-10.189722,2.873042,0.4495553,2.4214199,0.4506206,-3.2561142,2.3798366,3.8259344
1570715258,-11.161768,-45.49941,-6.0860605,-1.266638,1.6448184,2.3617632,-7.422025,-37.100548,-2.6623523
1570715258,0.45010993,-3.6631286,0.46926352,0.005326485,-0.56673795,-0.63385165,4.0557775,4.644751,3.9312792
1570715258,-2.1212628,-10.424355,-9.696517,1.280487,1.7801112,-1.2730298,1.4269443,-1.9249382,-6.325481
1570715258,-4.9224787,-17.750612,3.8881836,0.8650211,1.3678412,-0.7371855,-1.8195933,-9.016563,7.101202
1570715258,-12.847286,-18.468872,-12.4785795,1.7662623,0.08202787,-1.2996622,-10.132261,-11.190498,-9.198523
1570715258,0.19153613,-11.69807,-6.8569937,2.0847862,0.818148,-1.9846482,2.4372973,-2.432509,-4.5441947
1570715258,-0.6464345,-8.916007,-6.9958572,2.2264707,0.9449184,-1.4882199,1.3838485,-0.20111294,-6.9479733
1570715258,-7.16824,-3.5769374,-6.679823,2.3223474,0.4559471,-0.8692823,-5.731719,6.05733,-5.568913
1570715258,-6.8330517,-1.0342951,-4.175488,1.2740952,0.47618774,-1.3976696,-5.60722,8.690952,-3.5625722
1570715258,-7.5561004,9.150639,1.0055647,0.08628905,-0.6988348,-1.0216198,-6.05733,16.682798,1.364695
1570715258,-2.4516625,7.9343843,0.07182605,-1.8919674,-1.8781185,-0.6615494,-1.9201498,17.693151,0.8714894
1570715258,-0.18195933,3.5625722,-2.4277205,-2.5023825,-2.335131,0.44103295,0.0047884034,16.294937,0.110133275
1570715258,1.6424223,-13.096283,-7.565677,-3.0627286,-2.3724163,1.6916915,2.1404164,0.49320555,-4.4196963
1570715258,1.8291701,-23.606829,-12.516887,-1.3731678,-1.56066,3.6145525,3.8977604,-14.441825,-9.696517
1570715258,-2.5953147,-22.984337,3.514688,-1.4125837,-1.5382888,3.168193,0.5506664,-14.18325,6.483498
1570715258,-5.631162,-15.552734,-7.3406224,-2.2030342,-2.7346172,1.7833071,-1.0295067,-8.202535,-0.36870706
1570715258,-18.124107,-20.111294,-7.3310456,-1.7406952,0.16725162,2.2264707,-13.618219,-12.224793,-3.6248214
1570715258,-12.86644,-13.785813,0.11971009,-0.95450604,0.21945117,1.1398677,-10.0748005,-7.359776,3.1411927
1570715258,-2.4133554,-9.11712,-3.6056678,-0.4431635,-1.4871545,0.23862651,2.6384103,-1.7142484,0.37349546
1570715258,1.508347,-3.1651347,-4.525041,0.40800872,-0.7244019,-0.5944357,5.5258174,3.2465374,-0.6464345
1570715258,8.504205,-0.7038953,-3.6774938,1.0035098,0.66794115,-1.9132733,12.751518,6.2823853,-0.15801731
1570715259,6.5984197,8.101978,-2.8107927,1.7012792,0.08202787,-2.234993,12.435484,15.222335,1.70946
1570715259,-3.4380736,3.442862,0.12928689,1.4338896,1.6309696,-0.4559471,1.6519991,12.603078,2.303222
1570715259,-8.240842,-2.7581203,-0.45010993,0.12677033,2.0027583,0.3526133,-4.036624,8.1163435,2.255338
1570715259,-16.294937,-48.204857,-3.1507695,-1.592619,1.3838208,1.9526893,-13.52724,-27.581203,2.6862943
1570715259,5.080496,-1.3311762,2.4708161,-0.3494174,-0.42505348,-1.4892851,9.131485,2.1021092,6.775591
1570715259,-1.0726024,-8.494628,-13.330915,1.7598705,1.5979455,-0.80323386,1.5370775,1.910573,-12.583924
1570715259,-2.2170308,-25.52219,0.46926352,1.0631664,1.1505207,-0.46766534,3.7301662,-13.488933,3.5769374
1570715259,-9.921572,-13.690045,-11.549629,2.0443048,1.0919293,-1.9175345,-8.1642275,-9.490616,-9.868899
1570715259,-3.145981,-6.7612257,-6.646304,2.324478,1.2368097,-1.3230988,-2.0207062,3.064578,-4.3622355
1570715259,-5.6646814,-10.237606,-5.0134583,2.7026584,0.81921333,-0.8479764,-1.9393034,-1.9776106,-3.5482068
1570715259,-5.48751,-1.8339585,-3.9552212,2.253103,0.60082746,-0.87460876,-3.6296098,6.799533,-2.5091233
1570715259,-9.26556,-0.05746084,-4.6399627,1.1185617,0.06604841,-1.0184239,-7.465121,9.308656,-4.027047
1570715259,-6.8809357,7.3645644,-0.8379706,-0.19601464,-0.06285252,-0.89591473,-6.1004257,16.036364,-0.4405331
1570715259,-0.7374141,9.768343,0.033518825,-1.7428257,-1.2282873,-0.43677175,-1.4413095,19.560627,0.78050977
1570715259,0.90021986,8.063671,-1.6328455,-2.3308697,-1.8695961,0.26099774,1.7764976,17.736246,-0.2777274
1570715259,1.4413095,-4.8362875,-7.1730285,-2.1476386,-1.4701098,2.106092,3.0454245,6.6415157,-5.439626
1570715259,2.834735,-23.855825,-7.651869,-2.8603222,-1.0684928,2.5141008,4.88896,-10.443508,-1.6089035
1570715259,-8.978256,-40.677486,6.133945,-1.3582536,-1.0578399,4.418852,-2.920926,-32.93464,1.484405
1570715259,-10.127473,-15.112201,6.4643445,-2.8358204,-2.6877441,0.7723403,-6.0860605,-6.8426285,9.854534
1570715259,-17.219099,-3.9839516,-13.096283,-2.7271602,0.37604982,1.8866409,-12.713211,3.8163576,-9.217676
1570715259,-7.2927384,-13.057976,-9.102755,-0.14168449,-0.419727,1.5809007,-2.4708161,-5.6215854,-4.88896
1570715259,-1.1731589,-19.04827,0.1388637,-0.32385027,-0.7052266,1.0535786,4.0078936,-11.793838,4.223372
1570715259,-2.3223755,-8.001422,2.3750482,-0.58484805,-0.60508865,-0.4154658,3.0023289,-0.89064306,6.531382
1570715259,0.076614454,-4.984728,-4.261679,0.6626147,-0.21412468,-1.6043372,4.1706996,1.8004397,0.8283938
1570715259,5.118803,4.7548847,-5.0517654,1.5734435,1.5127217,-2.0229988,9.643845,12.559982,-1.2162545
1570715259,3.8402996,7.6375036,1.1923125,1.4040613,1.416845,-0.9118942,9.23683,16.036364,2.944868
1570715259,0.35434186,2.4133554,-3.1507695,0.6881818,-0.18855755,0.29828313,5.056554,11.544841,1.685518
1570715259,-7.038953,-9.696517,-0.7134721,1.3465353,4.5797114,0.5113425,-0.80445176,1.1444284,-0.12449849
1570715259,-8.307879,-20.168755,-0.29688102,0.07670138,-0.031958908,1.6448184,-4.003105,-12.291832,3.6535518
1570715259,-3.787627,-12.861651,-7.9248075,-0.01384886,-0.18642697,-0.5912398,1.6041151,-0.19632454,0.45489833
1570715259,0.20590134,-9.423578,-1.8291701,1.6916915,1.5095258,-1.0919293,3.1028855,-4.7979803,-0.7134721
1570715259,-11.099519,-21.107283,-7.067683,0.742512,0.7989727,-0.3877681,-3.9983168,-10.941502,-0.30645782
1570715259,-4.0940847,-8.714894,-7.7189064,2.4437912,1.4104532,-1.5436152,-0.9624691,-0.0047884034,-4.4723687
1570715260,-1.5658079,-12.540829,-7.8290396,2.1210063,1.2570504,-1.4999381,1.6376339,-3.490746,-4.8841715
1570715260,-4.3957543,-7.1251445,-5.7987566,2.5812144,1.1238883,-1.0301422,-2.930503,0.90979666,-4.4819455
1570715260,-6.4787097,-2.8874073,-6.8809357,2.1593568,0.54117084,-0.7627526,-4.175488,6.129156,-4.7644615
1570715260,-7.383718,-1.0486604,-6.3063273,1.3827554,0.49003658,-1.1004517,-5.626374,7.8146744,-5.583278
1570715260,-5.7604494,3.9264908,-2.1068976,0.54117084,0.13529271,-1.0205544,-4.5872903,12.143391,-2.408567
1570715260,-1.5227122,8.240842,1.0151415,-0.9097636,-0.79471153,-0.71481425,-1.2162545,18.05707,1.7046716
1570715260,0.31124622,7.503428,-0.8762778,-1.8461596,-1.5148523,0.49429777,1.685518,17.774553,0.770933
1570715260,-1.0773908,-4.2185836,-4.7644615,-2.7793598,-2.2211442,1.8642696,-0.12449849,8.317456,-1.0726024
1570715260,7.029376,-20.451271,-13.718776,-2.9263706,-2.3127596,2.1103532,6.6510925,-8.39886,-7.1107793
1570715260,-10.117896,-35.261803,-0.15322891,-1.5052645,-0.9236124,3.9959288,-4.0701427,-26.259604,-2.408567
1570715260,-7.5704656,-11.81778,-0.45968673,-2.5087743,-2.6312835,1.1036476,-4.209007,-7.920019,8.0684595
1570715260,-14.101848,-9.787497,-6.83784,-2.874171,0.81282157,2.0794597,-8.408437,0.29688102,-4.2904096
1570715260,-13.2351465,-12.5982895,-4.1611223,-0.7286631,-0.7084225,1.4019308,-8.825027,-5.865794,-0.5315128
1570715260,-5.5737014,-12.804191,-1.316811,-0.60934985,-1.7012792,0.74464256,-1.7860745,-6.5601125,4.003105
1570715260,-1.2641385,-4.4101195,-3.2752678,-0.18536167,-0.4857754,-0.10759499,4.0940847,1.091756,0.6655881
1570715260,5.281609,-3.2561142,-4.2521024,1.1377372,0.41226992,-1.1206924,9.68694,3.8259344,-0.22984336
1570715260,8.6095495,-0.47405192,-1.9297266,1.6938221,0.7126837,-1.9526893,13.728353,6.9240313,1.9632454
1570715260,3.1172507,5.971139,-3.3997664,1.9484282,0.8053645,-1.6448184,7.73806,13.852851,0.15322891
1570715260,-5.57849,4.261679,0.9576807,0.8383887,1.5361582,-0.1725781,-1.2497733,12.3876,4.3287168
1570715260,-14.302961,-22.869415,-7.1059904,-1.6043372,2.5812144,1.7609358,-10.108319,-4.735731,0.7038953
1570715260,1.3742718,-11.84651,3.0119057,0.46553475,-0.23010413,-1.1537166,3.4763808,-15.160085,4.256891
1570715260,-6.0477533,-11.741165,-12.689269,1.277291,0.6274599,-0.6839206,-1.8052281,-3.7732618,-8.853758
1570715260,0.20111294,-14.992491,-1.8291701,2.0283253,1.8813144,-0.7659485,4.1132383,-6.7229185,1.7046716
1570715260,-11.386824,-17.496826,-15.140931,1.3390783,0.5656727,-0.7126837,-7.6949644,-9.021352,-11.856087
1570715260,-5.0038815,-11.310209,-7.656657,2.2030342,1.6405573,-1.890902,-1.8148049,-2.4947581,-4.7740383
1570715260,-5.353435,-7.3166804,-6.2392898,2.6430018,0.9438531,-1.2559851,-2.7246015,1.8339585,-3.892972
1570715260,-4.88896,-5.415684,-4.7500963,2.7388785,0.40694344,-0.4932325,-2.480393,3.9504328,-3.122039
1570715260,-7.0485296,-2.920926,-6.26802,1.9164692,0.16299044,-0.8309316,-4.5633483,6.0716953,-5.2002063
1570715260,-6.991069,1.292869,-4.0174704,0.9438531,0.25247538,-1.1260189,-4.855441,10.462662,-4.817134
1570715260,-4.1419687,9.179369,1.3503298,-0.6498311,-0.71055305,-1.1579778,-3.6056678,17.932571,1.7812861
1570715260,-0.36870706,8.197746,-0.08140286,-1.6490797,-1.7534788,-0.39096397,0.47884035,17.990032,1.1540052
1570715260,0.7230489,1.958457,-2.5474305,-2.8422122,-2.3415227,1.1505207,2.1164744,13.354857,0.095768064
1570715260,2.5330653,-18.880674,-12.181698,-3.236372,-1.6426879,2.0847862,4.879383,-9.691729,-9.672575
1570715260,-1.340753,-23.975536,-12.737153,-1.7204546,-1.1547819,3.7860653,2.7150247,-15.562311,-12.488156
1570715261,-6.8282633,-25.052927,0.8762778,-1.7715888,-1.8365719,2.5354066,-2.5378537,-17.286137,5.602432
1570715261,-11.693281,-6.679823,-11.784261,-2.8518,-1.180349,1.4615874,-6.919243,1.115698,-8.226477
1570715261,-19.2829,-12.737153,-6.229713,-2.001693,-0.3504827,1.8099395,-13.670892,-4.7405195,-2.944868
1570715261,-10.984597,-11.822568,-0.62249243,-1.0525134,-0.5198649,0.7723403,-3.2225955,-4.8985367,3.5865142
1570715261,-1.733402,-10.184934,-4.3239284,-0.55075854,-1.230418,0.38883337,3.1986535,-4.3718123,1.1731589
1570715261,1.6041151,-4.596867,-3.7062242,-0.06178722,-0.57526034,-0.7382508,6.9144545,1.7286136,-0.009576807
1570715261,5.00867,-2.15957,-1.9871874,0.74570787,0.045807768,-2.1135492,10.1226845,4.0222588,1.685518
1570715261,5.5401826,7.249643,-3.5865142,1.6224473,-0.35900506,-1.6821039,11.243171,13.9438305,1.4269443
1570715261,-2.3319526,3.2561142,-1.4460979,1.2527891,0.8596946,-0.19494934,3.3566709,11.8896055,0.9528923
1570715261,-5.7125654,-3.620033,1.3742718,0.3792457,1.0567746,0.0,-0.110133275,6.727707,4.357447
1570715261,-19.574993,-35.57784,-8.772355,-1.3912778,1.5638559,0.50388545,-12.220005,-18.488026,-1.6424223
1570715261,3.9025488,-1.9919758,1.4460979,-0.9140248,-0.22690825,-0.6551576,8.173804,1.0965444,3.0262709
1570715261,-3.0502129,-11.113884,-13.771448,1.1654348,1.5585294,-0.84158456,1.283292,-1.2880806,-10.443508
1570715261,-1.8531121,-18.684351,-0.842759,1.8845103,1.1654348,-0.018110048,2.3463178,-8.480263,3.193865
1570715261,-14.326903,-18.344374,-11.233594,1.4669139,0.43144527,-1.1771531,-11.113884,-13.062764,-6.7803793
1570715261,-3.3854012,-8.604761,-9.275137,1.8738573,1.5010034,-2.1625528,-1.316811,-0.5267244,-5.7029886
1570715261,-3.7110126,-8.825027,-5.9807158,2.396918,0.87886995,-1.5585294,-1.2258313,0.009576807,-3.4237084
1570715261,-5.6120086,-4.548983,-5.0757074,2.45764,0.5582156,-0.68924713,-2.7246015,4.2042184,-2.8299465
1570715261,-7.608773,-0.7278373,-6.2249246,1.5041993,0.32704616,-0.7222713,-5.463568,7.7907324,-4.5394063
1570715261,-5.741296,5.3486466,-1.0007763,0.23862651,0.08628905,-0.7936462,-4.1036615,13.326127,-0.93373865
1570715261,-4.156334,8.542512,0.78529817,-0.82453984,-1.1238883,-0.7638179,-2.2888567,18.076223,2.1212628
1570715261,-1.5705963,7.3406224,-1.1587936,-1.8184619,-1.9068816,-0.14381509,0.22984336,16.836027,0.49320555
1570715261,0.7374141,-1.3311762,-5.0374002,-2.1295285,-2.034717,1.0834069,2.8107927,8.010999,-2.896984
1570715261,1.0726024,-11.745954,-4.9320555,-2.3447185,-1.3305559,1.9356445,3.739743,-2.6719291,-2.3415294
1570715261,-3.5242648,-29.252356,-11.281479,-1.9505587,-1.7577399,3.9224234,1.6424223,-19.378668,-12.789825
1570715261,-8.101978,-24.396915,-1.5179238,-2.024064,-1.9143386,2.7378132,-3.4763808,-16.429012,1.8435353
1570715261,-5.2480903,0.48841715,-18.794483,-2.2371235,-0.24075711,1.1633042,-0.15322891,8.001422,-15.08347
1570715261,-17.836803,-18.124107,-6.5361705,-2.0762637,0.15659864,1.2645074,-12.569559,-11.113884,-2.135628
1570715261,-13.843274,-16.07467,1.13964,-0.88313115,-0.5550197,0.63917816,-8.355764,-9.361329,5.722142
1570715261,-6.4739213,-11.324574,-0.50278234,-0.6285252,-1.4317591,0.23010413,-2.4468741,-3.5242648,2.7629087
1570715261,-2.504335,-4.4101195,-7.029376,0.61041516,-0.95131016,-0.66368,3.3662477,1.0151415,-2.3175871
1570715261,-0.63206923,-2.0446482,-3.9695864,1.5041993,-0.30360964,-1.660798,4.687847,4.429273,-0.9528923
1570715261,2.7724855,3.9217024,-1.0151415,1.2815522,-0.19175345,-1.8972938,8.456321,11.463438,2.5187001
1570715262,2.6527755,4.256891,-4.10845,1.1558472,0.07457078,-0.9736814,7.503428,12.138602,-0.8714894
1570715262,1.1300632,1.1827357,-0.2873042,0.64450467,1.3859513,0.094811425,5.8226986,9.188946,2.8778305
1570715262,-10.151415,-11.267113,3.145981,0.36965802,2.6760259,0.81921333,-5.544971,-3.2561142,6.4260373
1570715262,-17.683575,-28.787882,-6.6079965,-0.6231987,-0.36007038,2.7687068,-17.889475,-25.804707,-3.9121256
1570715262,-1.1875241,-11.449073,-5.884948,-0.5230608,-0.34302562,-0.77766675,5.674258,-1.8291701,1.0630256
1570715262,2.1978772,-10.673351,-5.602432,1.7950253,1.8259189,-1.0269462,6.435614,-3.5769374,-3.514688
1570715262,-13.326127,-19.541473,-9.706094,1.1249535,1.3262947,0.43144527,-1.5897499,-6.789956,0.0
1570715262,-10.831368,-14.920665,-6.6893997,2.2179482,1.6203166,-1.3199029,-8.566454,-9.284714,-5.00867
1570715262,-3.323152,-10.132261,-9.054871,2.0965044,1.5095258,-1.9175345,0.05267244,-2.3798366,-5.631162
1570715262,-7.1107793,-7.7811556,-5.0661306,3.0041373,0.8469111,-1.0162933,-3.3327289,1.1779473,-3.4045548
1570715262,-4.9176903,-4.074931,-5.4779334,2.5034478,0.3835069,-0.9619631,-2.303222,4.3047748,-2.7006595
1570715262,-6.9288197,-2.054225,-7.4746976,1.6277738,0.38883337,-1.1462595,-3.9935284,6.564901,-6.4547677
1570715262,-6.9527617,4.0462008,-1.8004397,0.72014076,0.25354066,-0.7371855,-5.1666875,11.923124,-2.0590134
1570715262,-6.3302693,6.579266,0.49320555,-1.0897988,-0.7957768,-0.47405714,-4.793192,16.112978,1.0247183
1570715262,-2.0446482,7.2209125,-1.9201498,-1.8504208,-1.6043372,-0.1725781,-0.7278373,16.807297,-0.320823
1570715262,1.3742718,1.733402,-4.367024,-2.4118323,-1.7705235,1.0823417,3.122039,12.86644,-2.255338
1570715262,0.25857377,-14.700398,-6.1195793,-3.1010795,-1.7960906,1.8344413,3.5913026,-1.7860745,-4.0318356
1570715262,-5.66947,-34.39989,-12.133814,-1.6852998,-2.1614876,3.4877822,-0.31124622,-25.07208,-14.4609785
1570715262,-6.5936313,-17.899052,0.12449849,-2.1646833,-2.6536546,1.0610358,-3.040636,-13.517663,3.9312792
1570715262,-10.510546,-2.3415294,-12.89517,-3.0201168,1.209112,1.2900746,-3.3423057,9.203311,-13.345281
1570715262,-12.818556,-15.016433,-6.493075,-1.2506586,-0.6285252,0.9310695,-8.714894,-8.571242,-2.552219
1570715262,-8.930372,-16.031574,1.2737153,-1.1153659,-0.9385266,0.49216717,-4.5298295,-8.39886,4.1371803
1570715262,-3.3327289,-8.465898,-2.7150247,-0.7350549,-1.09406,-0.05113425,1.0390835,-2.3511062,2.3223755
1570715262,-0.5650316,-3.5769374,-6.009446,0.63065577,-0.40161693,-0.84478045,4.663905,2.992752,-1.5275006
1570715262,0.89543146,-1.982399,-3.3997664,1.2613115,-0.0692443,-1.6767774,6.0477533,5.4204726,0.4357447
1570715262,7.2687964,6.7229185,-1.8483237,1.0791458,0.5528891,-1.2357445,11.027693,13.517663,1.5610195
1570715262,4.367024,3.5817258,-1.3742718,1.0013791,0.7542302,0.02450183,9.844957,11.899182,1.316811
1570715262,-3.1555579,-3.5003228,-3.6487634,-0.2119941,1.8344413,1.6075331,1.4269443,4.462792,-0.22026655
1570715262,-25.708939,-36.731842,-5.305551,-0.6977695,2.0528271,1.8248537,-20.858286,-29.228415,-1.2497733
1570715262,-7.5321584,-15.346833,-7.762002,0.9917914,-0.53797495,-1.1537166,-1.6807296,-5.3725886,0.7757214
1570715262,0.23463176,-13.867216,-10.457873,1.492481,0.70948774,-1.198459,2.2697031,-7.651869,-8.42759
1570715262,-6.3829417,-15.32768,-7.1395097,1.4860892,0.49642837,-0.78725445,-2.3463178,-7.0245876,-3.821146
1570715262,-8.039729,-12.794614,-8.566454,2.073068,2.0368478,-1.8056782,-4.620809,-4.0892963,-5.5976434
1570715263,-5.923255,-7.019799,-7.675811,2.0506966,1.2463974,-1.8674655,-2.9352913,1.9153614,-4.960786
1570715263,-4.256891,-8.030152,-5.056554,2.63661,0.7009654,-0.72333664,-1.6424223,1.1779473,-2.9257145
1570715263,-5.947197,-3.9504328,-5.861006,2.116745,0.4847101,-0.8714129,-3.5625722,5.4444146,-4.381389
1570715263,-8.537724,0.18195933,-4.4675803,1.14839,0.63065577,-0.9736814,-6.2632318,8.66701,-3.9743748
1570715263,-6.339846,6.531382,-1.0055647,-0.08309316,-0.029828314,-0.9715508,-4.5298295,16.112978,0.023942016
1570715263,-0.8714894,9.624691,-0.4405331,-0.6572882,-1.0631664,-0.54330146,-0.39264908,18.669985,0.47405192
1570715263,1.2593501,5.1666875,-2.815581,-1.940971,-1.7119322,1.0866029,3.217807,14.686033,-1.3599066
1570715263,2.2649148,-3.265691,-5.142745,-2.1540303,-1.5521376,1.9761258,4.606444,7.872135,-3.323152
1570715263,-0.40701428,-15.437813,-1.8914193,-2.615304,-1.0003139,2.1231368,3.145981,-4.8267107,-1.3934253
1570715263,-8.087613,-40.00711,-8.422802,-1.833376,-1.5894231,4.419917,-1.9776106,-31.823729,-12.210428
1570715263,-9.634268,-11.640609,-1.6711528,-1.7918295,-2.4650972,1.930318,-4.5394063,-3.8115692,1.3263878
1570715263,-12.785037,1.8483237,-14.15452,-2.2871926,2.47575,1.922861,-4.1132383,15.648502,-14.010868
1570715263,-12.708423,-13.244724,-5.8466406,-0.9065677,-0.5869786,1.3092499,-8.825027,-6.2823853,-0.91458505
1570715263,-8.274361,-21.480778,2.006341,-0.64876586,-1.3369477,0.71374893,-2.96881,-13.867216,4.721366
1570715263,-3.7732618,-5.717354,-1.4269443,-0.67220235,-1.1846102,-0.47725302,1.3838485,-0.46926352,3.2609026
1570715263,-1.6950948,-1.8291701,-5.506664,0.74038136,-0.1725781,-1.474371,3.5625722,4.534618,-1.8483237
1570715263,3.2513258,1.8243817,-3.2225955,1.2836828,0.1747087,-2.0251296,8.154651,8.394072,-0.6799533
1570715263,4.6255975,1.9680338,-1.1540052,0.9822038,-0.09055024,-1.5627906,10.323798,9.835381,2.1212628
1570715263,0.59376204,-0.63206923,-2.777274,0.5923051,0.20027582,-0.25141007,6.196194,7.603985,-0.08140286
1570715263,-3.4380736,-6.019023,-2.1643584,0.68498594,2.4469872,0.74357724,2.5091233,3.9025488,0.4261679
1570715263,-11.9135475,-21.11207,-5.78918,-0.41226992,1.0301422,1.5510724,-10.965444,-16.658855,-3.2321723
1570715263,-7.201759,-18.765753,-2.5905263,0.45807767,0.57526034,-0.50388545,-0.6703765,-8.073248,3.596091
1570715263,-2.528277,-13.244724,-4.5681367,1.4232367,1.6043372,-1.8344413,1.0726024,-6.7085533,-2.3750482
1570715263,-8.465898,-15.02601,-7.776367,1.822723,-0.046873067,-0.30360964,-2.815581,-5.2385135,-1.7429788
1570715263,-8.734048,-13.55597,-10.251971,2.536472,0.8660864,-1.1707613,-6.0285997,-5.2002063,-7.7332716
1570715263,-5.094861,-11.085154,-7.785944,2.4587054,1.2080467,-2.048566,-1.1252748,-3.122039,-5.674258
1570715263,-6.4020953,-5.267244,-6.0238113,2.4320729,0.65089643,-1.1377372,-3.5290532,3.193865,-4.7548847
1570715263,-7.273585,-3.5290532,-5.185841,2.324478,-0.119313255,-0.7286631,-4.4580035,5.813122,-4.232949
1570715263,-6.3829417,-0.94331545,-4.841076,1.3593189,-0.05113425,-1.0067056,-4.223372,8.135497,-4.6112323
1570715263,-3.3901896,6.0956373,-2.255338,0.1747087,-0.37604982,-1.0876682,-1.460463,13.876793,-2.3511062
1570715263,-2.0685902,8.207323,0.019153614,-1.4221714,-0.98753023,-0.7979074,-1.0103531,17.468096,-0.047884032
1570715263,2.3175871,8.566454,-1.0151415,-2.1433775,-1.7129974,-0.11185618,4.1802764,18.167202,-0.31603462
1570715263,1.9153614,4.8458643,-3.7253778,-2.8549957,-1.6927568,0.9747467,4.027047,15.643714,-2.2697031
1570715263,-2.006341,-12.310986,-5.6646814,-3.2459598,-1.8632044,2.1849241,0.7326257,-3.1268275,-3.5769374
1570715264,-5.5880666,-40.562565,-21.284452,-2.812384,-1.4189755,3.6571643,-3.466804,-31.90992,-18.420988
1570715264,-11.678916,-22.816742,6.6415157,-2.5705614,-1.8642696,1.9462975,-7.1969705,-14.714764,9.878476
1570715264,-13.311762,-3.4093432,-16.103401,-2.7537925,1.5979455,2.016607,-8.384495,4.189853,-12.339716
1570715264,-15.375564,-15.461755,-9.787497,-1.3497312,0.0063917814,1.4445426,-11.27669,-8.240842,-4.9320555
1570715264,-12.713211,-16.443377,0.08619126,-0.8820659,-1.1814142,0.9726161,-7.7667904,-8.384495,2.0829554
1570715264,-3.9791632,-8.312668,-1.7238252,-0.58484805,-0.8053645,0.22584295,0.8619126,-2.7581203,1.661576
1570715264,-0.39743748,-3.1986535,-5.985504,0.7659485,-0.43677175,-0.78299326,4.5872903,2.542642,-1.2258313
1570715264,3.53863,-1.7477672,-3.9312792,0.9044371,1.1771531,-2.0602844,8.350976,5.0517654,-1.5753847
1570715264,8.552089,8.734048,1.6807296,1.1686307,0.7254672,-2.0783944,12.674904,14.470555,4.1946416
1570715264,1.7477672,3.8259344,-0.60812724,1.3294905,-0.595501,-0.24821419,7.417237,12.291832,2.9161377
1570715264,-6.2871737,-3.122039,-1.532289,-0.43037996,0.8980453,1.0503827,-1.1492168,7.3885064,3.53863
1570715264,-27.298687,-44.02937,-1.9488802,-0.7563608,1.0770152,1.022685,-23.745693,-33.65769,-0.641646
1570715264,-2.8443117,-5.554548,-4.9081135,0.12144385,-0.4431635,-0.68605125,2.9113493,6.315904,3.2944214
1570715264,-2.030283,-17.803284,-2.8682537,2.3937223,0.7297284,-0.77340555,0.10534488,-13.910312,-1.5849615
1570715264,-6.909666,-17.195156,-3.2465374,1.4871545,0.7979074,-1.4051267,0.4261679,-10.156203,0.8858546
1570715264,-10.658986,-8.389283,-12.5264635,2.0858514,0.5305179,-1.600076,-8.37013,-1.3120226,-9.174581
1570715264,-3.1651347,-11.353305,-6.2632318,2.2584295,1.2836828,-1.7907641,-0.61770403,-1.3311762,-3.98874
1570715264,-4.525041,-7.129933,-5.1666875,2.5801492,0.9395919,-1.2240262,-1.6376339,0.6655881,-3.347094
1570715264,-4.146757,-2.3080103,-5.415684,2.3372614,0.35687447,-0.7126837,-1.541866,6.7803793,-3.2752678
1570715264,-5.5737014,1.388637,-7.0581064,1.2549198,0.9140248,-0.8564987,-3.323152,10.386047,-5.9184666
1570715264,-4.5441947,4.630386,-1.8004397,0.48044893,1.080211,-0.53264844,-2.8395233,13.292608,-2.1068976
1570715264,-1.9440918,7.5321584,2.7964275,-0.50495076,-0.26952013,-0.2087982,-0.39264908,17.27177,3.3135753
1570715264,-0.63206923,7.1395097,0.18195933,-1.7279116,-1.1665001,0.6594188,1.1109096,17.132908,1.9967642
1570715264,0.79008657,0.16280572,-3.8259344,-2.6888094,-1.4509344,1.5638559,2.6767175,11.305421,-1.1444284
1570715264,2.3558946,-17.238253,-8.149862,-3.7519758,-1.2272221,1.2794216,3.572149,-6.363788,-4.189853
1570715264,-15.792154,-40.950424,-5.9041014,-1.6032718,-1.2400056,5.083597,-9.112331,-32.89633,-9.241618
1570715264,-12.35887,-15.32768,2.3942018,-1.998497,-3.1159935,1.3891472,-9.653421,-11.621455,10.247183
1570715264,-14.422671,-1.5179238,-14.920665,-2.8241022,2.5641696,1.571313,-6.6654577,13.2351465,-16.424223
1570715264,-11.085154,-14.475344,-5.104438,-0.49749365,-1.1814142,1.4221714,-7.120356,-6.612785,-1.2258313
1570715264,-7.1395097,-19.737799,2.255338,-0.6498311,-1.5542682,0.91722065,-2.3798366,-12.698846,5.899313
1570715264,-2.207454,-8.130709,-2.882619,-0.54543203,-1.0844723,-0.15446806,3.7445314,-1.460463,1.1492168
1570715264,0.56982,-1.6807296,-6.0621185,1.1558472,0.07670138,-1.6203166,5.6551046,4.7261543,-2.566584
1570715264,3.8067808,4.2425256,-1.091756,1.2687687,0.36326626,-1.8482902,9.188946,11.587936,2.5378537
1570715265,8.049306,4.3766007,-2.2984335,1.3657106,-0.02769772,-0.8991106,13.13459,12.052411,1.067814
1570715265,3.0023289,1.7764976,-1.2018893,0.7542302,1.1015171,-0.59656626,7.872135,9.662998,1.9919758
1570715265,-4.7740383,-4.2185836,-1.8483237,1.2719646,3.2885716,0.053264845,-0.1436521,3.7828386,1.4173675
1570715265,-35.103786,-49.5504,-4.5202527,-1.8088742,0.91295946,3.0414228,-30.554802,-41.730934,-0.7278373
1570715265,8.714894,4.285621,-8.523358,-0.5614115,-0.33237264,-1.2037855,13.503298,11.9614315,-4.745308
1570715265,-0.50757074,-5.521029,-4.6495395,1.7257811,2.45764,-0.28869548,5.6646814,6.3446345,-4.4101195
1570715265,-17.769766,-27.753586,-6.3589997,0.9822038,0.6210681,0.64237404,-6.9527617,-11.247959,5.0661306
1570715265,-7.4842744,-8.255207,-5.1235914,2.625957,0.85862935,-2.317021,-3.5434184,0.12449849,-1.8914193
1570715265,-1.8770541,-8.279149,-6.7612257,3.049945,1.0599705,-1.2442669,1.5658079,0.545878,-4.122815
1570715265,-5.171476,-5.93762,-5.8562174,3.3066816,0.5017549,-0.40374753,-1.9632454,3.1555579,-4.0653543
1570715265,-6.3111157,-2.3463178,-7.0581064,2.3575022,0.6317211,-0.77340555,-3.7588966,4.9559975,-4.9464207
1570715265,-5.6407394,2.6192567,-4.2904096,1.2602463,0.3526133,-0.85117227,-2.906561,12.004527,-3.5529952
1570715265,-5.142745,6.2009826,-2.5091233,0.11292148,-0.3451562,-0.44422883,-2.2218192,15.275007,-2.1499932
1570715265,-3.7014358,7.469909,-0.2873042,-1.4370855,-1.1931325,-0.30680552,-1.8626889,16.79772,0.49320555
1570715265,-0.3878607,5.415684,-1.1683705,-2.2147524,-1.8259189,0.38883337,1.6567876,15.528792,0.009576807
1570715265,-0.16280572,-3.1651347,-3.6104562,-3.164997,-2.2978456,0.9385266,2.801216,8.09719,-0.61291564
1570715265,-1.2880806,-16.941372,-12.770672,-3.7764776,-2.471489,1.2517239,1.436521,-6.631939,-7.680599
1570715265,-7.029376,-26.00103,-7.8146744,-1.862139,-0.9534408,2.9934845,-1.7956513,-16.960526,-8.992621
1570715265,-5.8322754,-16.419436,-4.912902,-2.5087743,-1.7524135,1.2218956,-1.5514427,-11.439496,-0.7134721
1570715265,-12.617443,-8.748413,-12.650962,-3.160736,-0.2748466,0.5731298,-5.923255,-2.15957,-9.993398
1570715265,-17.827227,-15.978902,-4.1706996,-2.073068,-1.0525134,0.7755362,-12.512098,-9.552865,-1.7908629
1570715265,-8.039729,-10.299856,0.0047884034,-1.5041993,-1.0493175,0.56247675,-4.783615,-4.2999864,4.462792
1570715265,-1.3934253,-8.959103,-6.315904,-0.45807767,-1.4051267,0.11185618,3.5003228,-3.040636,-0.91458505
1570715265,2.5234885,-2.753332,-4.3766007,0.57739097,-0.6359823,-0.9385266,7.6710224,3.1172507,-0.5267244
1570715265,7.6614456,-0.5363012,-1.934515,1.3262947,0.6711371,-1.697018,12.497733,5.544971,1.5562311
1570715265,6.861782,7.967903,-5.4779334,1.9036856,0.53690964,-1.1537166,13.397953,14.93503,-1.6472107
1570715265,-2.8874073,3.5673606,1.3599066,1.140933,1.0482522,-0.08202787,3.3566709,12.191275,4.7165775
1570715265,-11.104307,-9.878476,-2.1691468,0.46766534,3.200152,0.5113425,-2.5139117,0.29688102,4.9655743
1570715265,-9.643845,-26.460716,-2.135628,0.01384886,0.85436815,1.3113805,-15.102624,-29.592333,-3.7205894
1570715265,-7.153875,-11.745954,-8.461109,0.8298663,-1.0290768,-1.2218956,-1.283292,-0.61291564,2.0254946
1570715265,-1.0199299,-17.851168,-5.8083334,2.1497693,1.3571883,-1.6746467,3.3518825,-10.01734,-1.8435353
1570715265,-14.317327,-18.401834,-8.66701,1.2016549,0.33024204,-0.9385266,-6.5457473,-9.859323,-4.2185836
1570715265,-7.1059904,-10.6158905,-9.016563,2.453379,1.3998002,-2.1838586,-5.104438,-2.72939,-7.4028716
1570715266,-3.3854012,-6.6271505,-8.839393,2.1337898,1.0993865,-2.005954,-0.48841715,0.79966336,-5.851429
1570715266,-6.6846113,-6.8665705,-4.9895163,2.9476767,0.8607599,-0.7883197,-4.247314,2.384625,-2.834735
1570715266,-4.4436383,-0.9576807,-5.521029,2.160422,0.5528891,-1.0088362,-2.2744915,8.48984,-4.0462008
1570715266,-5.650316,2.9783869,-3.7828386,1.1601083,0.51240784,-1.2645074,-3.9935284,11.09473,-3.845088
1570715266,-4.8745947,7.479486,-0.7086837,0.31106672,0.0031958907,-0.95024484,-3.289633,16.678009,-0.11971009
1570715266,0.7613561,8.829816,-0.6703765,-1.3124459,-1.0834069,-0.28123838,2.1021092,18.483236,0.39264908
1570715266,1.7286136,5.3342814,-2.327164,-2.27867,-1.280487,1.0855376,3.2561142,14.896723,-0.7757214
1570715266,0.1340753,-12.23437,-5.7748146,-2.8912158,-0.88313115,2.2339277,2.791639,0.20111294,-4.2185836
1570715266,-1.8148049,-25.07208,-15.907076,-3.9234886,-2.6398058,2.6653728,0.9911995,-16.19438,-12.828133
1570715266,-13.067553,-32.522835,5.0182467,-1.4935462,-0.8618252,4.229229,-8.992621,-24.329878,8.5473
1570715266,-7.383718,-10.97502,-5.746084,-2.087982,-1.9239262,1.4519997,-4.999093,-9.361329,3.667917
1570715266,-14.082694,-8.293514,-7.771579,-2.1156797,3.6869926,1.890902,-7.632715,4.381389,-9.624691
1570715266,-12.23437,-18.550274,-3.289633,-0.40800872,-2.2989109,1.4711751,-7.1395097,-11.760319,1.2880806
1570715266,-8.973468,-13.9917145,1.9680338,-1.2240262,-0.7851238,0.7510343,-3.1364043,-7.517793,6.469133
1570715266,-3.4476504,-5.315128,-4.596867,0.06285252,-0.46127358,-0.25247538,1.6663644,-0.35434186,2.0111294
1570715266,5.00867,-2.2409728,-6.26802,1.266638,0.57739097,-1.6512103,10.7116585,4.4580035,-1.9393034
1570715266,10.635044,4.0222588,0.866701,1.395539,1.2730298,-2.2445807,14.84405,9.466674,2.4372973
1570715266,3.6056678,6.7372837,-2.9161377,1.9100775,-0.067113705,-0.6711371,11.018116,16.687586,0.4405331
1570715266,-4.8985367,0.9768343,-0.4261679,0.81601745,1.1782184,0.14701098,1.0342951,10.089166,3.596091
1570715266,-19.421764,-21.332336,4.223372,1.4765016,3.307747,0.25247538,-14.949395,-13.469779,8.015787
1570715266,-7.5944076,-27.983429,-4.534618,-0.0010652969,-1.9132733,1.6576021,-17.343597,-32.407913,3.787627
1570715266,8.858546,5.9519854,-18.061857,-1.2155038,0.39629045,-1.4679792,15.361198,12.593501,-10.524911
1570715266,-6.50744,-9.615114,-0.5506664,2.1859894,1.5681171,0.13529271,-0.47884035,0.17238252,2.4037786
1570715266,-14.475344,-28.778305,-6.981492,0.9118942,0.7851238,-0.5614115,-11.343728,-20.2741,-2.3511062
1570715266,-4.654328,-10.213664,-10.180145,2.3958528,1.0567746,-1.8706614,-2.4660277,-3.1747115,-5.6407394
1570715266,-2.0350714,-11.046846,-8.2169,2.8816283,1.2954011,-1.3049887,2.1739352,-1.5514427,-6.1866174
1570715266,-6.943185,-9.356541,-7.6614456,3.6571643,1.2655728,-0.84478045,-3.6966474,-0.35913026,-5.793968
1570715266,-9.490616,-3.572149,-8.561666,2.6983972,0.8820659,-0.7180101,-5.693412,5.45878,-7.129933
1570715266,-8.911219,3.1890767,-5.104438,1.9558852,0.33876443,-0.88739234,-7.1873937,11.319786,-5.48751
1570715266,-4.5777135,12.923901,0.8619126,0.26099774,-0.8437152,-0.88845766,-3.620033,20.949265,1.2545617
1570715266,-2.0015526,10.7356,-0.095768064,-1.8035477,-1.9750605,-0.060721926,-0.2681506,21.35628,0.6703765
1570715266,-1.8962077,2.2936451,-1.6041151,-2.9540684,-2.0666761,0.6285252,0.08140286,13.239936,-0.51235914
1570715266,-0.20111294,-10.175357,-4.209007,-3.265135,-2.5375373,0.9917914,1.436521,2.1787236,-0.40701428
1570715266,4.405331,-21.768082,-13.536817,-3.5996385,-2.281866,1.0770152,7.1395097,-12.674904,-11.075577
1570715267,-9.054871,-27.016172,4.548983,-1.9420363,-1.1601083,3.6028342,-4.185065,-20.719421,3.9312792
1570715267,-8.39886,-11.334151,-6.1100025,-2.1668139,-2.4906642,1.6650591,-3.596091,-5.947197,1.0773908
1570715267,-14.149732,-4.8841715,-11.678916,-2.3564367,2.0815902,1.704475,-9.155427,2.705448,-7.9870567
1570715267,-14.393941,-14.944607,-4.510676,-0.72759783,-0.8309316,1.1537166,-9.68694,-7.6375036,-1.460463
1570715267,-5.554548,-15.126566,1.1923125,-1.1718266,-0.9310695,0.6604841,-1.6184803,-9.629479,5.3821654
1570715267,-2.9640217,-7.1634517,-4.060566,-0.37604982,-0.90869826,-0.28976077,2.7724855,-0.40701428,0.1340753
1570715267,0.6703765,-2.3127987,-5.9424086,1.1036476,-0.6168069,-0.8607599,6.3829417,4.606444,-1.9919758
1570715267,7.311892,0.21068975,-3.323152,0.9321348,0.6498311,-1.5137869,12.737153,7.4746976,0.40701428
1570715267,10.481815,8.418014,-3.3614593,1.4051267,-0.12463974,-0.8085604,15.5671,15.993267,0.22984336
1570715267,-1.115698,4.6926355,-1.316811,1.3912778,0.7329243,0.30041373,5.717354,12.938266,1.1061212
1570715267,-18.722658,-15.049952,-3.7924154,-0.18110047,3.3333142,1.2123079,-13.733141,-7.3885064,-0.22984336
1570715267,-7.1107793,-15.787366,3.8833952,0.16405573,1.3113805,-0.1725781,-1.9776106,-8.394072,7.7811556
1570715267,-6.540959,-11.803414,-9.849746,0.9822038,-0.22690825,-1.1590431,-1.7046716,-4.1611223,-6.042965
1570715267,-1.6567876,-16.390705,-4.309563,2.145508,0.52945256,-1.1238883,1.1875241,-9.835381,-1.7429788
1570715267,-13.445837,-17.118542,-8.63828,1.4946116,0.38670278,-1.5915536,-9.26556,-8.78672,-5.5737014
1570715267,-5.2480903,-10.189722,-9.361329,2.3617632,1.503134,-2.3511102,-2.9592333,-1.4317327,-5.4061074
1570715267,-1.5849615,-6.531382,-8.283937,2.3958528,1.0738193,-1.8557472,1.4460979,0.91458505,-5.171476
1570715267,-6.3781533,-4.620809,-4.0892963,2.995615,0.58058685,-0.4857754,-3.7349546,4.721366,-2.7246015
1570715267,-5.6120086,-0.5746084,-6.0381765,2.001693,0.21305938,-0.96409374,-3.217807,8.901642,-5.3582234
1570715267,-5.8226986,2.0111294,-4.309563,0.85010695,0.692443,-1.316707,-3.7493198,11.587936,-3.9695864
1570715267,-4.8267107,9.586384,1.0486604,-0.2801731,-0.21838588,-0.82134396,-3.2944214,18.574217,0.6368576
1570715267,0.22026655,8.154651,-0.11492168,-1.7492175,-1.460522,-0.2844343,1.1827357,18.071434,1.340753
1570715267,1.1109096,4.673482,-2.777274,-2.597194,-1.3614495,0.7084225,2.944868,15.351622,-1.4077905
1570715267,0.641646,-15.260642,-6.081272,-3.2896369,-1.1281495,1.7151281,3.0023289,-5.971139,-3.9983168
1570715267,2.1404164,-31.316158,-19.977219,-2.9711132,-2.422485,3.7935224,2.2888567,-27.710491,-17.080235
1570715267,-14.551958,-32.369606,8.925584,-1.9782565,-1.3518618,3.6763396,-9.715671,-26.235662,10.702082
1570715267,-10.500969,-2.0350714,-17.257406,-2.3564367,-1.6693203,1.3422742,-6.5457473,-1.4077905,-5.2863975
1570715267,-15.557523,-11.650186,-3.5769374,-1.7321728,2.1508346,1.5777048,-10.778696,-1.8914193,-2.1452048
1570715267,-10.6398325,-17.357962,-3.6870706,-0.15340276,-2.2072952,1.3891472,-5.7508726,-9.160215,0.12928689
1570715267,-3.5434184,-10.654198,0.81402856,-1.5521376,-0.6210681,0.37285393,1.7908629,-7.6231384,4.783615
1570715267,-0.8283938,-3.7828386,-4.76925,0.26845482,-0.12783563,-0.8138869,3.371036,2.7102363,0.5315128
1570715267,5.305551,-0.93373865,-4.572925,1.704475,0.60189277,-1.9995624,9.935937,4.8362875,-1.0869676
1570715267,5.9041014,7.0485296,-0.59376204,1.5073951,0.14807628,-1.1963284,12.124237,15.739482,3.4715924
1570715268,1.3263878,2.6144683,-1.3694834,1.0557092,-0.204537,-0.3440909,6.919243,10.927136,2.3654714
1570715268,-4.9943047,-3.9839516,-3.0454245,0.85862935,1.5936842,0.49642837,0.8331822,5.90889,0.8379706
1570715268,-19.574993,-25.028984,1.7142484,-0.117182665,2.8464735,1.5063299,-9.414001,-9.002198,7.0724716
1570715268,3.2130187,-8.087613,-1.9201498,-0.091615535,0.18003519,-0.22264706,5.2289367,-6.71813,1.13964
1570715268,-3.7684734,-6.3111157,-12.105083,0.6626147,1.8024824,-0.63811284,2.2266076,2.9400797,-9.931149
1570715268,-6.579266,-18.602947,-4.261679,2.3021066,0.89165354,0.3824416,-1.460463,-6.033388,2.7868507
1570715268,-13.412318,-20.949265,-10.644621,1.890902,0.47831833,-0.80323386,-9.169792,-14.178462,-3.9600096
1570715268,-4.0078936,-10.041282,-10.156203,2.7399437,1.678908,-1.4807627,-1.1683705,-1.733402,-7.1395097
1570715268,-4.343082,-8.647857,-7.6470804,3.0627286,1.4274979,-0.7265325,0.20590134,-0.4405331,-6.277597
1570715268,-9.414001,-4.3957543,-6.157887,3.2555475,0.7371855,-0.057526033,-6.2871737,3.7253778,-5.0374002
1570715268,-8.1881695,-0.5602432,-4.951209,2.3756123,0.04261188,-0.5475626,-5.506664,8.37013,-4.285621
1570715268,-6.679823,-0.320823,-4.271256,1.2826176,-0.5859133,-1.1036476,-3.1411927,9.725247,-4.050989
1570715268,-6.0525417,8.197746,-1.7381904,0.22690825,-1.0397298,-1.3476006,-3.53863,17.673998,-1.8195933
1570715268,-0.50278234,10.175357,1.2114661,-1.9814523,-1.6554714,-1.0280116,1.6711528,19.733011,1.3599066
1570715268,2.930503,7.1634517,-3.1842883,-2.575888,-2.0368478,0.036220096,4.9799395,16.725893,-2.480393
1570715268,1.292869,-4.8362875,-7.5082164,-3.6678174,-2.4959908,1.2325486,3.2082303,8.6095495,-4.122815
1570715268,2.030283,-32.264263,-23.18545,-3.6678174,-2.6600463,2.3851998,4.9703627,-23.223757,-20.772095
1570715268,-11.219229,-33.47094,5.5976434,-2.2850618,-1.043991,3.6965804,-6.2249246,-26.341007,2.5617957
1570715268,-8.418014,-12.26789,-6.703765,-2.744205,-2.7143767,0.9822038,-4.2425256,-8.8777,1.5179238
1570715268,-15.078682,-11.520899,-5.731719,-2.0549579,1.4765016,1.442412,-10.223241,-3.9695864,-1.7812861
1570715268,-13.536817,-13.642161,-3.9552212,-0.9917914,-1.9580158,1.09406,-8.461109,-6.090849,-0.8619126
1570715268,-4.8267107,-13.575124,-0.019153614,-1.4051267,-1.1814142,0.818148,-1.3311762,-8.528147,4.357447
1570715268,-0.89543146,-5.094861,-3.1268275,-0.11185618,-0.5187996,-0.32491556,4.8458643,1.6998832,0.9911995
1570715268,3.8355112,-2.566584,-4.3382936,0.8564987,-0.22584295,-1.4274979,8.51857,4.3526587,-0.545878
1570715268,11.334151,9.275137,0.8762778,1.3699719,0.81069094,-1.904751,16.381128,16.79293,4.630386
1570715268,2.906561,6.1866174,-1.8339585,1.7811764,-0.28763017,-0.30254433,9.859323,15.792154,1.0773908
1570715268,-4.189853,-0.095768064,-0.023942016,-0.11824796,1.4445426,0.5592809,1.6759412,9.461885,3.892972
1570715268,-28.706478,-32.08709,-11.324574,-1.940971,1.707671,2.575888,-19.862297,-16.807297,-5.0757074
1570715268,-3.3135753,-8.930372,9.758766,0.3920293,0.21625528,-1.6501449,0.38307226,-4.7405195,15.964537
1570715268,-5.415684,-18.732235,-9.969456,1.904751,0.6967042,-1.1792837,-2.9640217,-11.492168,-6.9862804
1570715268,-2.2649148,-13.809755,-3.41892,1.8067436,0.7680791,-0.98859555,4.8362875,-5.1666875,-1.1348516
1570715268,-12.77546,-14.12579,-14.60463,1.8205925,1.0589051,-1.2826176,-8.628703,-6.9719152,-12.813767
1570715268,-4.654328,-9.44752,-7.422025,2.2009034,1.4988728,-2.1508346,-2.2936451,-2.3319526,-3.86903
1570715269,-4.783615,-5.5162406,-6.8043213,2.3937223,0.7169448,-0.98859555,-1.541866,3.845088,-5.0613422
1570715269,-4.879383,-4.3766007,-4.5394063,2.6983972,0.07776668,-0.5198649,-2.1883004,4.5633483,-2.6431987
1570715269,-4.999093,-3.2752678,-4.3382936,2.127398,0.064983115,-1.1430637,-2.1739352,6.0285997,-3.5434184
1570715269,-7.3310456,2.7964275,-0.34476504,1.0929947,-0.08735435,-1.2570504,-5.085284,10.127473,-0.5410896
1570715269,-2.2649148,8.418014,0.7517793,-0.2759119,-0.49216717,-1.1206924,-2.4181437,17.563864,0.45489833
1570715269,3.0885203,10.170568,3.1364043,-1.797156,-1.8429637,-0.063917816,4.7788267,20.317196,3.1747115
1570715269,-0.15801731,-6.579266,-9.485827,-3.8670278,-1.5990107,1.2954011,1.316811,8.025364,-4.4196963
1570715269,1.1827357,-18.669985,-13.263878,-3.3823178,-1.0471869,2.0496314,3.5242648,-9.409213,-11.042058
1570715269,-4.8937483,-22.91251,-5.884948,-1.7385646,-0.3835069,3.565549,-0.31124622,-11.63582,-6.1770406
1570715269,-12.004527,-24.894909,-3.4859576,-2.704789,-2.9050648,2.2882578,-6.349423,-16.663643,4.285621
1570715269,-18.770542,-7.3885064,-8.590396,-3.501631,0.4847101,1.4466733,-12.53604,-0.10534488,-12.038046
1570715269,-14.06354,-9.476251,-4.8841715,-1.3113805,-0.9118942,1.8110048,-11.257536,-2.2457612,0.7278373
1570715269,-4.912902,-11.87524,-4.223372,-0.6913777,-1.0599705,1.2549198,0.6512229,-5.0996494,0.16280572
1570715269,-0.009576807,-8.130709,-3.8115692,-0.54649734,-1.1260189,0.043677174,4.927267,-2.920926,0.2633622
1570715269,3.7062242,-3.7732618,-2.753332,0.23223473,-0.16938221,-1.0535786,9.591172,2.8443117,1.4460979
1570715269,7.398083,1.2162545,-1.3503298,1.3422742,0.08735435,-1.9857135,11.932701,5.7125654,2.8682537
1570715269,2.480393,7.062895,-1.3024458,2.2222095,0.18962285,-0.6903124,7.675811,14.54717,2.3175871
1570715269,-3.8163576,1.3694834,0.866701,0.47405714,0.3824416,0.14701098,1.3263878,9.002198,4.2425256
1570715269,-7.991845,-8.99741,-0.7326257,0.38670278,1.9090121,0.023436533,-2.920926,-1.3551182,2.7485435
1570715269,-24.837448,-41.525036,-4.405331,-1.2336138,1.3422742,0.40587813,-20.087353,-33.86359,-0.5315128
1570715269,2.1260512,-1.3790601,-3.1411927,-1.2538545,-0.87567407,-1.0663623,7.015011,6.090849,0.90979666
1570715269,-0.4309563,-8.212111,-6.967127,2.0570884,1.6810386,-0.28976077,4.271256,-0.5746084,-2.9975405
1570715269,-6.1100025,-24.028208,0.62728083,1.1089741,1.6149901,-0.28869548,-1.7046716,-16.093824,4.3478703
1570715269,-17.664421,-16.117765,-8.212111,2.5386026,0.47831833,-1.9601463,-13.570335,-7.9343843,-4.6686935
1570715269,-2.705448,-7.1059904,-10.702082,2.2520378,1.1345413,-2.1625528,0.6799533,1.5562311,-7.603985
1570715269,-0.78529817,-8.475474,-7.795521,3.1639318,0.06604841,-1.2016549,2.2026656,-0.866701,-4.486734
1570715269,-5.8945246,-2.3175871,-6.3542113,2.7271602,0.32491556,-0.60082746,-3.122039,6.95755,-4.7884035
1570715269,-6.6415157,-0.9624691,-5.506664,1.7950253,0.32704616,-1.1143006,-3.845088,8.384495,-4.76925
1570715269,-6.909666,5.592855,-1.958457,0.7254672,-0.2119941,-1.0407951,-4.7548847,15.131354,-1.2593501
1570715269,-5.3678,8.585608,0.79008657,-0.81069094,-0.9619631,-0.81175625,-4.2042184,18.674774,0.9624691
1570715269,1.1923125,6.3542113,-1.9057846,-1.8312454,-1.6778426,-0.4452941,2.9400797,15.935806,-0.78050977
1570715269,2.4229321,1.6711528,-3.8067808,-2.5524514,-1.678908,0.8660864,4.295198,12.89517,-2.303222
1570715269,-0.50757074,-13.201628,-3.821146,-3.656099,-1.4669139,1.172892,2.9783869,-0.36870706,-2.408567
1570715269,-3.514688,-32.59945,-14.475344,-3.100014,-1.3593189,3.6070955,2.801216,-21.571756,-16.481684
1570715270,-9.883265,-25.933992,2.8874073,-2.557778,-1.6171207,2.0933084,-7.2592196,-20.915747,7.680599
1570715270,-7.374141,-5.1235914,-16.218323,-1.7204546,-1.1356065,1.474371,-2.542642,0.2825158,-7.9152308
1570715270,-10.749966,-13.924677,-4.6160207,-2.069872,1.2346791,1.7907641,-6.14831,-4.8267107,-1.4460979
1570715270,-16.424223,-16.883911,2.0638018,-0.8724782,-2.7239642,1.2730298,-10.472239,-9.77792,5.209783
1570715270,-7.747637,-5.7987566,-3.4237084,-1.0194892,-0.33769912,0.77020967,-3.7445314,0.4309563,1.6759412
1570715270,0.7038953,-4.596867,-3.6152446,0.7851238,-0.50921196,-0.1747087,5.4922986,1.1492168,1.3263878
1570715270,2.695871,-3.1651347,-2.6384103,1.0482522,0.1384886,-1.0216198,8.475474,3.643975,0.79487497
1570715270,7.0964136,1.3694834,-2.681506,1.5148523,0.05539544,-1.4434774,11.750742,7.752425,1.910573
1570715270,3.9935284,3.3518825,-3.9552212,1.4040613,0.818148,-0.8383887,10.156203,11.434708,-0.22984336
1570715270,-2.1739352,-1.0007763,0.45489833,0.692443,2.3361962,0.029828314,4.1515455,8.619126,3.41892
1570715270,-18.636467,-14.662091,-6.05733,-0.29721785,3.7604983,0.88952297,-7.273585,-0.90021986,1.8052281
1570715270,-1.5179238,-11.008539,0.2873042,0.11079088,0.8138869,0.771275,-0.5410896,-10.228029,0.78529817
1570715270,-4.4196963,-10.405201,-11.798626,1.1036476,1.3209682,-0.40587813,-0.35913026,-1.1683705,-7.881712
1570715270,-4.841076,-13.220781,-2.777274,2.1401815,1.1611737,0.063917816,1.9153614,-4.084508,-0.18195933
1570715270,-16.457743,-16.036364,-11.085154,1.6533408,-0.10866029,-0.47938362,-12.196063,-9.528923,-6.3111157
1570715270,-6.4308257,-12.306197,-8.322245,2.0389783,0.88419646,-1.6778426,-2.4756045,-4.060566,-4.76925
1570715270,-1.3311762,-7.053318,-8.346188,2.2861273,0.8671517,-1.600076,2.528277,0.59855044,-6.277597
1570715270,-6.579266,-6.5936313,-6.4787097,2.4746847,0.6285252,-0.8277357,-3.5673606,2.384625,-3.9360676
1570715270,-8.379706,-3.3279405,-6.813898,2.1774669,0.30041373,-0.85117227,-5.602432,5.875371,-4.8698063
1570715270,-5.861006,1.8818425,-4.0414124,1.2762257,0.088419646,-0.87460876,-3.3423057,11.238382,-2.5378537
1570715270,-3.86903,6.6510925,0.023942016,0.09694202,-0.7936462,-0.9992485,-1.6041151,16.103401,1.3120226
1570715270,-1.3599066,7.599196,0.33039984,-0.8852618,-1.2783563,-0.45914298,0.40701428,17.152061,1.6328455
1570715270,-0.47405192,2.0829554,-2.7629087,-2.077329,-1.6544062,0.81175625,1.8243817,11.444284,-0.9864111
1570715270,0.2777274,-4.0414124,-4.0940847,-2.0826554,-1.8482902,1.6490797,2.6192567,5.0996494,-1.8626889
1570715270,0.37349546,-16.49605,-8.542512,-3.3769913,-2.5833452,1.5350928,3.7110126,-7.704541,-5.7604494
1570715270,-12.780249,-34.33285,-4.8602295,-2.7857516,-1.5169828,3.40895,-8.504205,-26.163836,-1.508347
1570715270,-9.998186,-17.343597,-0.48841715,-2.6270223,-1.6874304,0.9481143,-4.0940847,-5.6646814,-0.46926352
1570715270,-14.537593,-7.642292,-7.920019,-2.0229988,2.8731058,1.1185617,-9.524135,-0.40701428,-3.5865142
1570715270,-12.545617,-14.595054,-5.7269306,-1.3816901,-1.6821039,0.63385165,-7.656657,-6.9144545,-1.5993267
1570715270,-10.692505,-13.9198885,0.46926352,-1.2101773,-2.0922432,0.39629045,-3.2848446,-7.2687964,4.912902
1570715270,-3.4763808,-5.693412,-3.0597897,-0.67220235,-0.42718408,-0.32171968,1.5562311,-0.009576807,2.4516625
1570715270,0.08619126,-2.6719291,-4.185065,0.81921333,-0.51240784,-1.2346791,5.1140146,3.4763808,0.06703765
1570715270,2.4660277,0.17717093,-2.2984335,1.2932705,-1.0844723,-1.844029,8.418014,7.393295,1.6041151
1570715271,6.3781533,1.8866309,-3.9073372,1.2634422,-0.39735577,-1.2517239,10.994174,9.3661175,-1.5945383
1570715271,6.6893997,0.06703765,-4.0462008,1.0216198,1.4392161,-0.6913777,11.702858,7.3645644,-1.5993267
1570715271,0.7469909,0.095768064,-1.0295067,1.2357445,2.1582916,-0.039415985,7.216124,9.485827,3.2992098
1570715271,-18.995596,-13.656527,-1.4652514,-0.14381509,4.5754504,0.77873206,-7.9870567,0.17717093,4.3287168
1570715271,0.16280572,-9.361329,-2.5091233,0.77873206,0.2801731,1.3603842,-1.484405,-8.652645,-1.13964
1570715271,-1.1779473,-6.4164605,-14.767436,0.54543203,1.277291,-0.3483521,3.4332852,2.5139117,-9.849746
1570715271,-9.452309,-14.9063,0.2633622,2.019803,1.8685309,-0.0692443,-2.8443117,-6.3781533,2.6719291
1570715271,-18.459295,-19.6133,-5.4539914,1.4477385,0.46233886,-0.7680791,-14.192827,-13.939042,-0.56982
1570715271,-5.7365074,-10.539276,-8.350976,2.3074331,0.74890375,-1.8514861,-3.347094,-1.6376339,-6.531382
1570715271,-2.1499932,-11.142614,-7.9487495,2.8038616,0.5475626,-1.8493555,1.6184803,-3.6343982,-6.603208
1570715271,-6.2488666,-4.9703627,-5.932832,2.704789,0.4825795,-0.8021686,-2.4995465,4.462792,-4.0414124
1570715271,-6.4308257,-0.8858546,-6.564901,2.0368478,0.10013791,-0.81069094,-3.9456444,8.025364,-5.1810527
1570715271,-5.7365074,1.3694834,-4.10845,1.4232367,0.12783563,-0.80323386,-3.3135753,10.840945,-3.3854012
1570715271,-3.5098996,8.408437,-0.5746084,-0.4154658,-0.53371376,-0.66794115,-1.4556746,18.037916,-0.59855044
1570715271,-0.023942016,8.207323,0.30645782,-2.0475006,-1.4701098,-0.43890235,1.733402,17.793707,1.6903064
1570715271,-0.17717093,2.9831753,-2.9400797,-2.6888094,-1.5798354,0.7670138,1.9009962,14.030022,-0.7422025
1570715271,-0.019153614,-9.830592,-6.775591,-2.9359584,-1.8994244,1.3689066,2.1499932,2.3750482,-3.8833952
1570715271,-0.6751649,-29.285875,-21.902157,-3.375926,-2.4299424,2.6280875,4.486734,-15.562311,-18.899828
1570715271,-11.81778,-31.325735,3.9552212,-2.0720026,-1.2261568,2.5822797,-8.576031,-26.369738,5.4683566
1570715271,-5.995081,-10.692505,-6.8761473,-2.0741332,-2.1732059,0.87567407,-1.3599066,-2.815581,-3.3039982
1570715271,-11.535264,-8.75799,-8.283937,-2.083721,2.497056,1.2943357,-6.71813,-1.2641385,-4.175488
1570715271,-12.277467,-13.038822,-3.4237084,-0.7989727,-1.6267084,0.93426543,-7.2304893,-5.8801594,0.9864111
1570715271,-8.585608,-14.312538,0.2873042,-0.6881818,-1.5979455,0.9140248,-3.0789435,-7.3885064,4.525041
1570715271,-2.0973208,-4.6112323,-4.630386,-0.17683929,-0.23330003,-0.39629045,3.0597897,1.5370775,0.7565677
1570715271,0.6512229,-3.5098996,-4.213795,0.6413088,-0.053264845,-1.3550577,6.14831,3.4476504,-0.033518825
1570715271,4.697424,1.7621324,-2.9017725,0.7659485,0.0042611877,-1.9399058,9.811439,9.112331,1.0869676
1570715271,5.070919,5.5737014,-2.2170308,1.2400056,-0.08415846,-1.1217576,10.491392,13.182474,2.480393
1570715271,0.37349546,1.7621324,-1.3599066,0.3494174,0.6956389,0.022371236,5.070919,9.562442,2.2697031
1570715271,-6.2728086,-6.172252,2.791639,0.9417225,2.124202,0.017044751,-0.076614454,3.763685,5.2863975
1570715271,-13.694834,-31.589098,-7.16824,-0.68924713,0.11185618,1.7151281,-9.14585,-23.90371,-3.107674
1570715271,-3.9217024,-7.216124,-7.6135616,0.49429777,-0.053264845,-0.4452941,0.6464345,0.48362875,-3.6152446
1570715271,-2.2122424,-14.580688,-5.765238,2.2754743,1.503134,-0.6881818,2.0733786,-6.6175733,-1.9680338
1570715271,-12.928689,-16.534357,-6.421249,1.3795595,0.87460876,-0.4825795,-8.911219,-8.303091,-2.9113493
1570715272,-11.592725,-12.435484,-8.619126,2.0560231,0.7840586,-1.9739952,-5.8945246,-3.8833952,-5.4779334
1570715272,-3.4715924,-10.625467,-8.738836,2.342588,0.80749506,-2.083721,-0.50757074,-1.661576,-6.0764837
1570715272,-5.4300494,-6.766014,-5.8083334,2.916783,0.351548,-0.7467731,-2.0111294,2.7150247,-3.514688
1570715272,-6.0860605,-3.0885203,-5.9041014,2.5556474,0.12463974,-0.6540923,-3.5338416,5.7029886,-3.7445314
1570715272,-4.8602295,0.37828386,-5.889736,1.5468111,0.3856375,-1.3412088,-2.753332,9.931149,-5.2289367
1570715272,-7.1586633,8.896853,1.2593501,0.39309457,-0.3451562,-1.172892,-4.8123455,16.864758,0.50278234
1570715272,-3.7732618,6.742072,1.2306197,-1.3678412,-1.1792837,-1.0003139,-3.2369606,16.725893,2.3702598
1570715272,1.2976574,4.4963107,-3.0789435,-2.0901127,-1.3358823,0.07350549,2.006341,14.66688,-2.2170308
1570715272,1.70946,-7.2927384,-4.132392,-3.580463,-2.0144765,1.2943357,3.9264908,4.759673,-1.910573
1570715272,2.858677,-21.317972,-12.914324,-3.195891,-1.8568126,2.209426,4.357447,-10.280702,-9.615114
1570715272,-8.710106,-29.822176,-2.96881,-1.8078089,-1.1185617,3.956513,-3.8307228,-21.586123,-3.4811692
1570715272,-8.820239,-16.783354,-5.9567738,-1.9154038,-1.8972938,1.8461596,-4.5872903,-10.682928,-0.7757214
1570715272,-15.346833,-8.935161,-4.644751,-2.418224,2.3841345,1.7481523,-9.308656,2.4133554,-6.373365
1570715272,-14.5088625,-12.703634,-1.3934253,-1.1441289,-1.485024,1.324164,-9.782708,-4.735731,4.0462008
1570715272,-4.6399627,-11.87524,-2.2697031,-1.0216198,-1.0897988,0.81921333,-1.0773908,-5.932832,2.4995465
1570715272,-0.9624691,-4.6016555,-4.185065,-0.39842105,-0.37604982,0.0063917814,4.261679,0.8475474,0.1436521
1570715272,2.882619,-1.9057846,-2.7102363,0.94278777,-0.31532788,-0.9097636,7.441179,4.745308,1.460463
1570715272,6.5984197,2.5905263,-0.81402856,1.6117942,0.27165073,-1.5276358,11.372458,8.896853,2.9783869
1570715272,3.265691,3.2321723,-2.504335,1.3550577,0.68924713,-1.0897988,9.390059,11.209652,0.4357447
1570715272,-3.6104562,1.2162545,0.33518824,0.8767394,0.88419646,-0.022371236,2.767697,9.5385,3.169923
1570715272,-14.211981,-11.482592,2.815581,1.2272221,3.412146,0.76168734,-7.4986396,-0.93852705,3.8067808
1570715272,-14.298173,-36.540306,-4.7644615,-0.5518238,0.09907261,1.5137869,-9.782708,-28.749575,-0.8714894
1570715272,3.0933087,-5.9424086,-2.5234885,-0.10652969,0.029828314,-0.5198649,9.80665,-0.35913026,2.0685902
1570715272,-4.1706996,-13.326127,-6.6893997,2.45764,1.5947496,-0.5496932,0.16759412,-5.3247046,-3.0310593
1570715272,-10.089166,-19.062634,-2.456451,1.571313,1.453065,-0.35900506,-6.0285997,-10.783484,0.8858546
1570715272,-12.818556,-12.751518,-11.180922,2.604651,0.9332001,-1.4264326,-9.045294,-4.189853,-8.226477
1570715272,-3.5865142,-9.112331,-7.752425,2.6142387,0.99818325,-1.9335139,-0.39743748,-0.1436521,-5.377377
1570715272,-4.8027687,-5.353435,-6.042965,3.0574021,0.2098635,-0.5891092,-1.9871874,3.892972,-4.3957543
1570715272,-5.410896,-2.0015526,-6.5936313,2.4565747,0.23862651,-0.4559471,-2.705448,7.383718,-5.722142
1570715272,-6.0764837,0.79008657,-5.4779334,1.4083226,0.49216717,-0.98007315,-3.6056678,10.271125,-5.094861
1570715272,-6.253655,7.2687964,-0.047884032,0.16725162,-0.44635943,-0.81495214,-4.0462008,16.821661,0.11971009
1570715272,-3.763685,7.6949644,1.8722657,-1.6639938,-1.0993865,-0.6370476,-1.7477672,17.281347,2.2601264
1570715272,1.8914193,6.6750345,-2.3463178,-2.1795976,-1.6725162,0.15553336,3.8402996,16.242264,-1.4748282
1570715272,0.545878,-8.130709,-5.434838,-3.9202926,-1.8323107,1.209112,2.8203697,1.2593501,-3.7780502
1570715273,1.3215994,-24.669855,-17.922995,-2.916783,-1.3976696,2.5311456,4.1802764,-15.638926,-15.375564
1570715273,-7.6375036,-25.148695,0.50757074,-1.7683929,-1.062101,2.8890853,-3.845088,-16.596605,3.4620156
1570715273,-7.8769236,-14.69561,-8.418014,-2.7026584,-1.8131354,1.0578399,-3.4715924,-6.5840545,-5.0900726
1570715273,-16.970102,-13.2351465,-4.8698063,-3.0872304,0.5401055,1.1835449,-12.325351,-5.5737014,-0.8714894
1570715273,-16.160862,-12.756307,-1.6376339,-1.5169828,-1.4157796,1.140933,-11.15698,-5.5162406,2.695871
1570715273,-6.2728086,-11.281479,-1.3599066,-1.3657106,-1.2208303,0.60189277,-3.040636,-4.8745947,3.7349546
1570715273,-0.8714894,-5.731719,-5.0421886,-0.42505348,-1.1696961,-0.19921052,4.663905,1.0630256,-0.6464345
1570715273,1.4077905,-3.0358477,-2.906561,0.40587813,-0.82880104,-1.3326864,7.824251,3.892972,1.3215994
1570715273,5.243302,1.8243817,-2.4516625,1.0141627,-0.41226992,-1.9825176,9.77792,7.3549876,1.7286136
1570715273,2.7341783,5.185841,-1.7142484,1.3444047,-0.2844343,-1.2069814,7.5704656,12.885593,1.9440918
1570715273,-0.8283938,1.8962077,-1.8579005,0.5582156,0.4559471,-0.17790459,3.8738184,9.782708,1.5753847
1570715273,-4.414908,-8.619126,4.1276035,0.67326766,2.1050267,0.122509144,0.5363012,2.657564,5.3725886
1570715273,-25.469517,-46.332592,-12.028469,-2.216883,0.14701098,1.6852998,-20.90617,-33.782185,-5.094861
1570715273,4.501099,3.4380736,-3.7828386,-0.5880439,0.117182665,-1.1995244,9.586384,9.203311,2.3894134
1570715273,-2.5809495,-17.650055,-5.0038815,2.317021,1.8845103,-0.26738954,1.0821792,-6.967127,-2.1308396
1570715273,-13.594277,-29.889214,-8.896853,1.1270841,1.1494554,-0.43037996,-6.9479733,-21.073763,-1.4796166
1570715273,-7.967903,-8.00621,-9.92636,2.3159556,0.839454,-1.8248537,-7.2544312,-2.6048915,-5.827487
1570715273,-2.0829554,-9.749189,-8.911219,2.988158,1.5681171,-1.5936842,0.8714894,-0.62728083,-7.627927
1570715273,-5.3199162,-7.311892,-6.885724,3.1873684,0.9193513,-0.7041613,-1.8052281,1.4413095,-4.697424
1570715273,-6.435614,-1.3263878,-5.995081,2.5620391,0.8479764,-0.5102772,-3.715801,7.350199,-4.1180267
1570715273,-5.6790466,2.8107927,-6.4882865,1.5968801,0.8064298,-0.9033718,-3.98874,10.817003,-5.9998693
1570715273,-6.2584434,4.9895163,-1.2258313,0.68924713,0.2769772,-0.72333664,-4.3382936,14.585477,-0.58418524
1570715273,-5.1523223,5.4061074,2.384625,-1.0876682,-1.0557092,-0.54223615,-4.122815,14.944607,2.944868
1570715273,-0.91937345,5.568913,-1.8770541,-1.865335,-1.1941979,-0.31958908,0.7326257,15.17445,-0.82360536
1570715273,0.076614454,0.9911995,-4.7405195,-2.8027961,-1.7673277,0.85330284,2.0494366,11.9853735,-3.016694
1570715273,-2.0590134,-15.47612,-4.7309427,-3.698711,-1.8110048,0.98113847,0.1388637,-2.8682537,-1.9201498
1570715273,-0.5650316,-33.087868,-17.429789,-2.984962,-2.3436532,3.1618013,2.3175871,-24.286781,-14.202404
1570715273,-8.121132,-23.616405,3.265691,-2.4118323,-2.3340657,2.3947875,-4.213795,-15.380352,6.8809357
1570715273,-7.762002,-0.009576807,-23.44881,-1.9143386,0.692443,1.6085984,-1.8722657,7.455544,-19.689915
1570715273,-13.259089,-16.01721,-3.9552212,-1.8749226,1.1174965,1.5414847,-8.599973,-8.724471,0.6607997
1570715273,-13.972561,-17.894264,0.47884035,-0.8810006,-1.5095258,1.324164,-8.892065,-10.960655,5.2049947
1570715273,-6.2728086,-8.719683,-0.61291564,-1.0322727,-0.4516859,0.6935083,-0.8571242,-2.111686,4.2042184
1570715273,-1.4030021,-4.2521024,-6.6271505,0.73612016,-0.24821419,-0.23436533,4.0701427,2.3463178,-1.8674773
1570715274,2.2122424,-2.4133554,-3.9935284,1.392343,0.39415985,-1.198459,7.5082164,4.4723687,0.545878
1570715274,7.872135,4.3047748,-0.9768343,1.4573262,0.4133352,-1.5308317,12.804191,11.611878,3.3087866
1570715274,4.3861775,6.459556,-1.9632454,1.6895609,-0.07563608,-0.7989727,10.682928,15.021221,1.8483237
1570715274,-2.954445,1.1875241,-0.15801731,0.7595567,1.0716888,0.14274979,1.6424223,8.992621,3.5913026
1570715274,-10.366894,-14.638149,7.062895,2.0421743,3.519741,-0.26206306,-6.033388,-6.679823,10.817003
1570715274,-14.834474,-32.465374,-9.184157,0.06604841,-1.3326864,2.3628285,-10.453085,-24.578875,-5.329493
1570715274,4.2760444,-1.9009962,-6.0381765,-0.7222713,0.1395539,-0.76168734,8.710106,5.9184666,-2.1260512
1570715274,-3.3758245,-9.131485,-1.2593501,2.482142,2.515166,-0.72333664,0.6847417,-1.0726024,2.5809495
1570715274,-17.946936,-25.991453,-6.5696893,0.975812,1.442412,0.16405573,-9.227253,-13.910312,-1.508347
1570715274,-8.432379,-12.229582,-6.435614,2.0901127,0.23543063,-2.4832072,-4.9464207,-3.6152446,-3.2992098
1570715274,-0.91458505,-10.0269165,-11.33894,2.4917295,1.0983212,-2.263756,2.1164744,-0.94810385,-9.260772
1570715274,-4.1515455,-6.0285997,-6.469133,3.1703236,0.5198649,-0.7979074,-1.7764976,3.3087866,-4.6495395
1570715274,-4.453215,-2.7389667,-5.66947,2.7356825,0.6317211,-0.7797974,-2.231396,6.3781533,-3.964798
1570715274,-5.104438,0.17717093,-6.4068837,1.865335,0.50708133,-1.0567746,-2.896984,8.767567,-5.8466406
1570715274,-6.066907,7.1395097,-1.7860745,0.9715508,0.035154797,-0.7222713,-4.6782703,15.198392,-2.1164744
1570715274,-4.0318356,7.5082164,0.35434186,-1.237875,-0.5262567,-0.4154658,-3.2848446,17.736246,0.23463176
1570715274,0.79966336,4.783615,-3.1124623,-1.9953011,-0.84584576,-0.059656627,1.7908629,14.867992,-2.327164
1570715274,0.10055647,-2.7006595,-2.7246015,-3.3535547,-1.7023445,1.1334759,1.1444284,9.437943,0.9528923
1570715274,1.0726024,-20.06341,-14.772224,-3.9543822,-2.2658865,1.2155038,1.4508862,-8.815451,-9.246407
1570715274,-8.556877,-32.63297,-4.4340615,-2.3873305,-1.3784943,3.8467872,-2.825158,-22.337902,-4.0222588
1570715274,-7.699753,-16.625336,-4.999093,-2.3127596,-2.3383267,1.8376372,-4.429273,-11.377247,1.4460979
1570715274,-11.070788,-4.6782703,-14.700398,-1.890902,1.2954011,1.5649211,-5.281609,3.6296098,-15.98369
1570715274,-12.095507,-12.885593,-1.6998832,-1.6277738,-0.8948494,1.3870167,-7.3789296,-4.4819455,2.480393
1570715274,-9.212888,-14.738706,-1.6519991,-1.230418,-1.7087363,1.4093878,-5.8705826,-8.274361,2.7629087
1570715274,-2.6910827,-8.250419,-2.9831753,-0.5901745,-0.091615535,0.62213343,2.3511062,-1.733402,2.2936451
1570715274,0.79008657,-3.3806129,-3.7301662,0.4570124,-0.067113705,-0.21945117,5.861006,2.3558946,0.7565677
1570715274,3.7493198,-2.135628,-0.6464345,0.98859555,-0.005326485,-1.1196271,8.676587,4.6016555,3.1411927
1570715274,7.2592196,5.932832,-3.98874,1.5585294,0.033024207,-1.104713,12.124237,12.133814,1.1683705
1570715274,1.0582372,3.8307228,-0.3878607,1.4914157,0.5443667,-0.204537,7.0102224,11.784261,2.432509
1570715274,-4.5633483,-5.6551046,0.3878607,1.1377372,1.6746467,0.089484945,1.4748282,5.2624555,4.9464207
1570715274,-23.640348,-27.303476,-9.677363,-1.0951252,3.039292,1.0216198,-19.10573,-19.517532,-5.793968
1570715274,2.408567,-0.91937345,1.8626889,-0.53264844,-0.1054644,-0.8810006,4.6112323,1.8387469,4.9320555
1570715274,-3.1028855,-9.653421,-10.6637745,0.9395919,1.2762257,-0.80749506,1.532289,-2.0494366,-6.555324
1570715275,-5.21936,-15.840038,-1.1971009,1.7939601,1.0951252,0.1725781,-0.89064306,-7.9487495,2.705448
1570715275,-16.414646,-20.269312,-9.983821,1.628839,0.16831692,-1.4370855,-12.23437,-12.191275,-6.3111157
1570715275,-1.8483237,-7.086837,-11.075577,2.1039615,1.1462595,-2.5162313,1.6759412,1.4652514,-7.8290396
1570715275,-2.9831753,-7.311892,-9.299079,2.9647214,0.36752746,-1.3774289,-0.023942016,1.6567876,-6.655881
1570715275,-5.1235914,-5.5641246,-5.770026,2.9902885,0.46340418,-0.7552955,-2.432509,3.6822822,-3.9264908
1570715275,-5.142745,-2.7341783,-6.555324,2.119941,0.3494174,-1.1334759,-2.7389667,6.6989765,-5.391742
1570715275,-3.466804,1.8291701,-5.1140146,1.5936842,0.46660006,-1.2559851,-1.4413095,11.3964,-4.4244847
1570715275,-2.2984335,9.586384,1.7238252,0.09907261,-0.43251055,-0.37604982,-0.49320555,19.215862,2.1404164
1570715275,-2.27928,5.257667,0.19153613,-1.6852998,-1.0866029,0.21732058,-0.45489833,14.867992,0.8714894
1570715275,-1.7142484,2.8203697,-2.834735,-2.4800112,-1.2037855,0.85117227,0.30166942,12.334928,-1.5993267
1570715275,-1.3263878,-10.548853,-5.439626,-3.7178862,-2.0794597,0.9960526,1.0821792,-1.2593501,-3.41892
1570715275,-0.78529817,-22.749704,-14.039598,-3.4888475,-1.9569504,2.0208683,2.1164744,-13.838486,-11.142614
1570715275,-10.788273,-29.410374,-1.0103531,-2.5162313,-1.8983592,2.916783,-6.9240313,-21.088129,2.4516625
1570715275,-7.4746976,-14.30775,-6.7947445,-2.5844104,-2.4523137,1.2655728,-3.596091,-10.409989,-8.734048
1570715275,-13.9151,-10.903194,-3.3375173,-3.1990867,0.9832691,1.2463974,-9.160215,-3.6296098,1.2162545
1570715275,-17.24783,-14.810532,-3.6104562,-1.2645074,-2.5844104,0.9491796,-12.066776,-7.9631147,1.1300632
1570715275,-7.714118,-13.43626,-3.2034419,-1.485024,-1.4264326,0.46233886,-4.3143516,-8.159439,1.9680338
1570715275,-1.3838485,-6.727707,-5.377377,-0.25886714,-0.36752746,-0.19601464,3.5529952,-1.0103531,-0.6895301
1570715275,0.79966336,-1.9249382,-6.033388,0.98859555,-0.6977695,-1.1100394,6.1100025,4.663905,-1.3120226
1570715275,1.3455414,1.1444284,-1.8291701,1.636296,-0.49642837,-1.9015551,6.3589997,9.907207,1.661576
1570715275,3.643975,6.9862804,-2.882619,1.7098016,-0.0692443,-1.3049887,8.145074,14.168885,1.5514427
1570715275,5.377377,-0.05746084,-2.9783869,1.0216198,1.1249535,-0.53264844,10.117896,8.437167,-0.30645782
1570715275,-0.33518824,-5.2241483,3.0023289,0.839454,1.3976696,0.12357444,5.4539914,4.5202527,6.205771
1570715275,-33.097443,-32.87239,-8.279149,-1.5340276,2.4203546,2.536472,-22.562958,-14.279019,-2.2026656
1570715275,5.8466406,-3.5913026,1.4748282,-0.5156037,0.8469111,-0.09587672,8.269572,1.4556746,3.1172507
1570715275,-3.3901896,-16.563087,-9.710882,1.6991487,1.6256431,-0.9108289,2.7964275,-6.7372837,-7.1490865
1570715275,-4.084508,-11.836933,-2.719813,1.8887714,1.6426879,0.03089361,1.9919758,-4.76925,1.5275006
1570715275,-17.03714,-14.949395,-10.730812,1.4477385,-0.067113705,-0.79045033,-15.404294,-9.351752,-5.2289367
1570715275,-2.7629087,-11.722012,-8.48984,2.575888,1.2730298,-1.9260569,-0.46926352,-1.9919758,-6.1004257
1570715275,-3.2130187,-8.576031,-8.959103,2.5503209,0.8053645,-1.4935462,0.31124622,-1.484405,-5.875371
1570715275,-7.991845,-7.311892,-4.697424,2.9870925,0.61787224,-0.46127358,-5.4204726,1.6903064,-3.1124623
1570715275,-5.899313,-1.3215994,-6.114791,1.9921052,0.41226992,-0.92254716,-3.347094,7.575254,-4.5154643
1570715275,-6.411672,0.2633622,-4.3047748,1.3539925,0.26632422,-0.8437152,-4.003105,9.595961,-4.10845
1570715275,-4.343082,5.3199162,-1.2785037,0.5731298,-0.3920293,-0.84904164,-2.834735,13.2351465,-1.2737153
1570715276,-1.8100165,6.6510925,1.0342951,-0.818148,-0.73931605,-0.8234745,0.1340753,16.25184,1.4939818
1570715276,0.8331822,6.871359,-1.2689269,-1.7481523,-0.9385266,0.113986775,2.7246015,16.773777,-0.5267244
1570715276,-0.51714754,-3.6008794,-0.60812724,-3.4952393,-1.4573262,0.9523755,1.5035586,8.6813755,0.22984336
1570715276,0.37349546,-20.2741,-18.847157,-4.7054167,-2.2850618,0.6551576,2.705448,-11.075577,-16.366762
1570715276,-5.0613422,-26.154259,-5.3821654,-2.1795976,-0.8937841,2.8113186,-2.0207062,-17.405846,-2.1499932
1570715276,-5.81791,-20.38902,0.35913026,-2.1487038,-2.0208683,1.7641318,-2.0685902,-12.076353,3.9743748
1570715276,-11.9135475,-10.903194,-14.78659,-2.3851998,-0.624264,1.022685,-7.666234,-2.9879637,-10.845734
1570715276,-21.830332,-13.177686,-2.6910827,-1.6096637,-1.1526513,1.2645074,-17.262194,-5.731719,1.7717092
1570715276,-8.825027,-9.65821,-0.45489833,-0.9033718,-1.4029961,1.1835449,-3.7588966,-2.528277,3.9839516
1570715276,-0.79008657,-8.322245,-6.6510925,-0.32811147,-1.1324106,0.574195,4.6112323,-1.4030021,-2.27928
1570715276,3.074155,-3.0550013,-5.45878,-0.019175345,-0.14061919,-0.6317211,9.41879,3.8594532,-1.1492168
1570715276,3.3518825,-0.019153614,-0.02873042,0.8469111,-0.23862651,-2.1540303,8.446744,7.2065473,4.209007
1570715276,4.1611223,7.1107793,-6.14831,2.0528271,-0.1747087,-1.0290768,8.920795,14.791378,-2.336741
1570715276,2.873042,1.4030021,-1.6711528,0.8852618,1.2463974,-0.20027582,7.4124484,9.313444,1.9153614
1570715276,-2.3654714,-5.779603,2.0398598,0.624264,0.8266704,0.091615535,2.0925324,2.1930888,5.5976434
1570715276,-27.89245,-32.944214,-9.193734,-1.0248157,1.7758499,2.3617632,-23.472754,-25.04335,-5.410896
1570715276,-1.163582,-7.120356,1.7764976,-0.84158456,0.92041653,-0.07989727,3.4955344,0.51714754,5.7843914
1570715276,-7.833828,-20.187908,-9.179369,1.334817,1.9548199,-1.453065,-2.791639,-12.3876,-5.1235914
1570715276,-1.5801731,-9.816227,0.1340753,2.012346,1.2794216,-0.7467731,2.7724855,-6.6271505,2.3127987
1570715276,-10.721235,-14.853627,-10.817003,1.5372235,-0.30147904,-1.015228,-6.943185,-6.4643445,-7.4124484
1570715276,-5.7029886,-12.014104,-9.030929,2.630218,1.7034098,-1.9963665,-3.6152446,-4.185065,-6.8091097
1570715276,-4.261679,-6.066907,-8.207323,2.3777428,1.3699719,-1.639492,-0.2825158,2.327164,-6.5840545
1570715276,-6.9288197,-6.7468605,-3.8786068,2.6898746,0.6125457,-0.38883337,-4.3382936,1.934515,-2.791639
1570715276,-6.339846,-1.8387469,-6.7229185,2.0325866,0.12677033,-0.7169448,-4.209007,7.0581064,-4.88896
1570715276,-6.157887,-0.641646,-6.1626754,1.219765,0.3920293,-1.1100394,-3.9456444,9.844957,-5.9519854
1570715276,-5.1571107,6.6893997,-0.25857377,0.53690964,-0.32385027,-1.004575,-3.5434184,14.279019,-0.51714754
1570715276,-0.40701428,6.8330517,1.4939818,-1.0471869,-0.99711794,-0.8341275,-0.2825158,16.697163,2.3223755
1570715276,1.9536686,7.0006456,-1.340753,-1.9399058,-1.3539925,0.33024204,3.3279405,17.195156,-0.35913026
1570715276,-1.1587936,-9.136273,-3.265691,-4.0598464,-1.6650591,1.1792837,1.1300632,4.175488,-1.0103531
1570715276,-0.21547815,-25.723303,-16.026787,-3.6933844,-1.600076,2.3926568,2.5139117,-14.753071,-13.148955
1570715276,-8.480263,-22.740128,-1.532289,-1.6299043,-0.6935083,3.4451704,-5.1762643,-13.924677,-0.6464345
1570715276,-8.192958,-13.321339,-4.2425256,-2.3255432,-2.0006278,2.0027583,-4.0078936,-7.5944076,2.4947581
1570715276,-14.188039,-8.226477,-8.671799,-2.7782943,1.012032,1.6874304,-9.744401,2.2697031,-7.848193
1570715277,-18.47366,-16.64449,-3.5577838,-1.0067056,-1.4690444,1.4125837,-13.661315,-9.437943,-0.2873042
1570715277,-7.0245876,-12.076353,0.05746084,-1.2186997,-1.3635801,0.7542302,-4.1659107,-6.2632318,5.5880666
1570715277,-0.39264908,-8.350976,-6.469133,-0.36220095,-1.1601083,0.04900366,5.161899,-1.7142484,-1.8531121
1570715277,2.360683,-3.7062242,-7.067683,0.53371376,-0.57739097,-1.1174965,7.920019,3.0502129,-2.6431987
1570715277,5.2289367,-0.58418524,-1.8387469,0.95450604,-0.16618632,-2.2392542,10.443508,6.5505357,2.4037786
1570715277,7.091625,7.632715,-1.6903064,1.7683929,0.40694344,-1.7524135,12.765883,13.891158,3.5529952
1570715277,-1.4556746,3.5098996,-0.31124622,1.3039235,0.81069094,0.07670138,3.122039,11.391612,3.2944214
1570715277,-6.315904,-2.8538885,-1.2785037,0.28123838,1.6927568,0.4175964,-0.18674773,6.981492,2.0398598
1570715277,-24.77041,-40.658333,-5.3007627,-1.2964664,0.9417225,2.4054406,-20.293253,-32.944214,-1.2210429
1570715277,0.20590134,2.1452048,-2.2840683,-1.678908,0.054330144,-0.8309316,4.7979803,9.65821,2.0207062
1570715277,-9.830592,-13.718776,-5.0278234,1.718324,1.3294905,-0.7350549,-3.845088,-6.0764837,-0.6464345
1570715277,-2.7581203,-18.037916,-1.115698,1.2005897,0.050068956,-0.33024204,1.340753,-10.113108,2.954445
1570715277,-11.999739,-18.109741,-12.990938,1.6522756,0.380311,-1.3369477,-8.073248,-9.969456,-9.174581
1570715277,-2.6767175,-8.599973,-9.744401,2.1476386,1.6938221,-2.2222095,-0.23463176,-0.6847417,-5.57849
1570715277,-3.7684734,-8.087613,-7.991845,2.92424,1.0567746,-1.3891472,-1.1109096,0.90021986,-5.109226
1570715277,-4.223372,-5.93762,-5.6215854,3.0414228,0.8937841,-0.88739234,-1.9728222,2.1452048,-3.667917
1570715277,-6.5457473,-3.2752678,-8.039729,2.5481904,0.43677175,-0.87886995,-4.414908,5.626374,-6.172252
1570715277,-5.899313,1.4987702,-3.7493198,1.660798,0.43464115,-0.92148185,-4.156334,9.773131,-3.9073372
1570715277,-5.0374002,7.872135,0.90500826,-0.2418224,-0.6125457,-0.6327864,-3.6296098,17.673998,1.982399
1570715277,-1.8770541,6.9000893,-1.4460979,-1.6874304,-1.1036476,-0.33450323,-0.4405331,16.534357,-0.34955344
1570715277,-0.17238252,2.882619,-3.4093432,-2.5386026,-1.3635801,0.771275,1.3982137,12.41633,-1.7429788
1570715277,0.80924016,-8.796297,-6.8809357,-2.9338279,-1.8301802,1.3145764,1.5562311,3.7588966,-2.6623523
1570715277,5.3725886,-25.421633,-15.241488,-2.9615254,-1.7598705,2.20623,7.192182,-12.5982895,-10.931925
1570715277,-11.429919,-32.072727,2.882619,-1.9835829,-1.280487,3.6550338,-5.506664,-24.938005,3.098097
1570715277,-8.508993,-7.8865004,-9.80665,-1.854682,-1.416845,1.5127217,-5.2624555,-6.3350577,0.038307227
1570715277,-15.897499,-9.859323,-2.695871,-2.0933084,2.630218,1.3039235,-10.70687,1.1061212,-0.36870706
1570715277,-16.534357,-14.360422,-3.083732,-0.50282013,-2.1156797,1.0035098,-12.152967,-6.1387334,0.2873042
1570715277,-6.14831,-11.429919,-2.8491,-0.85756403,-1.306054,0.65622294,-2.834735,-6.71813,1.757344
1570715277,-0.81881696,-4.4340615,-3.98874,0.120378554,-0.30360964,-0.10013791,3.9935284,1.3120226,0.80445176
1570715277,1.1492168,-2.5570073,-4.5202527,0.7169448,0.11824796,-1.3646454,6.0046577,4.525041,-0.93852705
1570715277,2.3080103,2.0398598,-3.3279405,1.1334759,-0.7584914,-2.012346,6.4787097,8.250419,1.9297266
1570715277,3.6870706,2.705448,-4.309563,0.9491796,-0.03728539,-0.9619631,8.465898,11.669339,-0.8810662
1570715277,-0.08140286,0.06703765,-0.272939,0.1043991,-0.020240642,0.1725781,5.626374,7.819463,2.7724855
1570715278,-6.775591,-7.9822683,1.8004397,1.3081846,1.8504208,0.21838588,-1.2018893,3.6296098,2.753332
1570715278,2.9831753,-8.983045,-3.8355112,0.29828313,0.7766015,0.01384886,7.7907324,-5.21936,-2.944868
1570715278,-2.4181437,-8.848969,-3.7205894,0.4506206,0.3877681,-0.14594568,4.9464207,-0.10534488,1.13964
1570715278,-2.7150247,-11.133038,-4.3382936,2.1753364,2.2115564,-0.5986969,1.0247183,-3.1747115,-3.0262709
1570715278,-11.233594,-19.306843,-4.357447,1.4860892,1.3902125,-0.7180101,-5.803545,-11.769896,-0.48841715
1570715278,-12.406754,-12.061988,-8.034941,2.2978456,0.4857754,-1.844029,-11.616667,-5.353435,-6.191406
1570715278,-4.5298295,-11.990162,-8.743625,2.4128976,0.78725445,-2.0997002,-2.408567,-3.1316159,-6.540959
1570715278,-2.9257145,-4.5154643,-5.793968,2.970048,0.29615256,-0.88845766,-0.40222588,4.213795,-5.3821654
1570715278,-4.414908,-2.360683,-4.295198,2.5780187,0.30254433,-0.57739097,-2.27928,7.1634517,-3.3758245
1570715278,-4.4244847,0.23463176,-4.7740383,1.6139249,0.3494174,-1.0077709,-2.542642,9.849746,-4.4244847
1570715278,-5.0757074,6.5505357,-2.6910827,0.42079228,0.23330003,-0.87460876,-3.4811692,16.22311,-2.5953147
1570715278,-3.3183637,8.374918,1.3359646,-0.965159,-0.79045033,-0.49855897,-1.9153614,18.076223,1.5227122
1570715278,-0.4213795,6.3111157,-1.7429788,-2.0570884,-1.4402815,0.13422741,0.94331545,15.998055,-1.1252748
1570715278,0.0,-4.673482,-4.912902,-3.548504,-1.99104,1.0471869,1.6184803,4.8985367,-3.53863
1570715278,2.9161377,-20.858286,-14.69561,-3.881942,-2.2850618,1.2432015,4.951209,-11.563994,-12.315774
1570715278,-6.8330517,-30.808588,-5.0900726,-1.9143386,-1.2155038,3.971427,-3.7972038,-21.973984,-2.1021092
1570715278,-8.207323,-18.732235,-2.7102363,-2.407571,-2.5769532,2.0208683,-4.2281604,-10.409989,0.62249243
1570715278,-15.107412,-6.0764837,-10.505757,-2.6067817,1.5840966,1.7193892,-10.658986,1.7908629,-6.703765
1570715278,-17.377115,-14.571112,-2.231396,-1.4189755,-1.5329623,1.4360203,-12.569559,-7.177817,2.0590134
1570715278,-9.289502,-15.59583,-0.8762778,-1.492481,-1.1920673,1.0482522,-6.885724,-9.083601,2.992752
1570715278,-1.3455414,-7.445967,-4.132392,-0.6189375,-0.57739097,0.11185618,4.486734,-0.63206923,0.34955344
1570715278,2.2505496,-2.743755,-4.209007,0.37178862,-0.5869786,-0.75316495,6.540959,3.7541082,0.2633622
1570715278,6.167464,-0.80445176,-1.6807296,1.2240262,0.10759499,-1.7588053,10.7356,5.2480903,1.8195933
1570715278,7.1586633,6.0525417,-3.7828386,1.6522756,0.22051647,-0.9726161,10.520123,13.723564,0.04309563
1570715278,-0.34476504,1.9919758,-0.59855044,0.74890375,0.68924713,-0.0042611877,3.145981,9.854534,2.992752
1570715278,-6.9240313,-4.4244847,0.29688102,0.5933704,1.6927568,0.2801731,-1.508347,5.923255,4.9320555
1570715278,-21.878216,-30.885202,-4.084508,-0.8735435,2.780425,0.09374613,-12.454638,-13.488933,2.087744
1570715278,1.1444284,-5.8226986,-4.0222588,-0.5528891,-0.14488038,-0.16831692,5.085284,-3.241749,-1.0821792
1570715278,-1.2545617,-7.8769236,-10.328587,1.4551957,1.5159175,-0.5145384,2.3415294,3.2609026,-10.0748005
1570715278,-5.305551,-23.147142,-2.3319526,1.8877062,0.57206446,0.019175345,0.8571242,-10.242394,6.066907
1570715278,-14.686033,-16.663643,-11.736377,1.8898368,0.2844343,-1.728977,-12.315774,-12.243947,-7.225701
1570715278,-3.2082303,-7.0724716,-9.064447,2.3670897,1.4839586,-1.9676034,-0.9911995,2.4133554,-6.066907
1570715278,-2.2744915,-7.953538,-6.3446345,2.974309,0.7936462,-0.9704855,0.7374141,0.22026655,-3.3662477
1570715278,-6.6415157,-3.0310593,-5.90889,2.898673,0.61787224,-0.47938362,-4.003105,4.975151,-4.012682
1570715279,-7.144298,0.6560113,-5.9184666,1.7492175,0.4836448,-1.0269462,-4.817134,9.677363,-5.3438582
1570715279,-7.1969705,5.765238,-2.6671407,0.71481425,-0.034089502,-1.0897988,-5.506664,14.202404,-2.4851813
1570715279,-4.0078936,7.3789296,0.9576807,-1.104713,-1.1920673,-0.8820659,-3.5242648,18.004396,1.2114661
1570715279,0.8523358,2.9640217,-2.1164744,-1.7002139,-1.6703856,-0.595501,1.733402,13.144167,-0.6560113
1570715279,2.4229321,0.2873042,-3.0550013,-2.3585675,-1.930318,0.7307937,4.0174704,10.55843,-1.6089035
1570715279,1.1013328,-11.247959,-3.0454245,-3.1021447,-1.6480143,1.2314832,4.050989,0.48841715,-2.4372973
1570715279,1.0582372,-29.434317,-15.801731,-3.2907023,-1.5478765,3.548504,6.6367273,-16.893488,-15.988479
1570715279,-13.589489,-32.06315,1.7477672,-2.3298044,-1.3731678,3.7317352,-9.931149,-23.712173,5.363012
1570715279,-10.55843,-2.3942018,-18.799273,-1.9185997,-1.0812764,1.3284253,-6.205771,-1.0773908,-6.909666
1570715279,-13.804967,-8.566454,-3.3662477,-1.9111427,2.4097016,1.610729,-9.255983,-1.1923125,1.2306197
1570715279,-13.086706,-14.408306,-5.00867,-0.6413088,-2.0144765,1.3795595,-8.149862,-7.398083,-0.23942018
1570715279,-6.9767036,-13.201628,-1.4460979,-1.2613115,-0.79151565,0.63811284,-1.5945383,-6.4787097,3.2465374
1570715279,-2.9161377,-3.787627,-4.8506527,-0.17044751,-0.09587672,-0.29402196,2.5234885,2.791639,-0.02873042
1570715279,0.6751649,-2.882619,-3.5434184,1.4370855,-0.49749365,-1.2293527,5.971139,3.9552212,1.067814
1570715279,5.1810527,2.834735,-3.691859,1.4445426,0.12463974,-1.4519997,10.218452,10.108319,0.5315128
1570715279,5.4539914,1.6041151,-0.07182605,1.3806248,0.73185897,-1.072754,10.1226845,9.227253,3.9456444
1570715279,0.50757074,0.47405192,1.6136919,1.1419983,1.1569124,-0.32917675,6.3111157,8.580819,5.12838
1570715279,-8.101978,-7.053318,1.8722657,1.485024,2.9295666,0.50388545,-2.4468741,3.0023289,3.5529952
1570715279,-21.801601,-35.261803,-8.192958,-0.5731298,-0.35793978,2.2509725,-17.439365,-27.490225,-4.0892963
1570715279,5.046977,-5.233725,-4.2042184,-0.26738954,-0.49429777,-0.93426543,8.676587,-0.8523358,2.2170308
1570715279,-3.7205894,-8.882488,-2.6384103,1.8685309,2.2019687,-0.37391922,0.29688102,-0.91937345,1.4413095
1570715279,-14.5328045,-24.50226,-5.3342814,1.0812764,1.3433394,0.058591332,-13.321339,-16.371552,-1.508347
1570715279,-10.572795,-15.519216,-9.68694,2.7527273,0.7307937,-1.7502829,-8.930372,-9.835381,-7.560889
1570715279,-2.992752,-9.069236,-8.413225,2.895477,1.0748847,-2.0229988,0.1436521,-0.47405192,-6.6367273
1570715279,-4.8841715,-7.201759,-6.7803793,3.3418365,0.38883337,-0.96089786,-2.1930888,1.4987702,-3.98874
1570715279,-6.435614,-2.6910827,-8.374918,2.7314212,0.47086126,-0.67539823,-3.4715924,6.1100025,-6.081272
1570715279,-6.9000893,2.8203697,-6.2009826,1.503134,0.8224092,-0.68924713,-5.2480903,10.91756,-6.655881
1570715279,-4.4340615,7.311892,-0.545878,0.28763017,-0.204537,-0.36220095,-2.1547816,16.850391,-0.7661445
1570715279,-3.7972038,6.8569937,2.1212628,-1.6810386,-1.1473248,-0.624264,-2.3894134,16.232687,2.7629087
1570715279,-0.545878,5.707777,-2.336741,-2.2307317,-1.6064677,0.0031958907,0.9576807,15.74427,-0.7230489
1570715279,0.6607997,-1.2785037,-3.9025488,-2.7537925,-1.9249916,0.9278736,2.7341783,9.921572,-2.5761611
1570715279,-0.4165911,-17.899052,-6.4404025,-3.5996385,-2.02726,1.0567746,2.360683,-6.4499793,-2.5187001
1570715279,-9.227253,-33.03998,-5.9041014,-2.160422,-1.8035477,2.9103913,-4.1515455,-25.330654,-10.553641
1570715280,-7.2352777,-16.46253,0.7422025,-2.6824176,-2.7495315,0.77873206,-4.5394063,-11.654974,6.7708025
1570715280,-12.301409,-6.8905125,-14.389153,-2.213687,1.7577399,1.7002139,-5.616797,5.813122,-13.273455
1570715280,-12.583924,-14.700398,-6.603208,-0.9577019,-1.3049887,1.1441289,-8.63828,-8.303091,-2.944868
1570715280,-9.787497,-17.381905,1.2976574,-1.0333381,-1.4477385,0.98859555,-6.196194,-9.639056,5.0613422
1570715280,-3.107674,-7.8529816,-1.9680338,-0.6168069,-0.63065577,0.21518998,1.508347,-1.5131354,3.4332852
1570715280,0.45489833,-3.4380736,-5.7508726,0.7851238,-0.29934844,-0.789385,4.8027687,3.3135753,-1.6567876
1570715280,6.2584434,0.05746084,-3.514688,1.3806248,0.36433154,-1.6895609,10.247183,6.0860605,-0.04309563
1570715280,7.905654,6.694188,-1.5179238,1.7598705,0.24075711,-1.0429257,13.268666,14.595054,3.6966474
1570715280,0.5410896,3.3806129,-0.7230489,1.6299043,0.26632422,-0.21412468,4.912902,11.463438,2.6910827
1570715280,-7.3789296,-2.9257145,-0.6895301,0.2801731,2.3692205,0.26312834,-1.6567876,7.393295,2.1643584
1570715280,-26.657042,-40.97437,-5.7604494,-1.4466733,1.1398677,2.4278116,-21.40895,-23.75048,-0.5315128
1570715280,1.316811,-2.9113493,-1.4939818,-0.7595567,-0.73612016,-1.2730298,5.9807158,2.5378537,6.0142345
1570715280,-5.8705826,-17.209522,-8.274361,1.3976696,1.8813144,-1.0823417,-2.3798366,-7.4842744,-7.225701
1570715280,-2.9257145,-20.772095,-4.223372,1.7406952,0.54117084,-0.4112046,2.5234885,-11.190498,2.2122424
1570715280,-12.186486,-17.683575,-12.670115,1.668255,0.56993383,-0.9140248,-8.7053175,-9.203311,-9.179369
1570715280,-4.606444,-10.242394,-8.341399,2.6845484,1.9889094,-1.6980833,-1.6663644,-1.3790601,-5.329493
1570715280,-4.8602295,-5.2145715,-5.4061074,2.798535,0.8991106,-0.9577019,-2.3989902,3.9743748,-3.0262709
1570715280,-5.803545,-3.3806129,-5.3103395,2.536472,0.22477765,-0.50921196,-3.5290532,6.0142345,-3.667917
1570715280,-7.326257,-0.21547815,-5.8705826,1.7311075,-0.01065297,-0.98753023,-5.2768207,9.313444,-4.7979803
1570715280,-6.167464,4.050989,-1.9009962,0.74038136,-0.25673655,-1.104713,-4.6686935,12.239159,-1.7286136
1570715280,-2.135628,6.301539,-0.35913026,-0.8319969,-0.87886995,-0.9960526,-0.6703765,15.959748,0.47405192
1570715280,2.0111294,7.6614456,-0.6895301,-1.6320349,-1.6437532,-0.117182665,3.3279405,17.310078,0.45010993
1570715280,1.0630256,0.8858546,-3.3135753,-2.6525893,-1.57877,1.2144386,2.6527755,10.405201,-1.5849615
1570715280,-1.2545617,-16.46732,-5.104438,-3.3748608,-1.2943357,1.4647833,0.8714894,-7.2209125,-2.6240451
1570715280,-7.9343843,-36.487633,-16.539145,-2.3702857,-1.6480143,4.0161695,-4.9655743,-27.720068,-13.283031
1570715280,-11.310209,-21.930887,6.315904,-2.2286012,-2.0688066,1.9281875,-7.4028716,-13.670892,9.888053
1570715280,-9.864111,1.0295067,-19.771318,-1.922861,0.3792457,1.406192,-5.473145,8.872911,-15.8544035
1570715280,-10.941502,-13.546393,-6.517017,-0.9747467,0.050068956,1.6043372,-6.339846,-6.1195793,-2.0494366
1570715280,-9.615114,-16.093824,-0.7565677,-0.47831833,-1.54255,1.3103153,-4.525041,-8.939949,3.620033
1570715280,-4.1036615,-9.720459,0.7613561,-1.0503827,-0.53904027,0.4452941,1.3024458,-2.834735,5.1810527
1570715280,0.1388637,-3.0071173,-5.4204726,0.5283873,-0.13316211,-0.9278736,5.506664,3.9217024,-1.0247183
1570715280,5.6982,0.3878607,-3.86903,1.4083226,0.83306223,-1.9249916,10.673351,7.704541,0.34955344
1570715280,6.694188,7.1730285,-0.51714754,1.7556094,0.6114804,-1.1888714,12.406754,13.79539,4.156334
1570715281,-0.20111294,3.5434184,-0.545878,1.5372235,0.3494174,-0.2077329,5.0278234,12.406754,3.6774938
1570715281,-4.5154643,-1.6998832,-3.122039,0.40481284,1.904751,0.19494934,0.48841715,7.800309,0.4309563
1570715281,-16.582241,-21.538239,-0.93373865,-0.46553475,3.0510104,1.0631664,-7.0485296,-6.8569937,4.999093
1570715281,-2.4947581,-10.702082,3.2561142,-0.4175964,-0.3845722,-0.32598087,-3.4141316,-13.019669,5.2480903
1570715281,-2.2409728,-4.7022123,-12.344504,0.22584295,2.012346,-1.0791458,3.9264908,5.535394,-12.454638
1570715281,-3.8355112,-19.460072,-1.8195933,2.0400436,0.040481284,0.6551576,0.7613561,-5.827487,6.253655
1570715281,-12.445061,-21.011515,-13.560759,1.571313,0.5145384,-1.1281495,-9.543288,-15.868769,-8.183381
1570715281,-2.954445,-6.8665705,-7.905654,2.2861273,1.4477385,-1.7779806,-0.39264908,1.8818425,-5.2480903
1570715281,-3.5194764,-7.714118,-5.2863975,2.7569885,0.6711371,-0.9118942,0.090979666,1.5610195,-2.6192567
1570715281,-5.6790466,-5.6982,-6.042965,2.8944118,0.54649734,-0.77447087,-3.4141316,1.5562311,-4.256891
1570715281,-6.445191,-1.4700398,-7.9870567,2.0751984,0.42505348,-0.8820659,-4.2521024,7.393295,-6.277597
1570715281,-4.582502,1.4939818,-5.386954,1.5041993,0.36859274,-1.0109668,-2.705448,10.788273,-5.511452
1570715281,-2.5617957,8.446744,0.4309563,0.019175345,-0.089484945,-0.5156037,-1.1587936,17.30529,0.0
1570715281,-2.2361844,6.0525417,1.6041151,-1.7449564,-1.0003139,-0.19494934,-0.61291564,15.811308,2.9640217
1570715281,-1.9297266,3.892972,-3.3901896,-2.504513,-1.2432015,0.4175964,-0.17717093,14.192827,-1.1540052
1570715281,-0.49320555,-9.404425,-5.7748146,-3.1564748,-1.6757121,0.95663667,0.3878607,3.572149,-3.3758245
1570715281,-0.9672575,-32.42228,-20.288465,-3.307747,-1.9942359,2.087982,3.8355112,-19.062634,-17.587805
1570715281,-11.621455,-30.727184,6.4164605,-2.360698,-1.0056403,2.8496692,-8.288726,-22.18946,9.907207
1570715281,-8.925584,-8.389283,-10.084377,-2.2871926,-2.6845484,1.0194892,-4.9320555,-3.8786068,-0.7038953
1570715281,-12.315774,-5.7508726,-12.727576,-1.9761258,2.1071572,1.9707993,-7.9487495,1.8962077,-8.408437
1570715281,-12.794614,-17.48246,-3.5913026,-0.67539823,-2.2488418,1.4285632,-7.728483,-9.409213,0.9576807
1570715281,1.0295067,-1.8195933,-3.9983168,-2.3415227,-1.8525513,1.180349,3.7541082,8.149862,-1.8339585
1570715281,-1.1109096,-19.292477,-12.880805,-4.139744,-2.4768155,1.3678412,2.4660277,-5.90889,-5.722142
1570715281,-13.876793,-33.59544,-2.633622,-2.4437912,-1.3944737,2.5471249,-9.509769,-26.767176,-4.783615
1570715281,-7.843405,-10.740389,-2.2026656,-2.418224,-2.1252675,0.23330003,-4.3239284,-6.603208,6.2584434
1570715281,-12.421119,-6.579266,-11.880029,-1.9899746,1.7556094,1.2581156,-7.1490865,5.559336,-9.174581
1570715281,-10.453085,-14.188039,-7.97748,-1.1206924,-1.2911398,1.1132354,-5.755661,-6.9240313,-3.347094
1570715281,-8.920795,-15.993267,1.4460979,-0.9449184,-1.6256431,0.79471153,-4.606444,-9.509769,5.913678
1570715281,-3.490746,-8.054094,-2.791639,-0.5113425,-0.46660006,-0.20347172,1.0869676,-1.7717092,2.9161377
1570715281,-0.49320555,-4.261679,-7.651869,0.5944357,-0.005326485,-0.9065677,4.8219223,2.6623523,-3.1842883
1570715281,2.3989902,-1.0630256,-2.183512,1.0109668,0.33769912,-1.6426879,7.359776,5.0661306,1.6663644
1570715281,6.933608,4.3861775,-2.3223755,1.5446806,0.175774,-1.1675655,11.554418,11.99495,1.7812861
1570715281,2.9352913,3.241749,-1.4413095,1.2272221,0.4452941,-0.16938221,7.359776,11.113884,2.3750482
1570715281,-4.6495395,0.11971009,-1.5658079,1.0471869,1.8163313,0.30041373,-0.29209262,8.087613,2.135628
1570715282,-26.671408,-31.847672,-5.2049947,-1.1089741,2.615304,1.416845,-22.539015,-23.879768,-1.2497733
1570715282,-0.9768343,-2.2888567,0.60812724,-0.11292148,0.33343795,-0.965159,3.2800562,5.5258174,4.7261543
1570715282,-6.7229185,-11.903971,-5.4300494,1.4658486,1.5414847,-0.5347791,-2.6767175,-3.940856,-1.3742718
1570715282,-2.6862943,-20.144814,-3.7732618,1.9707993,-0.092680834,-0.35474387,-0.5506664,-11.880029,-0.14844051
1570715282,-10.189722,-14.93503,-13.948619,1.7215198,0.41440052,-1.4285632,-6.6175733,-6.4308257,-10.606314
1570715282,-2.0254946,-9.260772,-9.294291,2.3724163,1.5457458,-1.7268463,0.9768343,-0.36870706,-6.445191
1570715282,-5.48751,-7.28795,-6.7612257,2.766576,0.886327,-0.7851238,-2.906561,1.8962077,-4.4963107
1570715282,-5.837064,-4.8602295,-4.4436383,2.9050648,0.50495076,-0.49642837,-3.4380736,4.5298295,-2.9496565
1570715282,-5.923255,-1.9776106,-6.081272,2.1689446,0.19175345,-0.77020967,-3.7349546,7.2065473,-4.548983
1570715282,-5.449203,0.2777274,-3.964798,1.2847481,0.35474387,-1.1846102,-3.6008794,9.150639,-4.6112323
1570715282,-4.6016555,8.015787,0.1436521,-0.31745848,-0.32917675,-0.7883197,-2.777274,17.683575,0.44532153
1570715282,-0.34476504,7.2113357,0.46926352,-1.4935462,-1.022685,-0.5496932,0.41180268,17.06587,1.4796166
1570715282,0.35913026,4.4196963,0.10534488,-2.4448564,-1.5233747,0.6231987,2.2170308,15.298949,1.0630256
1570715282,-0.80445176,-15.375564,-8.7532015,-4.0779567,-1.4999381,1.2250915,0.51714754,-2.3942018,-5.602432
1570715282,-1.5275006,-24.588451,-13.833697,-2.2978456,-1.0375992,2.9977455,2.4660277,-14.958972,-12.263102
1570715282,-6.727707,-25.03856,1.5466543,-1.6884956,-1.2538545,2.2722783,-3.4811692,-14.958972,5.3965306
1570715282,-11.745954,-17.396269,-10.386047,-2.2754743,-2.3436532,1.2922052,-5.932832,-9.9550905,-2.657564
1570715282,-19.330784,-9.868899,-2.4277205,-2.6749606,0.5528891,1.4562609,-14.542381,-1.6184803,-2.3319526
1570715282,-12.018892,-10.85531,-1.6567876,-1.0344033,-1.5084604,1.2176344,-9.102755,-2.9592333,3.3135753
1570715282,-2.4708161,-11.401189,-3.5673606,-0.87567407,-1.1313454,0.68072474,1.436521,-4.865018,1.13964
1570715282,0.7613561,-6.655881,-2.906561,-0.674333,-0.7180101,-0.38670278,5.559336,-0.8619126,0.79487497
1570715282,7.1059904,-3.6391866,-2.0733786,0.5102772,0.06604841,-1.5478765,11.319786,3.323152,2.4851813
1570715282,7.771579,5.2959743,-2.9735985,2.024064,0.054330144,-1.6746467,13.330915,11.429919,2.7150247
1570715282,-0.63206923,3.7062242,-1.2354081,1.7556094,1.1281495,-0.18110047,4.7261543,12.732365,1.8100165
1570715282,-5.1523223,-1.0534488,1.6184803,0.3494174,1.1696961,0.07350549,0.12928689,8.772355,4.9895163
1570715282,-10.635044,-17.587805,-2.4947581,1.0503827,3.674209,-0.5262567,-5.425261,-8.408437,4.4101195
1570715282,-6.2632318,-20.192698,-6.2009826,-0.63811284,-1.2442669,1.1505207,-11.903971,-23.81273,-0.9911995
1570715282,-0.32561144,-1.757344,-13.139379,0.26525894,0.8714129,-0.2087982,5.0661306,8.346188,-8.7532015
1570715282,-2.5091233,-14.686033,-2.657564,2.0219336,-0.018110048,0.11079088,2.0159178,-2.1691468,2.0973208
1570715282,-11.099519,-25.871744,-13.072341,0.800038,0.5656727,-1.1004517,-7.5561004,-21.38501,-7.656657
1570715282,-4.10845,-9.112331,-9.150639,2.1284633,1.1473248,-1.8706614,-2.695871,-1.1252748,-5.7987566
1570715282,-0.82360536,-9.284714,-5.9807158,2.9018688,1.0162933,-1.0897988,1.8866309,-0.2633622,-3.241749
1570715282,-4.9464207,-6.5457473,-7.374141,3.0648594,0.88845766,-0.43357584,-2.4660277,2.72939,-5.3821654
1570715283,-8.379706,-2.2266076,-9.284714,2.2509725,0.8735435,-0.74357724,-6.090849,7.2209125,-7.9870567
1570715283,-6.6750345,1.508347,-5.4779334,1.5681171,0.6413088,-0.9374613,-5.2480903,9.844957,-5.439626
1570715283,-5.2528787,5.650316,0.93373865,-0.19814523,-0.70948774,-0.6285252,-3.4524388,15.26543,1.5945383
1570715283,-2.4516625,4.8745947,0.038307227,-1.2048508,-1.3646454,-0.43783703,-0.79487497,14.499286,0.90021986
1570715283,-0.45010993,3.098097,-2.8395233,-2.0229988,-1.4903504,0.5539544,1.283292,12.665327,-1.5705963
1570715283,-0.17238252,-8.264784,-2.858677,-3.0765777,-1.9622769,0.8991106,1.9009962,1.1252748,-0.9528923
1570715283,-0.4213795,-23.09447,-15.940595,-3.4025583,-2.0208683,1.416845,2.0494366,-14.010868,-13.177686
1570715283,-7.795521,-28.64423,-2.1499932,-1.8173965,-0.7957768,2.707985,-4.534618,-20.005949,1.1587936
1570715283,-5.45878,-14.073117,-2.2888567,-1.8259189,-1.7641318,1.5521376,-1.934515,-9.375694,0.49320555
1570715283,-14.925453,-8.039729,-9.294291,-2.4203546,0.77340555,1.3987349,-10.606314,-0.17238252,-5.329493
1570715283,-16.883911,-12.943054,-0.7565677,-1.2240262,-1.5617253,0.9619631,-12.23437,-5.497087,3.6152446
1570715283,-7.503428,-11.999739,-1.2545617,-0.9917914,-1.3912778,0.85330284,-4.9320555,-5.48751,3.3039982
1570715283,-0.6895301,-7.350199,-4.663905,-0.25354066,-0.8138869,0.031958908,4.5633483,-0.30166942,-0.31124622
1570715283,3.5482068,-3.7924154,-3.787627,0.53797495,-0.20347172,-0.71587956,7.551312,3.040636,0.25857377
1570715283,8.39886,0.1340753,-0.04309563,1.237875,0.46020827,-1.6831691,13.244724,7.632715,4.003105
1570715283,5.645528,6.14831,-4.5920787,2.0890472,0.75742614,-1.1366718,11.568783,13.40753,-0.5410896
1570715283,-1.9776106,3.016694,-0.62728083,1.2325486,1.3124459,-0.005326485,3.371036,11.410766,2.4851813
1570715283,-8.810662,-5.78918,-0.5554548,0.5219955,1.9154038,0.2056023,-3.3183637,5.161899,3.3758245
1570715283,-22.55338,-35.213917,-6.3685765,-1.1249535,1.7566746,1.4679792,-15.389929,-16.46253,-2.705448
1570715283,2.9113493,-1.9057846,-2.542642,-0.5912398,-0.24075711,-0.60615396,5.793968,1.9249382,3.5242648
1570715283,-4.5681367,-12.239159,-6.6175733,1.4637179,2.1774669,-0.50282013,-0.23463176,-1.4891934,-5.793968
1570715283,-7.517793,-23.42008,-0.8571242,1.6054025,0.98007315,0.005326485,-2.4420857,-14.4370365,5.3247046
1570715283,-12.828133,-15.380352,-12.248735,2.001693,0.4495553,-1.3145764,-10.840945,-9.481039,-7.9870567
1570715283,-1.9297266,-7.666234,-6.459556,2.956199,1.0674275,-1.4722403,0.770933,1.5179238,-4.9416323
1570715283,-5.0757074,-8.078036,-6.1243677,2.992419,0.7808626,-0.5976316,-1.0390835,1.3455414,-4.76925
1570715283,-7.393295,-3.2321723,-5.070919,2.3564367,0.32385027,-0.65089643,-4.6495395,5.60722,-3.7445314
1570715283,-7.9870567,-0.10055647,-5.6120086,1.646949,-0.351548,-1.0280116,-5.592855,8.863335,-4.381389
1570715283,-3.6487634,2.1212628,-4.232949,1.3646454,-0.5869786,-1.3337518,-2.4516625,10.721235,-5.1379566
1570715283,-3.0502129,8.226477,0.8283938,-0.6327864,-1.0407951,-0.8980453,-1.1300632,17.884687,0.34955344
1570715283,-0.47884035,5.363012,0.58897364,-2.1657486,-1.6341655,-0.4847101,0.545878,15.753847,2.2649148
1570715283,0.4357447,3.4045548,-4.8123455,-2.6579158,-1.6906263,0.47192654,1.9728222,13.8959465,-3.3518825
1570715283,-0.023942016,-14.135366,-5.865794,-3.9202926,-1.9111427,0.7542302,2.3415294,-1.0390835,-3.8546648
1570715283,-1.6089035,-28.577192,-11.999739,-2.9902885,-1.180349,2.7932086,3.1890767,-19.55584,-14.403518
1570715284,-9.682152,-27.787106,2.1883004,-2.2051647,-1.6618632,2.0496314,-7.129933,-20.149601,7.704541
1570715284,-7.417237,-12.545617,-8.968679,-1.9207304,-1.940971,1.0525134,-3.7253778,-4.2904096,-5.1666875
1570715284,-12.703634,-8.671799,-8.461109,-2.024064,1.7779806,1.8706614,-8.710106,-0.80445176,-4.1706996
1570715284,-13.670892,-12.430696,-0.17238252,-0.9768773,-2.0475006,1.3582536,-9.275137,-4.9559975,4.4101195
1570715284,-7.7428484,-13.723564,-2.7820623,-0.6988348,-1.6618632,0.99392205,-2.7724855,-6.5122285,1.6328455
1570715284,-0.33039984,-6.301539,-4.3143516,-0.2119941,-0.046873067,0.03728539,4.793192,0.7661445,0.1436521
1570715284,2.327164,-2.8634653,-3.6391866,0.98539966,-0.0042611877,-0.8767394,7.345411,4.3526587,0.7086837
1570715284,4.7548847,3.122039,-2.2601264,1.1867408,-0.42611876,-1.3316212,9.519346,10.668563,1.7908629
1570715284,2.0638018,4.7165775,-2.408567,1.7982212,0.29508725,-0.506016,6.6271505,12.564771,1.292869
1570715284,-3.3135753,2.695871,-1.757344,0.7169448,0.27271602,0.17896989,1.2018893,10.697293,1.661576
1570715284,-11.348516,-11.48738,-1.7908629,-0.29189137,2.988158,0.6615494,-6.9383965,-3.5242648,1.8579005
1570715284,-4.084508,-25.306711,-3.9695864,-0.58378273,0.3771151,1.1878061,-7.240066,-24.281994,-1.9919758
1570715284,-8.087613,-9.600749,-7.0820484,-0.4911019,0.14168449,-0.6615494,-7.422025,-5.401319,-7.833828
1570715284,-4.5872903,-19.110518,-3.265691,1.7215198,1.4019308,-0.77447087,-3.347094,-11.808203,-2.1643584
1570715284,-5.841852,-16.76899,-8.844181,1.4967422,0.25460598,-0.60934985,-2.054225,-8.494628,-5.1810527
1570715284,-7.589619,-16.16565,-11.496957,2.1476386,1.4935462,-1.485024,-5.080496,-9.490616,-8.37013
1570715284,-5.0900726,-6.612785,-8.762778,2.6206305,1.2975317,-1.571313,-2.3415294,2.360683,-5.9280434
1570715284,-6.4068837,-7.2687964,-5.765238,2.8826935,0.7084225,-0.6999001,-4.0653543,2.566584,-3.9552212
1570715284,-6.26802,-2.858677,-5.3342814,2.4267464,0.10120321,-0.7180101,-4.036624,6.5840545,-3.916914
1570715284,-6.090849,-0.45010993,-5.0134583,1.7374994,-0.04154658,-1.1345413,-4.2521024,8.461109,-4.0797195
1570715284,-7.153875,3.2752678,-2.6288335,0.6785942,-0.22371235,-1.4796975,-5.1571107,11.137826,-2.767697
1570715284,-4.4580035,7.469909,0.78529817,-0.9236124,-0.87567407,-1.2133732,-1.9919758,17.18558,1.4077905
