time,ax,ay,az,gx,gy,gz,la_x,la_y,la_z,fox,foy,foz
1570715246,-0.33998108,1.60112,9.590576,-0.34783936,2.020401,-0.5075226,0.536798,-1.8409839,-0.10475445
1570715246,-0.40881348,1.6813354,8.338409,-0.710022,2.7565002,-0.010040283,1.1924177,-1.4881647,-1.4041195
1570715246,-1.4329224,1.7471619,6.171051,-0.9124298,3.5245514,0.025115967,1.2660573,-1.1865354,-3.045104
1570715246,-2.1056976,2.8371277,7.6776123,0.17308044,4.3192444,-0.13041687,1.3065028,-0.053384304,-1.5805635
1570715246,-3.7337646,2.6186523,3.6362,2.2492828,1.4835052,-0.13574219,-0.47438765,0.5646858,-4.0185003
1570715246,-4.42807,3.4901428,6.985077,1.8285065,0.5194397,0.19981384,0.018274784,-0.3246863,-1.1804934
1570715246,-4.668091,3.3237457,7.6165466,1.5962677,0.9626007,0.3691864,-0.048776627,-0.9346113,0.14024973
1570715246,-7.1335297,2.8856049,6.673233,1.1968079,1.60495,0.4394989,-0.94300413,-1.2257233,-1.1104989
1570715246,-6.4374084,5.078705,4.766861,1.2617798,2.7298737,0.43203735,-1.0596914,0.09484863,-1.8896842
1570715246,-7.511215,6.7618256,5.4025116,1.6388855,2.3836517,1.012619,-1.4268527,1.4850664,-0.7826805
1570715246,-7.9798737,7.610565,5.1636963,1.3725739,2.5988464,1.4887848,-2.007495,1.7823477,-0.20897627
1570715246,-8.135498,8.763382,4.6866455,0.70783997,2.9503784,1.1223297,-1.5427566,2.375924,-0.3665719
1570715246,-8.800491,8.95311,5.281006,0.92729187,2.9525146,0.6685333,-2.3052473,2.5078201,1.5201311
1570715246,-8.778946,8.404846,4.6950226,0.9091797,2.8395844,0.3841095,-2.0329309,1.6183143,1.4584379
1570715246,-8.494629,8.072647,4.01268,0.562973,3.2273407,0.29249573,-1.4866352,1.1131763,1.4818087
1570715246,-7.9667053,7.660843,2.2864685,0.17414856,3.1591644,0.05706787,-0.7463112,0.5820894,0.542953
1570715246,-8.197754,7.7266846,3.4739838,0.49372864,3.1847382,-0.39033508,-0.89806986,0.67036533,2.2935646
1570715246,-7.1018066,5.8089294,1.4221497,0.7323456,2.2196045,-0.7141876,0.30440044,-0.9801445,1.1616561
1570715246,-5.8645935,4.6303864,2.0458527,-0.34677124,2.0491638,-0.09526062,1.5589604,-2.1136312,2.233858
1570715246,-5.6191864,3.9342651,0.33099365,-0.42453003,1.9287872,0.80807495,1.9990878,-2.8546977,1.0063426
1570715246,-6.051346,5.8286896,-1.806427,0.107040405,1.0275726,0.92845154,1.3063011,-1.3767796,-0.8571709
1570715246,-7.004242,6.6397247,0.5752106,1.1914673,0.12956238,0.65148926,0.24322939,-0.49858952,1.5075498
1570715246,-6.9443817,6.5523376,1.2060852,0.60131836,0.68562317,0.112457275,0.07651949,-0.54559374,2.1233578
1570715246,-7.1448975,6.8498077,-0.0059814453,-0.17738342,1.3418274,-0.21031189,-0.2567382,-0.47840452,2.0557723
1570715246,-7.5572968,6.1524963,-1.3581085,-0.2700653,0.8038788,-0.47769165,-0.5152025,-0.921803,0.30626988
1570715246,-7.7183075,5.937027,-1.8010406,-0.22425842,0.12956238,-0.6673126,-0.5947118,-0.8963833,-0.12634754
1570715247,-6.9036865,5.4533997,-1.5251007,-0.12519836,-0.08882141,-0.44786072,0.17081785,-1.269094,0.10461533
1570715247,-4.941635,5.704193,-1.6478119,0.114486694,-0.8185272,-0.4159088,2.332878,-1.0709071,-0.03599167
1570715247,-4.7459106,7.325653,-2.2816772,0.6354065,-1.4257202,0.05281067,2.5946755,0.5185771,-0.56356275
1570715247,-5.300171,8.296509,-2.0308838,0.6631012,-1.6867218,0.6259155,1.9730725,1.5921049,-1.2329526
1570715247,-4.569336,7.455551,-0.9708557,0.6417999,-1.677124,0.7835846,2.5900812,0.68505573,0.095131814
1570715247,-4.889557,6.873749,-1.0169373,0.11769104,-0.9793854,0.37771606,2.1627421,-0.12729502,-0.256038
1570715247,-4.7345276,7.4172363,-0.50398254,-0.1443634,-0.31253052,-0.19645691,2.3665962,0.4050579,-0.141159
1570715247,-6.1896057,6.1177826,0.5817871,-0.49803162,-0.27844238,-0.6843567,1.0571227,-0.6258321,1.0328777
1570715247,-6.1896057,6.1177826,0.5817871,-0.49803162,-0.27844238,-0.6843567,1.0571227,-0.6258321,1.0328777
1570715247,-7.408264,6.3823395,0.111328125,-0.090042114,-0.8398285,-0.53308105,0.022156715,-0.15828085,0.095279366
1570715247,-7.5411377,6.387726,0.20350647,-0.08578491,-0.8835144,-0.5820923,0.022156715,-0.15828085,0.095279366
1570715247,-8.575439,6.090851,2.458847,-0.28071594,-0.50427246,-1.0902252,-0.9744539,-0.2528119,1.9700363
1570715247,-8.483856,6.2560425,2.4546509,-0.29031372,-0.41479492,-1.1136627,-0.79025173,0.027952194,2.0040224
1570715247,-8.929779,5.8334656,1.395813,-0.31480408,-0.11651611,-1.6409607,-0.9171753,0.09120035,0.80318326
1570715247,-6.7336884,3.699646,2.7335815,-0.18377686,-0.60121155,-1.5674591,1.9826374,-1.306746,1.3240802
1570715247,-6.7336884,3.699646,2.7335815,-0.18377686,-0.60121155,-1.5674591,1.9826374,-1.306746,1.3240802
1570715247,-7.8715363,2.7371674,2.2840729,0.54486084,-2.2577057,-0.97836304,1.1118765,-1.8303065,0.8039377
1570715247,-7.8715363,2.7371674,2.2840729,0.54486084,-2.2577057,-0.97836304,1.1118765,-1.8303065,0.8039377
1570715247,-4.7165833,5.588669,1.1252747,1.6729736,-0.736496,-0.68222046,6.457637,0.63773966,-5.096216
1570715247,-12.960419,2.106903,1.533493,1.0199738,-2.043579,-2.3376465,-3.3287487,-4.83859,-0.697878
1570715247,-5.3031616,0.2669525,-1.5095367,0.92729187,-0.3146515,-0.6108551,2.3682585,-4.289901,-2.433724
1570715247,-8.422806,2.4229279,3.8432922,1.203186,-1.419342,1.2299194,0.47854996,-0.7514529,0.8408401
1570715247,-8.5646515,2.2014618,4.4418488,1.217041,-1.3671417,1.284256,0.15405464,-1.4437847,1.8475306
1570715247,-11.170151,6.4290314,3.158554,-0.6557007,-3.2739563,4.076309,-3.6364074,1.0464191,-2.1990433
1570715247,-11.172546,6.827667,4.522644,-0.72280884,-3.2345428,4.0912323,-3.6364074,1.0464191,-2.1990433
1570715247,-1.0606384,16.52478,7.6225433,0.39678955,-0.6832428,3.0035858,4.4069858,9.4921,5.2490616
1570715247,0.9433136,14.945206,4.8051605,0.4116974,-0.1815033,2.1631012,6.4520245,9.383497,1.890322
1570715247,1.2455902,5.685028,2.9352875,0.10597229,-0.2869568,0.24775696,6.716362,-1.5390215,-1.1316264
1570715247,1.2455902,5.685028,2.9352875,0.10597229,-0.2869568,0.24775696,6.716362,-1.5390215,-1.1316264
1570715247,-2.09552,3.778656,2.5001526,-1.2618256,1.8989563,0.38304138,3.4729857,-3.2825842,-1.2339599
1570715247,-2.09552,3.778656,2.5001526,-1.2618256,1.8989563,0.38304138,3.4729857,-3.2825842,-1.2339599
1570715247,-8.039124,4.18985,4.4562073,-0.9997711,1.8244019,0.12312317,-2.2580905,-2.5969172,0.83627367
1570715247,-8.51857,2.8209686,2.7377625,-0.23490906,1.3386383,0.4309845,-2.6429248,-3.8403907,-0.6384659
1570715248,-7.4381866,3.6870728,-0.59077454,1.1808167,-0.47125244,3.2017365,-2.584858,-4.1233788,-3.713252
1570715248,-7.5285645,4.5561676,1.1456299,2.8511505,-0.61932373,6.4252167,-4.4307203,-3.45049,0.00742054
1570715248,-7.5285645,4.5561676,1.1456299,2.8511505,-0.61932373,6.4252167,-4.4307203,-3.45049,0.00742054
1570715248,4.696228,3.1292267,1.2910767,3.6170807,4.4183197,6.459305,3.6583729,-7.95858,0.06847942
1570715248,4.696228,3.1292267,1.2910767,3.6170807,4.4183197,6.459305,3.6583729,-7.95858,0.06847942
1570715248,4.4879303,10.586563,15.796341,7.1846466,-6.1309967,-0.31896973,1.4809395,6.951483,19.14933
1570715248,4.4879303,10.586563,15.796341,7.1846466,-6.1309967,-0.31896973,1.4809395,6.951483,19.14933
1570715248,2.4307098,6.0256042,4.7560883,-0.8186798,3.785553,0.34788513,0.9634172,-2.9165611,7.7838793
1570715248,2.25354,6.0968323,2.755127,-0.7654114,3.725891,0.27970886,0.9634172,-2.9165611,7.7838793
1570715248,-3.7241821,1.3144226,-1.5957336,-0.92840576,1.4440918,0.2914276,-5.47361,-7.48365,0.06438577
1570715248,-2.8437195,2.6300354,-1.1767426,-1.9052429,-1.7602234,0.08157349,-4.98083,-6.5630913,-0.12857103
1570715248,-3.1399994,7.6584473,0.6368561,-3.2229767,-0.8462219,-0.23054504,-5.039057,-1.6892014,1.1657999
1570715248,5.2600555,19.612701,0.022750854,-4.2360535,-3.0566406,-0.9581299,3.7835224,10.578803,-1.3907003
1570715248,5.2600555,19.612701,0.022750854,-4.2360535,-3.0566406,-0.9581299,3.7835224,10.578803,-1.3907003
1570715248,10.392029,19.612701,4.2790375,-1.9436035,1.6251831,-0.94854736,10.3265295,10.740731,1.3996863
1570715248,8.104965,19.612701,4.759079,-1.8189697,1.4717865,-0.9868927,10.3265295,10.740731,1.3996863
1570715248,-0.8828583,16.964111,2.2738953,-2.3238983,-0.44248962,-0.99967957,-1.9496047,8.741244,-2.882585
1570715248,4.277237,4.146759,-0.93673706,-1.4663544,-1.9956512,-0.6151123,2.5148325,-4.186734,-5.266165
1570715248,4.277237,4.146759,-0.93673706,-1.4663544,-1.9956512,-0.6151123,2.5148325,-4.186734,-5.266165
1570715248,4.269455,-4.2628784,2.0937347,0.07295227,-1.4534302,-0.105911255,2.6822023,-12.4623375,-4.57875
1570715248,4.379593,-4.2628784,2.0937347,0.07295227,-1.4534302,-0.105911255,2.6822023,-12.4623375,-4.57875
1570715248,0.18016052,-7.9355774,3.1986542,1.9925537,0.27017212,0.014465332,-0.8391385,-16.06071,-0.9419353
1570715248,-0.9145813,-7.609375,3.406952,2.2780457,0.4736328,0.29675293,-2.106547,-16.185719,-0.43316293
1570715248,3.941452,7.1844025,7.1371155,-0.076187134,5.0031433,0.34788513,1.4578917,-1.9689875,3.1879017
1570715248,4.700409,7.6788025,7.721298,-0.3393097,5.0841064,0.32125854,3.07998,-0.93809986,4.2786016
1570715248,5.759247,19.54866,-7.823654,0.21569824,3.5394745,0.102874756,5.1555696,10.491724,-10.380237
1570715248,-1.26474,0.4411316,-6.640915,1.1712341,2.608429,1.6251373,-1.8651769,-7.925044,-8.66042
1570715248,-1.26474,0.4411316,-6.640915,1.1712341,2.608429,1.6251373,-1.8651769,-7.925044,-8.66042
1570715248,4.210205,19.612701,-1.1923065,0.09211731,-6.723282,2.529541,1.531821,11.219335,-3.8363814
1570715248,4.210205,19.612701,-1.1923065,0.09211731,-6.723282,2.529541,1.531821,11.219335,-3.8363814
1570715248,0.26515198,19.599533,11.44429,7.073868,-6.3824005,-0.9208374,-2.9115841,11.000066,11.150001
1570715248,5.7688293,8.87291,10.741592,3.7939148,8.998947,-2.520874,2.6396382,-0.38765812,11.098734
1570715248,4.799179,7.8715363,8.711899,3.7129517,8.644211,-2.456955,2.6396382,-0.38765812,11.098734
1570715249,0.9576874,-1.0797882,8.391678,-0.37765503,-0.71733093,0.83044434,-1.4180872,-9.912915,10.26375
1570715249,0.9576874,-1.0797882,8.391678,-0.37765503,-0.71733093,0.83044434,-1.4180872,-9.912915,10.26375
1570715249,-3.8486786,3.0490112,1.0624237,-1.5004425,-2.391922,0.5002136,-6.8743734,-5.552493,1.6360662
1570715249,-3.5170898,3.1088715,1.5179291,-1.5015106,-2.4622345,0.42671204,-6.357495,-5.431278,2.441535
1570715249,0.7649536,2.7132263,2.502533,-2.384613,0.20413208,-0.5682373,-2.6218748,-5.9408436,4.167683
1570715249,2.2445679,5.589859,-2.269699,-3.369995,-0.27311707,-1.022049,-0.015025377,-3.2866488,-2.1740804
1570715249,0.93434143,19.612701,2.5252838,-4.2232666,-6.0042267,-1.5727844,-0.27787066,10.954615,-0.21886027
1570715249,0.45489502,19.612701,3.0148926,-4.121002,-5.9658813,-1.4098053,-1.1219869,10.956546,1.2972385
1570715249,9.901825,18.844757,0.8750763,-1.4620972,2.273941,-1.1892853,11.800023,11.195028,-1.8629348
1570715249,7.8535767,17.366348,1.8213959,-1.4301453,1.8872528,-1.2063293,7.1208096,9.691753,-1.8019297
1570715249,-2.9221191,15.538376,-6.839035,-1.1819305,-2.2694092,-1.7389679,-3.95308,7.729453,-11.401481
1570715249,-2.225418,10.916962,3.901947,-1.3523712,-1.8497009,-1.7389679,-3.6809254,3.1032887,0.09661889
1570715249,4.3628387,-0.10115051,1.0636292,-0.13903809,-1.0209198,-1.2052765,3.4307914,-7.4821777,-2.3968065
1570715249,3.407547,-4.5046844,0.4806366,0.61943054,-1.6142731,-0.3637085,2.3636703,-12.694648,-3.4788363
1570715249,2.5683746,-4.5448,3.3943787,1.5440826,-0.87072754,0.07518005,1.4548062,-12.729508,0.06939006
1570715249,1.091156,-6.0848694,0.29927063,1.8434143,-0.25819397,0.5321808,0.040938973,-14.278942,-2.6096141
1570715249,2.1481934,-0.11552429,5.6622925,0.5906677,1.6475677,0.38729858,0.7407836,-8.649186,2.8589807
1570715249,9.150635,10.006561,11.725601,-0.01121521,3.120819,-0.54693604,7.336411,1.0134878,8.420363
1570715249,10.884644,12.210434,11.170151,0.23274231,3.039856,-0.6886139,7.336411,1.0134878,8.420363
1570715249,19.612701,19.612106,-19.577393,0.69506836,4.5109863,3.198532,16.01282,11.286572,-22.40017
1570715249,-2.1374207,-0.11192322,-13.703217,-0.20295715,0.2456665,1.2799988,-3.1110878,-9.770691,-14.022348
1570715249,-2.1374207,-0.11192322,-13.703217,-0.20295715,0.2456665,1.2799988,-3.1110878,-9.770691,-14.022348
1570715249,3.6750946,19.612701,4.8715973,3.1536865,-6.3302,1.0009003,1.156281,11.455211,2.8534079
1570715249,3.6750946,19.612701,4.8715973,3.1536865,-6.3302,1.0009003,1.156281,11.455211,2.8534079
1570715249,8.686768,9.82222,19.612106,7.315674,6.5957184,-2.1341858,4.0376587,1.7993221,20.950274
1570715249,8.686768,9.82222,19.612106,7.315674,6.5957184,-2.1341858,4.0376587,1.7993221,20.950274
1570715249,-5.5359955,0.10235596,-0.10594177,-0.27859497,-2.4174957,-0.10697937,-8.500187,-7.8509827,-1.2079606
1570715249,-0.925354,2.3624725,3.751709,-1.5206909,0.2648468,0.42671204,-2.7371936,-6.5364122,6.403083
1570715249,-0.925354,2.3624725,3.751709,-1.5206909,0.2648468,0.42671204,-2.7371936,-6.5364122,6.403083
1570715249,-0.11431885,0.9906006,2.2086487,-2.2514648,-1.0954895,-0.2422638,-2.9386084,-7.450697,2.6974168
1570715249,-0.11431885,0.9906006,2.2086487,-2.2514648,-1.0954895,-0.2422638,-2.9386084,-7.450697,2.6974168
1570715249,-2.865265,7.4711,-6.9790955,-3.2517395,-1.562088,-0.60232544,-4.986843,-0.78991127,-7.426773
1570715249,-2.865265,8.977661,-7.5991974,-3.3316345,-1.8656769,-0.5618439,-4.986843,-0.78991127,-7.426773
1570715250,-0.26635742,19.612701,8.233658,-3.480774,-1.2989655,-0.022827148,-3.238433,11.262198,5.038013
1570715250,-0.26635742,19.612701,8.233658,-3.480774,-1.2989655,-0.022827148,-3.238433,11.262198,5.038013
1570715250,10.214859,16.501434,2.1942902,-0.080444336,0.57696533,-0.57463074,9.221082,9.095786,-0.5894952
1570715250,8.7155,13.674484,-4.9266663,-0.4618225,-0.10372925,-0.055847168,5.555073,3.8994627,-4.3856316
1570715250,2.494751,12.185883,-6.7863617,-0.8101654,-3.009781,-1.1456146,1.3333175,4.5563507,-11.687364
1570715250,4.253296,1.398819,1.3054352,-0.91348267,-0.94636536,-0.8196411,2.5067973,-6.626173,-0.9599762
1570715250,4.2281647,-3.189682,0.21907043,0.38719177,-0.7162628,-0.43614197,2.8619552,-10.947776,-1.9984939
1570715250,2.7611084,-4.463394,2.4624329,0.96777344,-0.98683167,-0.028152466,1.2202297,-12.515066,-1.449584
1570715250,0.19093323,-5.501877,1.5699921,1.9882965,-0.17297363,0.5598755,-1.1780312,-13.925001,-1.1953127
1570715250,-0.5404968,0.47225952,4.3909607,1.3853455,2.4081573,0.16253662,-2.385713,-7.966445,2.5143201
1570715250,0.04069519,0.40760803,4.826111,-0.10494995,4.043335,0.008071899,-2.078946,-7.609659,2.2524264
1570715250,5.861603,9.589371,-2.7898407,0.27215576,2.7138977,-0.39886475,5.524933,-0.41553497,-2.6735508
1570715250,3.3506927,7.2490387,-3.778656,0.3350067,3.2326813,0.81340027,3.7530656,1.9168282,-5.3420057
1570715250,1.407196,3.1016846,-6.0184174,0.24765015,2.3037567,1.3108826,0.37252927,-4.011304,-7.2583647
1570715250,1.0528564,3.7343597,-12.576736,-0.6450348,-1.4161377,1.5303345,-0.7581016,-4.9755955,-14.743891
1570715250,1.8447266,19.612701,2.0446472,1.3555298,-9.847702,1.0541534,0.2270155,11.536403,-2.6966498
1570715250,4.265274,19.612701,1.2384033,3.5190735,-6.692398,0.45014954,1.2096155,11.460046,0.938784
1570715250,-1.5574341,13.803177,19.612701,5.249069,1.2203827,-1.5067444,-3.679185,7.254175,20.460552
1570715250,12.227188,5.590454,-2.2313995,3.2112122,13.1779785,-1.931778,10.476798,-2.8195786,7.172598
1570715250,-9.797668,-0.9002228,-1.7633362,-1.6858063,-2.202301,-0.21884155,-12.457748,-9.021687,-1.2192572
1570715250,-2.4779968,3.4739838,9.415802,-1.5057831,-2.1437225,1.0711975,-6.1155033,-5.6216717,11.15211
1570715250,-2.1523895,2.597702,4.3269196,-1.2873993,-0.40307617,0.85069275,-4.701194,-5.199313,6.1732955
1570715250,-1.9967651,3.067566,-1.4245453,-2.6253662,-0.24967957,-0.55226135,-5.267534,-5.752902,0.3354373
1570715250,-1.9967651,3.067566,-1.4245453,-2.6253662,-0.24967957,-0.55226135,-5.267534,-5.752902,0.3354373
1570715250,2.8317413,19.612701,-5.732315,-4.437378,-4.7099304,-1.7624054,0.10643935,10.582944,-6.669401
1570715250,2.0458527,19.612701,6.637329,-4.1934357,-5.4886475,-2.7978363,0.6602831,11.3819895,5.264035
1570715250,-2.269104,19.612701,4.84227,-3.4168549,-1.0752563,0.21899414,-4.238166,11.370862,2.9439368
1570715250,9.943726,12.545013,1.8207855,-0.998703,1.0446167,-0.84947205,8.825964,4.9458857,0.32224703
1570715250,9.943726,12.545013,1.8207855,-0.998703,1.0446167,-0.84947205,8.825964,4.9458857,0.32224703
1570715250,3.9157104,4.5723267,6.2716064,-1.5366669,-2.1330566,-0.64601135,1.7946421,-3.1634045,2.7797117
1570715250,4.0617676,3.5140839,6.1207733,-1.4141693,-1.8113556,-0.6609192,1.7946421,-3.1634045,2.7797117
1570715250,3.0011292,-5.0667267,-1.0636292,0.6876068,0.009185791,-0.3914032,1.8897141,-12.53793,-2.270394
1570715250,1.028305,-6.5786743,0.912796,1.8402252,-0.5436859,0.48316956,-0.81356275,-14.708511,-1.9252133
1570715250,0.83618164,-6.336853,1.459259,1.868988,-0.33702087,0.47677612,-0.81356275,-14.708511,-1.9252133
1570715251,-1.8620911,3.564972,9.351746,0.08572388,4.167984,-0.53308105,-3.115161,-4.399061,6.55203
1570715251,-1.8620911,3.564972,9.351746,0.08572388,4.167984,-0.53308105,-3.115161,-4.399061,6.55203
1570715251,4.1132355,12.801193,-15.6245575,0.16989136,0.35964966,-0.57144165,3.5861173,4.253354,-17.29304
1570715251,7.4381866,19.552841,-13.548782,0.6492615,-0.734375,-0.3360138,5.7895055,11.606216,-16.086367
1570715251,2.0883484,2.340332,-4.3592377,-0.08683777,1.6017609,1.5473785,1.3855736,-5.1483917,-7.3332396
1570715251,0.87268066,2.328354,-5.7257385,-0.2935028,0.7676544,1.5899811,-0.21605551,-5.8468447,-6.429357
1570715251,4.7722473,19.612701,4.336502,0.9667053,-6.835144,1.2107544,2.170649,11.759874,2.2919385
1570715251,5.53479,18.632874,3.1675262,4.16037,-4.761078,-0.8643799,2.3121483,10.394298,2.5660615
1570715251,5.53479,18.632874,3.1675262,4.16037,-4.761078,-0.8643799,2.3121483,10.394298,2.5660615
1570715251,2.0626068,6.657669,19.612701,7.4168854,3.7365417,-1.6058044,-2.5832765,-0.75375557,20.739021
1570715251,-2.276886,4.5448,-10.949875,0.09425354,7.672699,-1.6484222,-3.8054943,-3.1227808,-8.755251
1570715251,-6.630142,0.6781616,3.157959,-1.108429,-3.4316254,0.40647888,-11.484419,-7.8525505,1.1070924
1570715251,-1.0576324,3.408142,8.4730835,-0.89004517,-3.6052551,0.6759949,-3.7539787,-4.724099,9.77336
1570715251,-2.6868896,0.53749084,0.89424133,-1.7220306,-0.8121338,-0.38607788,-5.3080015,-7.7379627,1.704439
1570715251,-2.6868896,0.53749084,0.89424133,-1.7220306,-0.8121338,-0.38607788,-5.3080015,-7.7379627,1.704439
1570715251,0.6464386,2.9861755,0.8313904,-2.6892853,0.09866333,-0.62150574,-1.6409411,-5.2398615,1.2970377
1570715251,-2.3104095,8.866928,-6.743866,-3.2794342,-1.2211914,-1.1104584,-3.8812933,0.663187,-6.359592
1570715251,3.9193115,19.612701,9.247604,-3.6331024,-4.8345795,-3.0609589,3.0703514,11.4834,7.590445
1570715251,19.612701,19.612701,1.2090759,-1.6240234,4.6132507,0.54389954,18.402674,11.534917,-0.84910035
1570715251,19.610306,19.612701,2.0272827,-1.4738159,4.267044,-0.045196533,18.383625,11.540888,-0.84910035
1570715251,0.628479,14.8967285,-8.607758,-1.0040436,-1.5034943,-0.41271973,-0.085012496,6.555168,-12.894463
1570715251,0.628479,14.8967285,-8.607758,-1.0040436,-1.5034943,-0.41271973,-0.085012496,6.555168,-12.894463
1570715251,5.4689484,0.7362213,5.3312836,0.08786011,-0.6118622,-0.51924133,4.6185856,-6.9718213,1.9746988
1570715251,5.4689484,0.7362213,5.3312836,0.08786011,-0.6118622,-0.51924133,4.6185856,-6.9718213,1.9746988
1570715251,0.71406555,-6.190811,-0.4219818,2.2876282,0.5375519,0.09648132,0.3660522,-13.994295,-1.9753158
1570715251,0.71406555,-6.190811,-0.4219818,2.2876282,0.5375519,0.09648132,0.3660522,-13.994295,-1.9753158
1570715251,-0.22984314,1.7782898,2.7904358,0.6694946,2.9184265,-0.3040619,-0.69098306,-6.3147736,0.8655596
1570715251,-0.4189911,1.7711182,3.3770142,0.5842743,2.941864,-0.32748413,-0.69098306,-6.3147736,0.8655596
1570715251,4.331711,11.851303,-4.992508,0.26255798,2.3655548,0.018722534,3.785696,0.5510459,-1.2674901
1570715251,5.067932,10.005966,-4.9434204,0.22741699,2.578598,0.759079,5.902347,5.805725,-6.9253
1570715251,5.067932,10.005966,-4.9434204,0.22741699,2.578598,0.759079,5.902347,5.805725,-6.9253
1570715251,0.45610046,2.3654785,-1.6932983,-0.22853088,1.2054749,1.4088898,-0.092885494,-5.9075575,-3.302175
1570715252,5.8885345,19.612701,-2.7347717,2.013855,-2.8659668,1.6347198,4.501169,11.559415,-4.193155
1570715252,5.8885345,19.612701,-2.7347717,2.013855,-2.8659668,1.6347198,4.501169,11.559415,-4.193155
1570715252,-3.894165,14.201202,19.612701,4.3095093,-1.5088196,-0.95066833,-1.7215314,8.717232,14.468982
1570715252,-3.894165,14.201202,19.612701,4.3095093,-1.5088196,-0.95066833,-1.7215314,8.717232,14.468982
1570715252,7.384918,9.573212,16.887497,7.459488,9.9118805,-0.04093933,4.955895,1.366601,20.198294
1570715252,-12.61145,1.6837158,-8.77475,-1.1915283,0.38415527,-0.15492249,-14.757794,-5.962427,-7.867652
1570715252,-3.9695892,3.719986,3.4662018,-1.441864,-0.18894958,0.4384308,-6.349385,-3.8985157,5.1076784
1570715252,-3.9695892,3.719986,3.4662018,-1.441864,-0.18894958,0.4384308,-6.349385,-3.8985157,5.1076784
1570715252,-1.9590607,0.7176666,1.0480652,-2.5699768,-1.5120087,-0.5085907,-4.369892,-7.0366535,1.5868016
1570715252,-1.9590607,0.7176666,1.0480652,-2.5699768,-1.5120087,-0.5085907,-4.15561,-7.149858,1.639288
1570715252,-0.205307,3.0579987,-0.35253906,-3.4125977,-1.0017548,-0.89634705,-2.1008947,-5.3169255,0.022686206
1570715252,-0.3357849,11.061218,-4.213196,-4.007019,-1.3980255,-1.0859528,-2.3933702,1.4134579,-3.8199759
1570715252,4.546585,19.612701,3.8678284,-4.1103516,-5.0433655,-3.1184845,3.839422,11.686836,-1.1094245
1570715252,5.9244537,19.612701,9.688736,-1.887146,3.8558502,-1.1797028,2.5477426,11.672093,7.7346325
1570715252,17.620728,19.612701,-3.2351685,-0.8708801,1.8542175,-0.29127502,17.376535,11.669371,-4.919469
1570715252,10.125671,19.540283,0.48721313,-0.6897888,-0.0057373047,-0.57037354,9.618725,10.953871,-0.7648983
1570715252,-1.8124084,8.696335,-0.7194519,-1.8083038,-1.8262634,-0.81752014,-2.5598347,1.1229,-4.622263
1570715252,4.3275146,-2.8921967,2.6952667,0.82502747,-0.9559479,-0.42016602,3.8849576,-10.462509,-0.6260345
1570715252,4.3275146,-2.8921967,2.6952667,0.82502747,-0.9559479,-0.42016602,3.8849576,-10.462509,-0.6260345
1570715252,2.874237,-6.064514,2.3523102,1.3320923,0.020904541,0.27012634,2.6481576,-13.280334,-0.3146093
1570715252,2.0105286,-7.012619,-0.28311157,1.4354248,0.7985382,1.1542969,1.5725107,-14.931072,-2.7275953
1570715252,-0.56562805,-1.5484467,0.8230133,1.3416748,2.163147,0.84536743,-0.9770225,-10.029751,-1.6027346
1570715252,-0.26635742,4.1246185,5.009262,0.84207153,3.2401276,0.018722534,-0.89306563,-3.8552713,2.4964285
1570715252,4.177887,19.612701,-8.713104,0.12513733,2.1429138,0.47358704,2.4808388,10.781947,-11.265754
1570715252,4.177887,19.612701,-8.713104,0.12513733,2.1429138,0.47358704,2.4808388,10.781947,-11.265754
1570715252,6.30513,6.9234314,-5.0068817,0.18054199,1.79776,1.1851807,6.5737076,1.5719256,-7.1230965
1570715252,1.0253143,13.1375885,-9.103348,-0.60350037,-1.9679413,2.1641693,-0.45310318,3.9817505,-11.068172
1570715252,4.9033203,19.612701,-3.3063965,-0.18165588,-4.1815643,2.1822662,3.45219,11.768887,-6.831066
1570715252,5.4767303,19.612701,0.25437927,3.6266632,-6.422882,1.0104828,3.313605,11.7045555,-0.96998197
1570715252,3.9294891,18.830994,7.620743,3.9441223,-4.827118,-0.11230469,1.8146307,11.0620575,6.437499
1570715252,0.7050934,10.18074,19.612701,7.28479,6.236725,-0.9432068,-3.7020774,3.7679396,21.047262
1570715252,7.7829437,8.747223,7.079651,4.5822144,11.441605,-0.9954071,5.0734973,1.2404923,9.96513
1570715252,0.16998291,1.0965424,10.401016,-0.7153473,-0.9474182,0.5620117,-2.1736703,-6.6956544,10.996749
1570715252,0.16998291,1.0965424,10.401016,-0.7153473,-0.9474182,0.5620117,-2.1736703,-6.6956544,10.996749
1570715253,-2.7024536,1.6023254,0.77212524,-1.2394562,-2.2577057,0.38197327,-5.1941714,-6.221367,1.259248
1570715253,-2.834137,1.5819702,1.4389191,-1.2767487,-2.2172241,0.3340454,-5.2564116,-6.026634,2.3933702
1570715253,-0.794281,8.936951,-4.182068,-3.687439,-0.17829895,-0.80685425,-2.2591708,-0.20203543,-2.4677963
1570715253,-1.395813,9.935944,-5.4186707,-3.7865143,-0.39242554,-0.8153839,-3.36815,1.720458,-4.599636
1570715253,1.4832153,19.600723,-7.7530212,-4.595047,-3.394333,-1.0902252,-1.2349186,10.977345,-8.314762
1570715253,-0.041900635,19.612701,13.313553,-3.1366882,1.7072144,0.10394287,-1.773188,11.697512,11.3867035
1570715253,-0.041900635,19.612701,13.313553,-3.1366882,1.7072144,0.10394287,-1.773188,11.697512,11.3867035
1570715253,19.409195,16.618149,-3.878006,-1.0370636,0.46618652,-1.37677,18.221779,11.239828,-8.393019
1570715253,-2.882019,15.75325,2.9867706,-1.0050964,-1.0358429,-1.6452179,-3.1526537,9.246771,0.6767969
1570715253,2.4157562,4.894348,-2.5725708,-1.3140259,-0.7354431,-1.074234,0.8139312,-2.7224145,-5.9427285
1570715253,4.037216,-3.3315277,0.2232666,0.14112854,-0.8132019,-0.83135986,3.658751,-10.021164,-2.7234554
1570715253,3.4847565,-7.0150146,5.1206055,0.914505,-0.15167236,-0.3839569,2.57476,-14.611518,2.0314956
1570715253,1.2150574,-9.175781,0.092178345,1.4844208,0.4363556,0.06665039,0.41449642,-16.838623,-2.5156097
1570715253,1.1569977,-8.249817,1.1851349,1.4471436,0.2637787,0.4384308,0.19801658,-16.09988,-1.5063102
1570715253,1.0815735,-2.4648285,4.102463,0.8718872,1.63797,0.8400421,0.0059816837,-10.848292,1.8247817
1570715253,3.830124,7.847,-3.4356842,0.691864,2.5061646,0.0315094,3.1337342,-0.06431389,-4.993766
1570715253,3.830124,7.847,-3.4356842,0.691864,2.5061646,0.0315094,3.1337342,-0.06431389,-4.993766
1570715253,12.775467,19.612701,-8.7226715,0.15071106,3.500061,0.22006226,13.014289,11.883247,-11.616589
1570715253,0.23942566,3.2196045,-7.4615326,-0.48205566,-1.6824493,1.4237976,-1.164771,-5.198963,-9.50504
1570715253,0.23942566,3.2196045,-7.4615326,-0.48205566,-1.6824493,1.4237976,-1.164771,-5.198963,-9.50504
1570715253,8.26059,19.612701,6.1925964,3.5297241,-3.970642,0.1646576,6.1654377,11.859223,5.208309
1570715253,8.26059,19.612701,6.1925964,3.5297241,-3.970642,0.1646576,6.1654377,11.859223,5.208309
1570715253,6.256653,9.274536,18.767548,7.5638885,9.426117,-0.49794006,2.9649262,1.3893571,20.845867
1570715253,6.256653,9.274536,18.767548,7.5638885,9.426117,-0.49794006,2.9649262,1.3893571,20.845867
1570715253,-0.15742493,1.7052765,9.694122,-0.70362854,-0.83343506,0.84643555,-2.728957,-5.7720456,10.606177
1570715253,-0.01675415,1.7052765,9.694122,-0.70362854,-0.83343506,0.84643555,-2.728957,-5.7720456,10.606177
1570715253,-3.7942047,0.14604187,0.7457886,-0.9859314,-0.7162628,0.7974243,-6.367842,-7.448608,1.9310563
1570715253,-3.7942047,0.14604187,0.7457886,-0.9859314,-0.7162628,0.7974243,-6.367842,-7.448608,1.9310563
1570715253,0.7481842,2.7276,-1.5424652,-3.259201,0.10292053,-0.19645691,-1.624351,-5.4369655,0.05117169
1570715253,0.7481842,2.7276,-1.5424652,-3.259201,0.10292053,-0.19645691,-1.624351,-5.4369655,0.05117169
1570715253,3.9683838,19.612701,1.9931793,-5.0616302,-5.9989014,-2.1267242,1.7244852,12.062884,-2.4241354
1570715253,1.5364838,19.319412,4.0928802,-4.1763916,-4.622589,-2.2407074,-0.9732251,11.877517,3.0410705
1570715253,-0.21966553,19.612701,12.044632,-3.7449646,0.097595215,-0.9496002,-1.9602731,12.015074,8.920722
1570715254,4.4172974,12.82933,3.7529144,-1.0050964,-0.36898804,-0.40844727,3.1942708,5.343574,1.8039365
1570715254,4.4172974,12.82933,3.7529144,-1.0050964,-0.36898804,-0.40844727,3.1942708,5.343574,1.8039365
1570715254,3.150772,3.9911346,2.7736816,-0.8325348,-1.0273132,-1.2681122,0.5806395,-2.2383156,0.10843229
1570715254,4.325119,-3.1298218,-1.885437,-5.493164E-4,-1.6142731,-0.83029175,3.0272734,-10.47118,-5.075801
1570715254,4.325119,-3.1298218,-1.885437,-5.493164E-4,-1.6142731,-0.83029175,3.0272734,-10.47118,-5.075801
1570715254,3.3141785,-6.3733673,2.5432434,1.1392822,-1.0454254,-0.44892883,2.0073524,-13.803207,-0.27507257
1570715254,1.0175323,-7.202957,-0.3938446,1.631424,-0.07817078,-0.12509155,-0.23844767,-14.776609,-2.7581391
1570715254,0.84994507,-1.916565,6.1530914,1.3693695,2.452896,0.08157349,0.105425596,-9.801994,3.8642945
1570715254,0.21966553,1.5550385,5.881363,0.050582886,3.5671692,0.10180664,-1.5178045,-6.2147193,4.798579
1570715254,3.4841614,0.016159058,-6.3979034,-0.7387848,2.0864563,0.3968811,2.084617,-7.4537854,-7.386611
1570715254,6.4140625,9.295486,-4.9314575,-0.42559814,-0.36473083,-0.12083435,4.9327965,0.50342417,-7.4867554
1570715254,2.0332794,4.703415,-5.984314,-0.1954956,1.778595,1.286377,1.4226909,-2.0401773,-8.083805
1570715254,2.0332794,4.703415,-5.984314,-0.1954956,1.778595,1.286377,1.4226909,-2.0401773,-8.083805
1570715254,1.6675568,19.612701,8.908829,2.9161377,-7.535019,1.0957031,-0.89847493,12.130419,7.32002
1570715254,1.3581085,19.612701,8.669403,3.3230743,-7.441269,1.0115509,-0.89847493,12.130419,7.32002
1570715254,0.38845825,12.478577,16.398483,7.1974335,3.9229584,-1.2042084,-4.0557933,5.6695256,17.346478
1570715254,2.379837,11.925522,17.525558,7.200638,4.5770416,-1.2393646,-4.0557933,5.6695256,17.346478
1570715254,-11.604095,1.091156,-2.8215637,-1.0796661,-1.9359894,-0.25505066,-14.19136,-6.7774787,-2.2956119
1570715254,-11.604095,1.091156,-2.8215637,-1.0796661,-1.9359894,-0.25505066,-14.19136,-6.7774787,-2.2956119
1570715254,-2.953247,2.6300354,6.783966,-0.35635376,-0.04940796,0.5662689,-4.808592,-4.446632,8.877138
1570715254,-3.9707794,-0.30586243,-0.6961212,-0.40534973,-1.0614014,0.24775696,-6.382413,-7.6726704,0.4681431
1570715254,-3.2776642,-0.1945343,2.4157562,-0.73132324,-1.9999084,0.04748535,-5.7742414,-7.8485413,2.5520766
1570715254,2.328354,2.1440125,0.97683716,-3.085556,-0.41053772,-0.9176483,0.5235827,-5.7706733,1.9069308
1570715254,-0.2454071,4.704605,-1.0223236,-3.2943573,-1.0241241,-0.8697052,-1.9177898,-3.145072,-0.6833886
1570715254,-4.30777,11.910553,-10.388443,-3.8621368,-2.8190918,-0.46064758,-6.2624135,3.745326,-10.27707
1570715254,-1.4502869,19.612701,10.926544,-3.846161,-4.0420227,-2.456955,-1.9070362,11.95426,8.098849
1570715254,12.223602,19.612701,8.26239,-1.33107,5.0521393,1.3598938,5.493567,11.982094,9.609415
1570715254,4.2826233,10.471634,3.5428162,-0.916687,-1.006012,-1.3128662,6.2841573,4.191692,-1.0776012
1570715254,3.0783386,12.267883,2.937683,-1.5366669,-0.7663269,0.40008545,1.3223381,3.6575885,-2.3268502
1570715254,-6.5798645,8.021179,1.9524689,-1.6762238,-1.3096161,-0.95706177,-8.414612,0.9360914,-0.34806156
1570715254,7.008423,1.8477325,0.39564514,-0.97953796,-0.84835815,-0.4425354,5.8017273,-5.227441,-2.2843614
1570715254,2.0943298,-8.414429,-2.953247,1.071106,0.3106537,0.04322815,1.6599411,-15.247171,-4.1082644
1570715254,1.782486,-8.747223,-3.4991302,1.0604401,0.13168335,0.09436035,0.89516354,-15.979921,-5.8594055
1570715254,-0.1149292,-1.9141693,6.56131,2.2183838,0.7442169,0.22325134,-1.1491274,-9.661731,4.4089036
1570715255,-0.1149292,-1.9141693,6.56131,2.2183838,0.7442169,0.22325134,-1.1491274,-9.661731,4.4089036
1570715255,-5.4480133,19.597137,19.596542,-0.9923248,5.216202,-0.49794006,-6.465589,12.092884,17.672873
1570715255,15.915451,18.655014,-9.710281,-1.3044434,3.4627686,-0.43081665,16.445658,11.520674,-13.238811
1570715255,15.915451,18.655014,-9.710281,-1.3044434,3.4627686,-0.43081665,16.445658,11.520674,-13.238811
1570715255,0.8457489,-0.81044006,-3.1525726,-0.7196045,3.0334625,1.2650757,0.711806,-8.164516,-5.3680344
1570715255,5.6628876,19.612701,-13.927078,1.5046692,-1.4747314,3.1932068,2.767189,9.149174,-12.420207
1570715255,7.5321655,19.612701,0.4016266,3.719345,-7.0929413,0.4128723,6.8165293,12.09691,-0.3314607
1570715255,7.5321655,19.612701,0.4016266,3.719345,-7.0929413,0.4128723,5.5732346,12.068025,-0.5837131
1570715255,-4.3969574,10.447693,19.581573,6.280243,-4.4532013,-1.1392212,-6.1061716,3.233766,20.155619
1570715255,6.009445,10.2447815,19.612701,8.916779,7.931549,-0.67370605,-1.0222795,1.7264023,21.437822
1570715255,-10.763138,-0.5488739,-14.68364,-0.6897888,1.3641968,-1.3405609,-12.599427,-6.4250627,-14.47061
1570715255,-10.178955,-1.6729431,-4.313156,-1.3193512,-2.3407898,0.06985474,-14.747607,-9.485719,-7.273329
1570715255,-2.9903564,1.8249817,1.2653351,-1.5579681,-2.0318604,0.33509827,-5.441949,-5.498226,2.5734348
1570715255,0.93673706,0.023345947,4.2191772,-2.1875458,0.2882843,-0.8462677,-2.0459697,-7.768218,5.4990177
1570715255,0.93673706,0.023345947,4.2191772,-2.1875458,0.2882843,-0.8462677,-2.0459697,-7.768218,5.4990177
1570715255,0.4010315,19.582779,-9.253586,-5.5729523,-4.1400146,-1.1243134,-2.1655455,12.110075,-10.678107
1570715255,0.4010315,19.582779,-9.253586,-5.5729523,-4.1400146,-1.1243134,-2.1655455,12.110075,-10.678107
1570715255,9.155426,19.612701,12.217606,-2.0746307,5.216202,0.7185974,6.307972,12.121817,10.300493
1570715255,13.880386,19.612701,11.9596405,-1.7124329,5.873459,0.8656006,6.307972,12.121817,10.300493
1570715255,-2.4929657,15.194199,-2.1440125,-1.3896637,-0.8547516,-0.1602478,-2.6661358,7.4204063,-4.1633387
1570715255,-3.6948547,15.880737,-1.5795746,-1.381134,-1.006012,-0.2390747,-2.6661358,7.4204063,-4.1633387
1570715255,-4.775833,8.503006,-0.79248047,-1.3449249,-0.464859,-0.44041443,-7.522167,1.8758168,-6.29029
1570715255,5.739502,3.2555084,3.1735077,-0.3201294,-1.8688812,-0.53308105,4.7581444,-3.8089213,-0.34654927
1570715255,2.9753876,-5.4013214,4.689636,1.3885498,-0.8579407,-0.21777344,2.2409067,-12.483039,1.6003871
1570715255,1.6914978,-6.0848694,-0.54348755,1.4439392,-0.27416992,0.6355133,0.46799386,-13.810772,-3.915373
1570715255,1.7537537,-5.8364716,-0.09158325,1.4130554,-0.22091675,0.649353,0.70010304,-13.30998,-2.8042476
1570715255,1.8980103,-0.9211731,1.6526031,1.1573792,1.6997528,0.27864075,0.8419417,-8.551225,-0.8853545
1570715255,2.1248474,2.6623535,3.0023346,0.12620544,3.483017,0.6333771,1.0459177,-4.6219997,1.0920346
1570715255,2.542038,2.640213,2.245758,0.22102356,3.3637085,0.66000366,1.0459177,-4.6219997,1.0920346
1570715255,19.56781,19.612701,-11.751343,0.72595215,5.17572,0.94869995,18.785564,12.218761,-12.027651
1570715255,2.2643127,4.937439,-6.139923,-0.22746277,2.3516998,0.6120758,2.872979,-0.23248053,-9.132209
1570715255,-0.6482239,4.2916107,-4.802765,-1.7720947,-1.6185455,1.5771942,-1.9269915,-4.9796605,-8.683655
1570715255,1.6490021,19.612701,0.24121094,-0.534256,-3.2345428,2.1577759,-0.010104299,12.133237,-2.549181
1570715256,-1.0366821,19.612701,10.439316,4.622696,-2.9107056,0.67811584,-3.458224,12.155539,9.039057
1570715256,-1.0366821,19.612701,10.439316,4.622696,-2.9107056,0.67811584,-3.458224,12.155539,9.039057
1570715256,6.2871704,10.96904,6.035782,4.0272064,9.687119,-0.70033264,4.2325754,3.631711,13.605314
1570715256,5.43544,10.380066,2.3900146,3.320938,9.311066,-0.7184448,3.769194,3.2056203,5.8027244
1570715256,-1.0660248,0.077804565,11.430511,-0.6461029,-0.21878052,0.52471924,-2.6381485,-7.2373757,13.444262
1570715256,-1.0660248,0.077804565,11.430511,-0.6461029,-0.21878052,0.52471924,-2.6381485,-7.2373757,13.444262
1570715256,-1.1827393,-0.2819214,0.81103516,-2.0277557,-1.7453003,0.522583,-3.5788836,-7.778661,1.6600417
1570715256,-1.1827393,-0.2819214,0.81103516,-2.0277557,-1.7453003,0.522583,-3.5788836,-7.778661,1.6600417
1570715256,1.3102264,6.028595,0.09996033,-3.4860992,-0.35194397,-0.2806244,-0.67026234,-1.6047854,0.0887707
1570715256,1.3102264,6.028595,0.09996033,-3.4860992,-0.35194397,-0.2806244,-0.67026234,-1.6047854,0.0887707
1570715256,2.577362,18.767548,4.447235,-3.9867706,-4.922989,-2.2779846,0.6009891,11.714144,2.790812
1570715256,2.577362,18.767548,4.447235,-3.9867706,-4.922989,-2.2779846,0.6009891,11.714144,2.790812
1570715256,11.243774,19.612701,5.246887,-1.5579681,3.8942108,-0.22309875,6.0323477,12.257305,7.5620136
1570715256,1.7549438,15.244476,8.619125,-1.2469177,-0.13995361,0.43736267,0.15006793,7.433213,6.0351086
1570715256,1.7549438,15.244476,8.619125,-1.2469177,-0.13995361,0.43736267,0.15006793,7.433213,6.0351086
1570715256,-3.2980194,12.121246,-6.155487,-1.1712799,-1.8944397,-1.406601,-5.002226,5.4310155,-10.246182
1570715256,4.8524475,1.4514923,2.8939972,-0.14649963,-1.404419,-1.2595978,3.6463366,-4.9091325,0.32611632
1570715256,2.9143372,-6.288376,4.0222626,1.3502045,0.47683716,-0.45532227,2.4356437,-13.023044,1.7846012
1570715256,2.9143372,-6.288376,4.0222626,1.3502045,0.47683716,-0.45532227,2.4356437,-13.023044,1.7846012
1570715256,2.9107513,-7.2993164,1.5155334,1.6815033,1.0840302,0.17851257,2.06138,-14.650316,-0.6882093
1570715256,1.6059113,-3.5033112,1.7597351,0.92515564,1.7295837,0.68769836,0.6412958,-11.14558,-0.69838595
1570715256,0.7445984,1.3269806,4.36763,0.35310364,3.6545258,0.37878418,-0.13234174,-6.0875473,1.966831
1570715256,4.799179,7.4010773,-2.8491058,0.7429962,2.5743408,-0.047332764,3.9268923,-2.4378252,-4.8459187
1570715256,19.498978,19.612701,-13.885178,1.5802917,5.2012787,2.5870667,14.526425,12.237312,-13.899946
1570715256,3.5841217,7.0233917,-11.104309,0.17308044,3.120819,1.4717407,2.9047558,0.030098915,-12.878953
1570715256,0.0909729,4.100067,-6.3871307,-0.6865845,1.1703186,1.729538,-0.57384,-3.868928,-8.095785
1570715256,4.897934,19.612701,6.0309906,1.552597,-8.348877,1.7710724,2.0140777,12.311991,1.6219496
1570715256,4.103668,19.612701,5.858017,3.0247955,-8.216782,1.2554932,2.4850118,12.281361,4.6686583
1570715256,1.0319061,11.238983,18.697525,6.0054016,5.855362,-1.4822388,-1.3775315,4.1755753,19.859222
1570715256,1.0319061,11.238983,18.697525,6.0054016,5.855362,-1.4822388,-1.3775315,4.1755753,19.859222
1570715256,9.007584,7.135315,1.1863251,3.619217,12.027496,-1.533371,7.2023783,-0.18215942,4.256448
1570715256,-9.983826,2.1380157,-8.738235,-0.89004517,-0.63423157,-0.47982788,-11.46702,-4.354619,-10.111599
1570715256,-4.826111,-0.34057617,0.055664062,-0.7856598,-0.70028687,0.55241394,-7.3156586,-7.3294497,1.7029734
1570715256,-4.6621094,-0.33518982,-0.21907043,-0.7952423,-0.82810974,0.5385742,-7.3156586,-7.3294497,1.7029734
1570715257,-3.0047302,0.3214264,4.2365417,-1.2458496,-1.4885712,0.15507507,-5.498493,-7.016211,5.2767277
1570715257,0.79907227,1.6513977,1.3838501,-2.3878174,-0.09095764,-0.5501251,-1.9215095,-5.6523333,3.0250883
1570715257,6.4852905,19.612106,1.9117737,-4.518341,-6.262024,-2.3237915,4.4177985,12.157141,-1.473738
1570715257,6.4852905,19.612106,1.9117737,-4.518341,-6.262024,-2.3237915,4.4177985,12.157141,-1.473738
1570715257,-0.9720459,19.612701,8.106766,-3.7055511,-5.0572205,-1.7709198,-1.4658651,12.099579,5.803363
1570715257,4.067154,11.988373,0.35733032,-0.77500916,-0.05580139,-1.0859528,2.3909838,4.3264117,-2.3538613
1570715257,3.0975037,11.623245,-0.21128845,-0.8463745,-0.2837677,-0.92404175,2.3909838,4.3264117,-2.3538613
1570715257,0.1370697,4.6710815,1.4251556,-1.3576965,-0.77378845,-0.73228455,-1.4752444,-2.242392,-0.44077802
1570715257,1.5083466,4.268265,0.8242035,-1.282074,-0.71733093,-0.6843567,-1.4752444,-2.242392,-0.44077802
1570715257,3.7349548,-6.0154266,-0.18075562,0.9848175,-0.9143982,-0.20285034,3.0110397,-12.908086,-2.869803
1570715257,3.573944,-6.2153473,0.35194397,1.0359497,-0.9751129,-0.16664124,2.5991898,-13.422219,-2.6046162
1570715257,0.1478424,-7.308304,1.6543884,2.219452,0.2328949,0.3180542,-0.0952971,-15.087381,-1.1592078
1570715257,-2.0458527,4.6070404,5.0032806,-0.07511902,1.910675,-0.17835999,-3.070797,-2.6188226,3.0152404
1570715257,-2.000351,4.3382874,5.707184,-0.17951965,1.9181366,-0.17515564,-3.070797,-2.6188226,3.0152404
1570715257,3.4261017,19.612701,-14.6201935,-1.3555756,-1.6398468,0.67811584,2.3117096,12.352172,-17.928791
1570715257,3.4261017,19.612701,-14.6201935,-1.3555756,-1.6398468,0.67811584,2.3117096,12.352172,-17.928791
1570715257,1.7693176,4.578903,2.6216583,-1.0796661,2.914154,0.008071899,1.191308,-2.189866,0.033246517
1570715257,4.672287,18.242615,-9.0698395,1.2926788,-1.3074799,2.3782806,1.4579095,5.7788157,-9.900043
1570715257,4.672287,18.242615,-9.0698395,1.2926788,-1.3074799,2.3782806,1.4579095,5.7788157,-9.900043
1570715257,2.80661,19.612701,-4.11084,2.9406433,-3.521103,1.3364563,1.0689058,12.357372,-6.3701043
1570715257,3.5625763,17.91043,-1.8153992,3.6128235,-3.2292175,-0.16769409,1.3732235,10.697504,-2.7435029
1570715257,3.142395,17.104782,1.2276306,3.3763275,-3.1812897,-0.7152405,1.1264024,9.609276,0.15329674
1570715257,4.830902,8.95372,19.612701,9.159653,4.5546722,-0.7173767,2.6415358,1.8878407,21.027607
1570715257,-9.991608,1.6232758,-3.9636078,-0.55236816,-0.6960144,-0.77171326,-12.052397,-5.2540307,-3.1741629
1570715257,-0.39743042,1.3162079,3.1806946,-0.5619507,-0.05580139,0.57691956,-1.6419165,-5.3326025,6.7674093
1570715257,-0.39743042,1.3162079,3.1806946,-0.5619507,-0.05580139,0.57691956,-2.5461543,-5.7082176,5.1539307
1570715257,-2.921524,1.0025787,2.9245148,-1.4716797,-0.67684937,0.09541321,-5.4186,-6.1329193,4.1174254
1570715257,-2.921524,1.0025787,2.9245148,-1.4716797,-0.67684937,0.09541321,-5.4186,-6.1329193,4.1174254
1570715257,-0.04548645,19.05545,-9.90242,-4.312744,-3.506195,-0.57569885,-2.9459293,10.48561,-10.050075
1570715257,-0.04548645,19.05545,-9.90242,-4.312744,-3.506195,-0.57569885,-2.9459293,10.48561,-10.050075
1570715257,0.48602295,19.612701,2.4839783,-4.114609,-5.687851,-3.253769,-0.8077475,12.081108,2.2327995
1570715257,-2.395401,19.612701,11.905762,-3.1526794,1.7381134,0.88157654,-5.5292926,12.031911,10.711388
1570715257,19.510956,19.612701,0.8253937,-1.4695587,5.0713196,1.2661438,18.018337,12.087447,-0.44690073
1570715258,2.5312653,7.143692,-1.8644867,0.11129761,-0.32743835,-0.7216339,1.4273326,-0.4379959,-3.1236255
1570715258,-2.1062927,5.25766,-2.2720947,-1.2479858,-1.1295776,-0.98475647,-5.149048,-0.60832024,-3.1802416
1570715258,-2.1062927,5.25766,-2.2720947,-1.2479858,-1.1295776,-0.98475647,-5.149048,-0.60832024,-3.1802416
1570715258,3.5374298,-2.4199371,2.206253,-0.3201294,-0.6640625,-0.5309601,2.5280771,-8.928165,-0.2547269
1570715258,3.166336,-5.1206055,2.5210876,0.7664337,0.20092773,-0.06756592,2.2402499,-12.250921,0.39505005
1570715258,2.2966309,-2.9484558,1.8028412,1.3608551,2.0480957,0.28077698,0.977533,-10.628777,-0.33022106
1570715258,2.2966309,-2.9484558,1.8028412,1.3608551,2.0480957,0.28077698,0.977533,-10.628777,-0.33022106
1570715258,4.3694153,7.644684,-5.6952057,-0.41601562,3.2891388,-0.06542969,2.8907225,-0.7853608,-4.0523605
1570715258,4.3694153,7.644684,-5.6952057,-0.41601562,3.2891388,-0.06542969,2.8907225,-0.7853608,-4.0523605
1570715258,4.6076355,10.748169,-7.132324,0.15071106,3.1048431,1.7242126,4.3199496,4.290384,-9.187595
1570715258,4.6076355,10.748169,-7.132324,0.15071106,3.1048431,1.7242126,4.3199496,4.290384,-9.187595
1570715258,1.9195557,10.135849,-14.958374,-0.0090789795,-2.663559,1.8840027,0.26665568,1.1147084,-16.092558
1570715258,5.095459,19.612701,15.026611,1.9201202,-8.805878,1.3726654,1.9890457,12.276295,3.081172
1570715258,1.5783844,19.565414,7.9709015,6.9886475,-4.017517,-0.6662445,-0.5760062,12.105881,8.834046
1570715258,-1.9817963,14.683044,12.864639,6.092758,1.1277161,-1.6494904,-3.8303795,7.523584,13.199447
1570715258,-0.3034668,4.455017,-9.205704,0.8399353,6.2164764,-2.3664093,-1.2804278,-2.7788796,-6.5578346
1570715258,-0.3034668,4.455017,-9.205704,0.8399353,6.2164764,-2.3664093,-1.2804278,-2.7788796,-6.5578346
1570715258,-5.973526,-1.3263855,1.9261322,-0.93585205,-2.3514404,0.67492676,-10.487509,-9.413831,0.5085839
1570715258,-3.000534,1.3844452,2.4815826,-1.7209625,-1.2744598,0.4363098,-4.819927,-5.784455,3.732576
1570715258,-2.716217,1.1300659,2.399582,-1.77742,-1.3426361,0.24987793,-5.0533495,-6.360261,3.5502522
1570715258,-0.32261658,0.3824768,2.553421,-2.1502533,-1.1136017,-0.52563477,-2.6152272,-6.695319,3.2987804
1570715258,-3.3530731,18.457504,-11.351501,-4.581192,-2.7424011,-0.0899353,-5.4939575,9.720806,-11.924706
1570715258,-3.3530731,18.457504,-11.351501,-4.581192,-2.7424011,-0.0899353,-5.4939575,9.720806,-11.924706
1570715258,4.364624,19.612701,11.234787,-2.6296234,4.469452,0.5044861,1.9962255,12.30289,9.610767
1570715258,4.364624,19.612701,11.234787,-2.6296234,4.469452,0.5044861,1.9962255,12.30289,9.610767
1570715258,6.2003784,13.747513,-0.3932495,0.01222229,0.06138611,-1.4023438,5.830739,6.614987,-2.9156294
1570715258,-3.091507,11.938095,-11.757919,-0.9955139,-2.6134949,-1.4385681,-1.9204576,5.7984314,-16.12344
1570715258,5.5234222,0.66978455,5.1601105,0.03565979,-1.0305176,-0.55651855,4.764381,-6.409456,2.2147095
1570715258,5.5234222,0.66978455,5.1601105,0.03565979,-1.0305176,-0.55651855,4.764381,-6.409456,2.2147095
1570715258,4.711792,-3.8983612,5.3103333,1.4982758,-0.68003845,-0.31896973,4.1083245,-11.153682,2.202661
1570715258,2.1889038,-4.8404846,-1.1671753,2.1289062,0.58335876,0.64616394,1.6135017,-12.353718,-3.047358
1570715258,2.1889038,-4.8404846,-1.1671753,2.1289062,0.58335876,0.64616394,1.6135017,-12.353718,-3.047358
1570715258,0.07661438,4.293396,6.545746,0.85484314,2.575409,0.23071289,-0.428586,-3.3450127,4.8755813
1570715258,-0.7583618,7.8954773,9.912598,-0.4106903,3.9240265,-0.072891235,-1.7501483,0.037928104,8.2176895
1570715259,14.982315,19.612701,-4.2443237,-0.19763184,1.7583466,1.1968994,14.153504,12.271402,-6.110502
1570715259,14.472946,19.612701,-4.1449585,-0.07406616,1.7711334,1.1202087,14.153504,12.271402,-6.110502
1570715259,5.933426,12.428894,-6.4649506,0.22846985,2.6904602,1.3790588,5.646565,5.673179,-5.914817
1570715259,-0.56443787,19.60791,-5.4958954,1.3533936,-7.1121063,1.5015717,-1.9788259,12.294958,-7.9849586
1570715259,-0.56443787,19.60791,-5.4958954,1.3533936,-7.1121063,1.5015717,-1.9788259,12.294958,-7.9849586
1570715259,-2.2313995,15.9956665,19.45169,4.8218994,-0.31253052,-1.1711731,-3.0855427,10.251303,19.69576
1570715259,-2.2313995,15.9956665,19.45169,4.8218994,-0.31253052,-1.1711731,-3.0855427,10.251303,19.69576
1570715259,11.804016,7.7374573,19.58876,7.589447,9.84903,-1.3394928,7.7429714,1.2093973,21.1899
1570715259,-2.2876587,3.4129333,7.0646973,-0.77500916,-3.621231,1.0030212,-4.9686494,-4.164693,7.893167
1570715259,-2.2876587,3.4129333,7.0646973,-0.77500916,-3.621231,1.0030212,-4.9686494,-4.164693,7.893167
1570715259,-3.3327332,1.3970184,1.8046265,-0.9198761,-0.057922363,0.32765198,-5.2650156,-5.8529863,2.786075
1570715259,-4.0803223,-0.47225952,2.443283,-1.3715515,-0.558609,-0.0856781,-6.39245,-7.8588853,3.465094
1570715259,-1.6938934,0.35673523,1.7956543,-2.3292236,-0.32211304,-0.55651855,-4.0197353,-7.2116165,2.5601814
1570715259,1.0163422,1.6256561,1.4191589,-3.3572083,-0.4925537,-0.9772949,-1.034513,-5.9460235,1.6692821
1570715259,5.907089,19.612701,1.3215942,-4.788925,-6.293991,-1.3831635,1.6046059,12.269374,-4.2982764
1570715259,5.907089,19.612701,1.3215942,-4.788925,-6.293991,-1.3831635,1.6046059,12.269374,-4.2982764
1570715259,1.4341278,19.612701,11.793243,-2.9960785,4.09021,-1.0465393,-0.92047703,12.361271,9.847081
1570715259,11.021713,16.845596,-2.111084,-0.07086182,0.08694458,-1.7986145,11.603462,10.609041,-5.383825
1570715259,-3.573944,12.123642,-2.1523895,-1.461029,-3.1184387,-1.3011475,-4.1449065,5.209979,-6.0505447
1570715259,4.6429596,3.3393097,3.2166138,-0.24343872,-1.1508942,-0.32322693,3.5202045,-3.413485,0.22887206
1570715259,4.6429596,3.3393097,3.2166138,-0.24343872,-1.1508942,-0.32322693,3.5202045,-3.413485,0.22887206
1570715259,4.901535,-2.597702,2.4564514,1.1584473,-1.7165375,-0.340271,4.44058,-9.353825,-0.966805
1570715259,4.593872,-5.6479187,3.265091,2.6764526,1.1841736,0.28503418,4.0429907,-12.738291,1.4076071
1570715259,3.6691132,-6.0812683,0.9067993,2.650879,1.6646118,0.41394043,3.3970187,-13.250975,-1.007662
1570715259,1.1198883,1.977005,0.31304932,0.49266052,2.0576935,0.31700134,1.0616722,-6.092126,-1.2093874
1570715259,-0.6895294,3.6026764,4.1910553,0.23486328,1.860611,0.13270569,-0.6207691,-4.0140424,1.2950025
1570715259,-1.091156,4.6692963,3.4446564,-0.31054688,2.9993744,0.35534668,-2.0901139,-1.9142399,3.8730302
1570715259,6.712738,19.612701,-9.715668,-0.95928955,1.6699371,1.748703,5.3249435,12.367916,-12.020227
1570715259,16.351196,19.612701,-3.9552155,0.028198242,0.8624573,1.0562897,16.29226,12.369005,-6.649602
1570715259,1.5969391,2.2337952,-2.9430695,0.42234802,1.0936279,0.9135437,1.9528108,-3.983993,-4.390441
1570715259,3.873825,19.612701,1.2922668,2.2961578,-7.775772,1.190506,2.362367,12.349224,-1.6565238
1570715259,3.873825,19.612701,1.2922668,2.2961578,-7.775772,1.190506,2.362367,12.349224,-1.6565238
1570715260,1.0366821,19.609116,11.194687,5.8583984,1.9021606,-0.8207092,-1.0023093,12.1798935,11.447252
1570715260,3.201645,11.100113,18.969864,6.397415,7.9475403,-1.3916931,0.10391307,3.900731,20.510956
1570715260,2.5953217,6.6540833,-5.236725,0.7099762,7.4447327,-2.008484,3.7902813,0.34348726,-2.0914178
1570715260,-6.590042,3.7307587,-6.79834,-0.56941223,1.413208,-1.6260529,-8.134058,-3.3424149,-5.784093
1570715260,-1.0953522,2.5905304,9.938324,-0.8634186,-1.388443,0.6855774,-3.6362908,-4.5919676,10.637279
1570715260,-3.0921173,1.5819702,2.0685883,-0.8218689,-0.26779175,0.75801086,-4.6605005,-5.6008267,4.1557856
1570715260,-2.7880554,0.5674286,1.7770996,-1.1947174,-2.3695526,0.48744202,-4.9797854,-6.71261,2.4880807
1570715260,1.7322083,4.440048,-0.58657837,-3.4040833,-0.5649872,-0.84521484,0.0028294325,-3.4645762,-0.5863947
1570715260,1.7322083,4.440048,-0.58657837,-3.4040833,-0.5649872,-0.84521484,0.0028294325,-3.4645762,-0.5863947
1570715260,-2.1487885,10.51593,-5.586273,-3.8781128,-1.7804565,-0.8462677,-3.320647,2.4443312,-5.4787917
1570715260,0.79307556,19.612701,9.438538,-3.78331,-3.634018,-2.4782562,1.160174,12.266114,7.736292
1570715260,3.6930542,19.612701,11.042053,-2.7766418,4.1903534,0.07092285,3.8520741,12.30567,8.166544
1570715260,8.08522,15.091248,-2.5312653,-1.4024506,-1.2435608,-1.6942291,7.7102675,8.027982,-5.1882524
1570715260,-4.2622833,14.611221,-7.5991974,-2.4538574,-3.8854218,-1.6100769,-4.260393,7.496535,-10.035654
1570715260,-4.8524475,6.8246765,9.677368,-2.5540009,-2.5858002,-0.7077942,-8.016222,0.18823624,3.7686734
1570715260,3.948639,2.379837,-1.0414734,-0.045303345,-1.9945831,-1.1328278,3.343605,-3.5858073,-5.1076407
1570715260,4.4376526,-3.8917694,1.1049194,1.0199738,-1.2808533,-0.78022766,3.7229981,-10.699575,-2.2862322
1570715260,3.5703583,-7.7183075,-0.24720764,2.2588654,1.6070862,0.22964478,2.95147,-14.594738,-1.6189115
1570715260,3.7014313,-7.039551,0.89782715,2.0756378,1.7476959,0.39794922,2.918445,-14.388295,-2.2027895
1570715260,2.5396423,-4.0342255,0.925354,1.4034576,2.834259,0.6450958,1.7863898,-11.438566,-1.4154854
1570715261,-3.6224213,19.612701,7.135315,-3.9793243,-1.5993652,-1.3171234,-4.7028213,12.241535,6.3215294
1570715261,-3.6224213,19.612701,7.135315,-3.9793243,-1.5993652,-1.3171234,-4.7028213,12.241535,6.3215294
1570715261,-3.6224213,19.612701,7.135315,-3.9793243,-1.5993652,-1.3171234,-4.7028213,12.241535,6.3215294
1570715261,-3.6224213,19.612701,7.135315,-3.9793243,-1.5993652,-1.3171234,-4.7028213,12.241535,6.3215294
1570715261,-3.6224213,19.612701,7.135315,-3.9793243,-1.5993652,-1.3171234,-4.7028213,12.241535,6.3215294
1570715261,-3.6224213,19.612701,7.135315,-3.9793243,-1.5993652,-1.3171234,-4.7028213,12.241535,6.3215294
1570715261,-3.6224213,19.612701,7.135315,-3.9793243,-1.5993652,-1.3171234,-4.7028213,12.241535,6.3215294
1570715261,-3.6224213,19.612701,7.135315,-3.9793243,-1.5993652,-1.3171234,-4.7028213,12.241535,6.3215294
1570715261,-3.6224213,19.612701,7.135315,-3.9793243,-1.5993652,-1.3171234,-4.7028213,12.241535,6.3215294
1570715261,-3.6224213,19.612701,7.135315,-3.9793243,-1.5993652,-1.3171234,-4.7028213,12.241535,6.3215294
1570715261,-3.6224213,19.612701,7.135315,-3.9793243,-1.5993652,-1.3171234,-4.7028213,12.241535,6.3215294
1570715261,-3.6224213,19.612701,7.135315,-3.9793243,-1.5993652,-1.3171234,-4.7028213,12.241535,6.3215294
1570715261,-3.6224213,19.612701,7.135315,-3.9793243,-1.5993652,-1.3171234,-4.7028213,12.241535,6.3215294
1570715261,-3.6224213,19.612701,7.135315,-3.9793243,-1.5993652,-1.3171234,-4.7028213,12.260702,8.87791
1570715261,7.503433,19.612701,7.498642,-2.6626587,3.8558502,1.5484467,-1.7567044,12.282127,9.388057
1570715261,7.503433,19.612701,7.498642,-2.6626587,3.8558502,1.5484467,-1.7567044,12.282127,9.388057
1570715261,7.503433,19.612701,7.498642,-2.6626587,3.8558502,1.5484467,-1.7567044,12.282127,9.388057
1570715261,7.503433,19.612701,7.498642,-2.6626587,3.8558502,1.5484467,-1.7567044,12.282127,9.388057
1570715261,0.2855072,9.959274,1.2910767,-1.6005859,-0.18894958,-0.33494568,0.07790315,2.8386512,-1.1658273
1570715261,0.2855072,9.959274,1.2910767,-1.6005859,-0.18894958,-0.33494568,0.07790315,2.8386512,-1.1658273
1570715261,-2.9933472,10.837952,2.4720154,-1.2202911,-1.6121521,-1.2489471,-2.5746484,5.7463446,-3.1820178
1570715261,3.9773712,-1.3048401,4.3706207,0.020751953,-1.6686096,-0.75572205,3.0469356,-7.7798195,1.0096362
1570715261,2.98497,-4.751892,5.134369,1.6793671,0.33302307,-0.24653625,2.6916504,-11.522493,2.638429
1570715261,2.98497,-4.751892,5.134369,1.6793671,0.33302307,-0.24653625,2.6916504,-11.522493,2.638429
1570715261,2.2625275,-5.4108887,-0.27592468,2.141693,0.8731079,0.22538757,1.6747205,-12.697607,-1.959331
1570715261,1.2294159,-0.4800415,2.8383331,0.88894653,1.094696,0.50553894,0.15579033,-9.40414,-0.16197717
1570715261,0.3435669,4.0462036,4.1246185,-0.95077515,3.18367,0.04109192,-1.0079929,-2.4312778,3.045213
1570715261,5.6784515,8.608353,0.32681274,0.2828064,2.8885956,-0.1921997,4.4912205,-1.6270647,-1.1407702
1570715261,16.340424,19.612701,-11.295837,0.52674866,4.7847595,0.79849243,19.089397,12.34396,-17.261463
1570715261,1.6298523,5.6245728,-7.1287384,0.17626953,2.595642,1.4802551,2.521855,0.96449995,-8.705019
1570715261,-1.2455902,4.9272614,-7.1646423,-0.39151,-0.18043518,1.8616333,-1.4303474,-3.7678485,-8.446434
1570715261,2.6856995,19.612701,0.6829529,2.1278381,-5.451355,1.3684082,0.7709515,12.322128,-1.8922255
1570715261,-0.296875,18.637665,15.461151,5.902069,-3.125885,0.07518005,-2.4778812,12.172486,16.823055
1570715261,-0.30586243,16.509216,9.442139,6.5742493,-1.3287811,-0.29660034,-2.3454103,10.500133,13.33438
1570715261,5.4180756,9.533112,9.081802,3.1963043,10.036514,-1.6036835,3.2374969,2.6074915,12.101808
1570715261,-0.31124878,6.3572083,-2.119461,1.9467468,6.2186127,-1.9807739,0.70426416,0.40473747,4.2290606
1570715261,0.6087189,3.5188751,8.61673,-0.7920532,-2.362091,0.41394043,-1.8302087,-3.8967667,8.658921
1570715261,0.22744751,3.4380798,8.703522,-0.8154907,-2.0222778,0.35214233,-1.0862535,-3.869316,9.74005
1570715261,-1.7465668,0.9499054,0.9714508,-1.4045715,-1.4417114,0.22111511,-3.4575326,-6.5507746,1.8204767
1570715261,0.55126953,2.269699,2.9813843,-2.7521362,-0.20173645,-0.6705017,-1.4119642,-5.8717294,4.419631
1570715261,0.55126953,2.269699,2.9813843,-2.7521362,-0.20173645,-0.6705017,-1.4119642,-5.8717294,4.419631
1570715261,-0.018554688,10.901993,-2.2966309,-3.320984,-0.67471313,-0.6470642,-0.71971905,-0.31007767,0.11972915
1570715261,1.0839691,19.612701,10.9127655,-4.534317,0.09866333,-1.3799744,-0.09477985,12.209355,5.8339767
1570715261,1.0839691,19.612701,10.9127655,-4.534317,0.09866333,-1.3799744,-0.09477985,12.209355,5.8339767
1570715261,19.612701,19.612701,1.766922,-0.9891205,5.173584,-0.15917969,17.44934,12.3053255,3.872377
1570715261,0.5500641,12.937668,-0.50756836,-0.21574402,-0.80999756,-0.8707733,0.60082066,5.4718075,-2.0371046
1570715261,-8.187576,6.941391,-0.10055542,-1.8519897,-2.678482,-0.62364197,-9.549986,1.0836802,-5.9970703
1570715262,4.8829803,-0.9133911,1.5005646,0.3147583,-1.3021545,-0.28274536,4.54517,-6.3761888,-3.095068
1570715262,4.8829803,-0.9133911,1.5005646,0.3147583,-1.3021545,-0.28274536,4.4876766,-7.7926264,-1.8555081
1570715262,5.7113647,-3.9737701,4.681259,1.2873535,-0.58309937,0.18383789,5.1995254,-11.130779,1.8557289
1570715262,3.2950134,-5.4096985,3.901947,2.3110657,1.1820374,0.37451172,3.0944467,-12.427225,1.9756749
1570715262,-1.0229187,1.5699921,1.7729034,0.74086,1.4558105,0.07092285,-0.8073522,-8.090235,-0.5689783
1570715262,4.578903,6.9856873,-0.21368408,-0.4841919,1.1319733,-0.17729187,3.651548,-2.4311395,-3.1236737
1570715262,5.190033,6.9856873,-0.21368408,-0.4841919,1.1319733,-0.17729187,3.651548,-2.4311395,-3.1236737
1570715262,1.8052216,9.063248,-5.4773407,0.19758606,3.3956604,0.72180176,4.340968,5.901176,-5.536493
1570715262,1.1168976,7.609375,-6.529587,0.14112854,3.2443848,0.88371277,2.112266,2.4871159,-6.9467473
1570715262,-0.66677856,0.7398071,-6.0028687,-0.23278809,0.77511597,1.748703,-1.0194833,-6.2029243,-7.7563353
1570715262,6.7372894,19.612701,2.1847076,1.5920105,-4.3381653,1.5026398,5.1100407,12.318724,-0.8442255
1570715262,6.7372894,19.612701,2.1847076,1.5920105,-4.3381653,1.5026398,5.1100407,12.318724,-0.8442255
1570715262,0.8152313,15.644913,4.008499,3.9835358,-3.6553192,0.102874756,-0.18874347,9.422129,1.6779877
1570715262,3.680481,10.020935,19.612701,6.3047485,4.9285736,-0.70458984,-0.71187544,2.7202625,20.43576
1570715262,5.142746,9.943115,19.595337,6.425125,5.5773163,-0.74295044,-0.71187544,2.7202625,20.43576
1570715262,-9.318832,2.6815033,-7.9349823,-0.8889923,-1.0070801,-0.77915955,-8.653196,-2.42913,-10.335463
1570715262,-0.746994,2.5845337,8.333023,-1.2042999,-0.5330353,0.266922,-2.4767532,-4.6173925,9.688726
1570715262,-1.3078308,1.9949646,7.7171173,-1.0541077,0.004928589,0.15187073,-2.5183,-4.8026896,9.942221
1570715262,-1.8207855,-0.06703186,0.7272339,-1.0157471,-0.62997437,0.060272217,-3.844643,-7.4261146,1.3315276
1570715262,-0.6093292,1.5795746,0.51116943,-2.2429352,-0.7066803,-0.44467163,-2.4024975,-6.5886583,2.2575772
1570715262,-0.50457764,10.47464,-1.8824463,-3.0972748,-0.82385254,-0.4936676,-1.6088516,0.68887615,-0.5890823
1570715262,-0.5823822,19.612701,4.768051,-3.7460327,-4.8004913,-1.9754486,-1.2985097,12.080555,3.5086107
1570715262,-0.5823822,19.612701,4.768051,-3.7460327,-4.8004913,-1.9754486,-1.2985097,12.080555,3.5086107
1570715262,2.6677399,19.612701,9.628876,-3.1995392,1.860611,-0.7546692,1.6160164,12.097816,8.153653
1570715262,1.4640503,11.827957,1.5550385,-1.1073608,-0.9719238,-0.14852905,0.96254283,4.576684,-0.8731961
1570715262,1.4640503,11.827957,1.5550385,-1.1073608,-0.9719238,-0.14852905,0.96254283,4.576684,-0.8731961
1570715262,4.0898895,7.1604614,-5.9753265,-1.2437134,-1.2851105,-1.118988,2.2917554,-0.117379665,-8.120903
1570715262,4.0898895,7.1604614,-5.9753265,-1.2437134,-1.2851105,-1.118988,2.2917554,-0.117379665,-8.120903
1570715262,5.2756195,-3.3452911,3.5128937,0.4905243,-0.62997437,-0.6907501,5.081893,-10.11899,0.80825543
1570715262,1.506546,-7.3663635,2.534256,1.4769592,0.9753723,0.17211914,1.252837,-14.658749,0.20784092
1570715262,1.506546,-7.3663635,2.534256,1.4769592,0.9753723,0.17211914,1.252837,-14.658749,0.20784092
1570715262,-1.1569977,1.7459717,3.36026,-0.32546997,2.877945,0.5108795,0.10800272,-6.8342032,0.6600933
1570715262,-1.1569977,1.7459717,3.36026,-0.32546997,2.877945,0.5108795,0.10800272,-6.8342032,0.6600933
1570715263,8.440155,19.612701,-12.0829315,0.4915924,3.7450714,2.3186188,0.91307545,12.3583145,-10.239602
1570715263,8.440155,19.612701,-12.0829315,0.4915924,3.7450714,2.3186188,0.91307545,12.3583145,-10.239602
1570715263,-0.9439087,1.0540466,-9.042892,0.74938965,-2.565567,1.5186157,-1.5371683,-6.8600407,-11.719692
1570715263,-0.9439087,1.0540466,-9.042892,0.74938965,-2.565567,1.5186157,-1.5371683,-6.8600407,-11.719692
1570715263,3.7349548,19.612701,1.4131775,3.0791168,-2.1266785,0.42991638,1.9586148,12.288475,0.6425003
1570715263,3.7349548,19.612701,1.4131775,3.0791168,-2.1266785,0.42991638,1.9586148,12.288475,0.6425003
1570715263,0.6027374,16.178818,12.009918,5.694351,-0.6598053,-0.10379028,-2.1124015,8.900827,12.511208
1570715263,-2.111084,13.989319,15.214554,6.788376,4.247864,-0.49794006,-3.1811428,8.316795,13.074884
1570715263,-5.4641724,5.024231,-5.5216217,0.042053223,0.2637787,-1.4524078,-6.0760784,-1.6556039,-4.9563904
1570715263,-6.851013,4.2042236,-4.494522,-0.22958374,-1.1934967,-1.1828918,-7.9355326,-2.7971601,-4.0878525
1570715263,-2.403183,-0.31124878,1.0091553,-0.89004517,0.04434204,0.6291199,-3.2313812,-6.9242773,2.976186
1570715263,-2.403183,-0.31124878,1.0091553,-0.89004517,0.04434204,0.6291199,-3.2313812,-6.9242773,2.976186
1570715263,-2.4283142,1.2042847,2.3379364,-2.0075226,-1.8518372,0.44908142,-4.899466,-6.700038,2.1770482
1570715263,-0.36332703,4.96138,-1.26474,-3.2805023,-1.1711273,-0.6928711,-2.333842,-3.3763332,-1.0072696
1570715263,-0.36332703,5.617401,-1.546051,-3.3327026,-1.2137451,-0.73335266,-2.2502084,-2.6617365,-1.550983
1570715263,1.3257904,19.592346,-0.54766846,-4.132721,-4.352005,-1.9221954,-1.700773,11.765568,-4.469673
1570715263,-0.5207367,19.612701,8.185776,-3.577713,-0.9676666,-2.426056,-1.552128,12.187193,6.047703
1570715263,13.232147,19.612701,-2.4103699,-1.3332062,2.2355804,-0.9687805,11.835852,12.262231,-0.4750929
1570715263,6.24588,17.033554,1.1426392,-1.2969818,-0.35406494,-1.2532043,11.531453,12.261011,-5.233838
1570715263,-4.0467987,13.636169,-1.5598297,-1.6314697,-3.0587769,-1.3512115,-3.3445873,8.095951,-11.8438225
1570715263,5.0338135,-0.8373718,3.4332886,0.2838745,-2.949051,-1.0326996,4.2610073,-6.6987815,-1.1759512
1570715263,5.0338135,-0.8373718,3.4332886,0.2838745,-2.949051,-1.0326996,4.2610073,-6.6987815,-1.1759512
1570715263,5.8681946,-5.0026855,4.6345825,0.8899994,-1.7921753,-0.58102417,5.584481,-11.668338,0.74106646
1570715263,3.0364532,-4.845871,-0.3154297,1.5941467,2.3303986,0.7931671,2.7424855,-12.94226,-2.2312517
1570715263,2.9269104,-4.3855743,-0.28071594,1.4780273,2.3815308,0.7942352,2.5528061,-12.326855,-2.819295
1570715263,2.8460999,1.4018097,1.0414734,0.4862671,3.7290802,0.24668884,2.4580152,-5.9522448,-0.7554934
1570715263,4.1808777,10.108322,1.388031,1.3885498,2.0054932,0.18063354,5.760986,1.1805115,-0.4217031
1570715263,-4.6992188,19.612701,-2.8622742,1.7219696,2.4454498,0.9082184,2.9172416,3.4161882,-1.4498253
1570715263,-0.61950684,-1.249176,-9.189545,-0.11454773,-0.17617798,1.6911926,-0.70708746,-6.7057157,-9.4109335
1570715263,-0.8840637,-1.529892,-9.780319,-0.19976807,-0.60121155,1.7242126,-1.2747431,-8.347123,-10.527969
1570715263,2.2804718,19.612701,14.603439,1.9382172,-6.7435303,1.2150116,0.10211229,12.27319,10.417347
1570715263,2.2804718,19.612701,14.603439,1.9382172,-6.7435303,1.2150116,0.10211229,12.27319,10.417347
1570715263,1.8680725,19.011154,6.2548523,4.847458,-2.3503723,0.040023804,-1.1324949,12.087591,7.723517
1570715263,-1.2246399,14.191635,13.532028,4.6184235,3.2539825,-1.3054047,-1.9765768,8.266733,9.836133
1570715263,8.107361,10.365097,19.605515,5.996887,8.713455,-1.3426819,1.6936597,3.2904854,20.6843
1570715264,-5.403717,3.2207947,-8.482651,-0.75901794,4.567444,-1.4385681,-2.2713027,-2.0369601,-6.7110815
1570715264,-3.0657806,1.4203644,2.5312653,-1.4738159,-1.3319855,0.81874084,-4.8467507,-5.8722734,3.9812744
1570715264,-3.0657806,1.4203644,2.5312653,-1.4738159,-1.3319855,0.81874084,-4.8467507,-5.8722734,3.9812744
1570715264,-2.897583,0.4159851,1.9063873,-2.1353455,-0.9367676,-0.22096252,-5.5254235,-7.041428,2.5475502
1570715264,0.31723022,3.2327728,-0.70988464,-3.4594727,-0.93569946,-0.84840393,-1.237328,-4.497303,-0.72689295
1570715264,3.1920624,19.6109,2.5599976,-4.007019,-5.257477,-2.0042114,-1.0624226,12.221111,-3.103209
1570715264,3.5847168,19.612701,3.566162,-3.8877106,-5.4247284,-2.2300568,1.1949981,12.205296,0.19537723
1570715264,5.7131653,19.612701,8.369537,-3.0749054,4.487549,-0.65026855,1.4206547,12.307646,6.4852295
1570715264,5.7131653,19.612701,8.369537,-3.0749054,4.487549,-0.65026855,1.4206547,12.307646,6.4852295
1570715264,2.7012634,14.60762,-7.1616516,-0.7536926,-3.1546478,-1.1594696,3.1906383,5.544755,-9.339067
1570715264,2.7012634,14.60762,-7.1616516,-0.7536926,-3.1546478,-1.1594696,3.1906383,5.544755,-9.339067
1570715264,2.261917,3.6338043,2.475006,-0.5172119,-1.0571442,-0.5352173,-0.7419219,-3.1017537,1.4896142
1570715264,5.0972595,-3.1304169,4.0569763,1.3970642,-0.95487976,-0.31150818,5.164818,-9.475695,-0.28027916
1570715264,1.7788849,-4.8686066,1.6825256,2.4314423,1.3780518,0.7377777,1.6557441,-12.211824,0.17093587
1570715264,1.7788849,-4.8686066,1.6825256,2.4314423,1.3780518,0.7377777,1.6557441,-12.211824,0.17093587
1570715264,0.7194519,3.4721985,1.5580292,0.68440247,2.4592896,0.12950134,0.7048409,-4.9532146,-0.9999347
1570715264,0.04548645,3.150177,4.7494965,-0.6397095,3.3754272,-0.07182312,-0.26983738,-4.0914187,2.9382212
1570715264,3.4650116,4.2485046,0.86909485,-0.2562256,3.1900635,0.05493164,2.068652,-4.276779,0.56827843
1570715264,14.719559,19.612701,-10.542862,1.0945282,3.644928,1.5250092,5.0515513,12.1716175,-8.820085
1570715264,0.18016052,2.6707306,-9.701309,-0.16567993,1.4835052,1.6208801,0.95506287,-3.0728097,-10.120213
1570715264,-1.0953522,1.4371185,-10.813416,-0.4969635,0.27656555,1.8626862,-0.4247965,-5.279732,-11.65014
1570715264,2.9580383,19.612701,6.855789,3.1323853,-7.4114532,0.7697296,2.2339616,12.1021385,4.516416
1570715264,2.2661133,19.612701,8.246826,3.4061584,-7.283615,0.62805176,2.2339616,12.1021385,4.516416
1570715264,-1.0504608,14.74469,8.508987,5.2874146,1.3311768,-1.3384247,-2.5730824,7.96003,7.913048
1570715264,5.4336395,7.463928,19.612701,5.5547943,8.010391,-1.1008759,-3.2994637,1.6070771,18.06795
1570715264,-7.9559326,1.2976532,-13.3159485,-1.0679474,4.1509247,-1.5557404,-6.079283,-4.288799,-13.187576
1570715264,-9.76355,0.1478424,-11.355698,-1.3427887,2.8704834,-1.2862244,-6.079283,-4.288799,-13.187576
1570715264,-5.771225,2.7228088,2.229599,-1.6495819,-1.4033508,1.2118225,-7.553262,-4.3526206,3.6212254
1570715264,-6.5253906,3.0370483,3.6320038,-1.4365387,-1.8188171,0.37239075,-8.449528,-4.373006,4.192565
1570715264,-0.2346344,1.0426788,0.4524994,-3.016327,-0.30506897,-0.9538727,-3.7021985,-6.565863,1.1893039
1570715264,1.9901733,5.857422,-0.59317017,-3.9228668,-1.402298,-1.0912933,0.29427147,-3.6025195,-1.5815438
1570715264,6.162079,19.612701,2.917328,-4.532196,-5.9467163,-1.5930328,0.666149,12.199967,-4.9294763
1570715264,6.6504974,19.612701,5.715561,-4.405426,-6.0766754,-1.8976898,3.9882174,12.201006,0.018880486
1570715265,12.280457,19.612701,-1.3383636,-1.0221405,3.1304016,-1.6484222,15.160068,12.324395,-2.5985126
1570715265,9.364914,19.534286,-1.9351196,-0.8549042,2.4742126,-1.756012,15.160068,12.324395,-2.5985126
1570715265,1.1863251,12.959808,3.055008,-0.8431854,-0.5394287,-1.1445465,1.6066933,5.5440125,0.037371874
1570715265,-1.6711578,7.163452,-5.61261,-0.4468994,-1.6025543,-0.78341675,-3.150292,0.13425398,-6.5905485
1570715265,-0.56562805,7.1293335,-5.8322754,-0.45861816,-1.8773956,-0.77171326,-3.150292,0.13425398,-6.5905485
1570715265,6.3021393,-0.68174744,2.8359375,0.33926392,-2.468628,-0.49047852,4.7517533,-6.154993,-1.0237088
1570715265,5.403717,-4.9164886,4.625,1.629303,-0.64808655,-0.0664978,5.57657,-11.927621,1.6893189
1570715265,1.1348572,-2.111084,1.6681671,1.2671051,1.032898,0.9082184,0.4925027,-11.268851,-1.9761186
1570715265,1.1348572,-2.111084,1.6681671,1.2671051,1.032898,0.9082184,0.4925027,-11.268851,-1.9761186
1570715265,0.46148682,2.4893646,2.8491058,0.062286377,2.0001678,0.2349701,0.5212789,-4.389939,1.2324471
1570715265,10.282501,7.475891,5.8442535,-0.43199158,2.1013641,0.12738037,6.207616,-2.961008,1.7249827
1570715265,19.56961,19.612701,-13.1375885,-0.03465271,3.483017,1.6581573,17.939148,12.280478,-16.98776
1570715265,-0.7541809,2.0171204,-10.83197,0.24658203,0.21157837,1.3556213,-1.4521575,-3.1554952,-12.2040825
1570715265,-2.0069427,-0.76194763,-10.381851,0.1847992,-2.2928467,1.7849274,-2.6298733,-7.9718976,-12.244197
1570715265,1.656784,19.612701,-2.2972412,0.15496826,-5.0731964,2.1247406,-1.5344359,11.658037,-6.768022
1570715265,4.0144806,19.612701,4.6776733,2.1949463,-2.7626343,0.75161743,2.1822476,12.392855,4.534719
1570715265,0.33338928,15.066116,12.765289,5.817917,5.5166016,-0.42230225,-4.229128,7.3196745,14.785893
1570715265,1.0301056,14.768036,12.064377,6.029907,5.821274,-0.4627838,-2.2945867,7.5718217,13.523985
1570715265,-9.715073,6.182434,-0.9816284,-0.8133545,-1.1274567,-0.04838562,-11.492102,-1.517798,-2.3017929
1570715265,-9.583389,6.209366,0.0011901855,-0.8048248,-1.7964325,0.07092285,-11.492102,-1.517798,-2.3017929
1570715265,-0.98521423,4.4328613,11.24736,-0.2924347,-1.2744598,-0.028152466,-3.5874102,-1.9583735,11.324231
1570715265,-0.4584961,-0.1370697,1.3976135,-1.4024506,-1.5961761,-0.13894653,-2.3414037,-7.546389,1.5298188
1570715265,-0.19213867,-0.60214233,3.81456,-1.7731628,-1.5876465,-0.23268127,-2.2336369,-7.893306,3.9504185
1570715265,-1.5951385,12.131424,-5.403122,-3.8610687,-1.151947,-1.3181915,-1.1450496,1.9827957,-2.3683724
1570715265,-3.2321777,12.206238,-7.6434937,-3.9782562,-1.3980255,-1.3554688,-2.5627866,4.2694325,-4.824019
1570715265,-0.15203857,19.612701,7.838623,-2.9215088,-3.2345428,-2.9288635,-1.2141695,12.119604,6.2986317
1570715265,-0.15203857,19.612701,7.838623,-2.9215088,-3.2345428,-2.9288635,-1.2141695,12.119604,6.2986317
1570715265,3.751709,19.612701,8.909424,-2.5848846,3.3359985,-0.63534546,1.1464155,12.162498,6.132991
1570715265,-1.3742676,15.874756,-8.016388,-1.762497,-2.1607666,-0.8846283,-0.5069145,8.099953,-12.701664
1570715265,-1.9129639,16.46193,-7.032364,-1.7539825,-2.501648,-0.9432068,-0.5069145,8.099953,-12.701664
1570715265,3.218399,4.9075165,0.17358398,-1.0945892,-1.9061584,-0.5447998,0.8579687,-1.4193273,-1.5480068
1570715265,6.0848694,-5.8562164,5.538391,1.08815,-0.99642944,-0.22735596,5.573642,-12.739541,1.7470543
1570715266,3.4506378,-7.873337,3.0897217,2.4026794,1.4632721,0.21792603,3.7183983,-14.886718,0.7963433
1570715266,3.3740234,-7.703949,3.336319,2.4580688,1.5570068,0.29888916,3.2292218,-15.086988,0.06880784
1570715266,2.003952,-5.7347107,1.4754333,2.6785889,2.2771301,1.1042175,2.151396,-13.420578,-1.2561622
1570715266,1.4281464,5.5910645,2.6940765,1.615448,2.6148224,0.94337463,1.110689,-4.270753,0.09802878
1570715266,-2.9586334,9.226654,3.9193115,-0.3638153,1.7498322,-0.07821655,-3.1861808,3.929358,1.162836
1570715266,10.33876,18.17978,-7.744049,-0.6876526,1.6912384,0.3052826,11.392056,12.203253,-12.560646
1570715266,10.33876,18.17978,-7.744049,-0.6876526,1.6912384,0.3052826,11.392056,12.203253,-12.560646
1570715266,2.8778229,4.7800293,-7.091629,-0.53318787,3.3242798,1.3321838,3.3545675,-1.289001,-8.441525
1570715266,-0.7727356,11.9279175,-10.8810425,-0.42453003,-2.1085663,2.1300812,-2.3638353,1.103899,-14.368409
1570715266,3.2674866,19.612701,-2.7024536,0.42662048,-4.5778503,1.922348,1.8552992,12.293148,-7.1202555
1570715266,1.4784241,18.402435,3.3949738,3.6490326,-0.99217224,-0.4148407,1.1981515,9.752062,0.63390195
1570715266,1.4784241,18.402435,3.3949738,3.6490326,-0.99217224,-0.4148407,0.64106584,10.285143,1.7541373
1570715266,2.9951477,8.24324,-5.6622925,0.5981293,9.181107,-0.71951294,4.2878227,3.7979918,-3.7950535
1570715266,2.9951477,8.24324,-5.6622925,0.5981293,9.181107,-0.71951294,4.2878227,3.7979918,-3.7950535
1570715266,-8.308472,2.3684692,-0.5961609,-1.4365387,-2.1703491,0.14228821,-11.974819,-5.41765,-4.5565305
1570715266,-3.7337646,0.32321167,0.6661835,-1.1819305,-0.91760254,0.8709259,-5.557379,-6.7842717,1.5089966
1570715266,-3.7612915,1.375473,3.4512482,-1.5089722,-1.5418396,0.3340454,-5.9408712,-6.231049,3.8552392
1570715266,-3.7612915,1.375473,3.4512482,-1.5089722,-1.5418396,0.3340454,-5.9408712,-6.231049,3.8552392
1570715266,1.4024048,2.8389282,-1.2743073,-3.8067474,-0.32743835,-0.89741516,-0.55852914,-5.177058,-0.6878673
1570715266,0.33518982,13.918686,-7.605774,-4.551361,-2.186325,-1.2521362,0.7626053,3.3573866,-2.2004325
1570715266,1.8986053,19.612701,11.335342,-2.7755737,4.8007507,-0.7503967,-0.8629243,12.163592,9.1832905
1570715266,1.8986053,19.612701,11.335342,-2.7755737,4.8007507,-0.7503967,-0.8629243,12.163592,9.1832905
1570715266,5.1924286,13.061569,-2.616867,-0.4618225,0.94981384,-1.742157,10.400129,10.924185,-7.073988
1570715266,-5.723343,9.224258,5.7682343,-1.5835419,-3.284607,-0.7674408,-6.271276,2.8424325,-2.482168
1570715266,-5.723343,9.224258,5.7682343,-1.5835419,-3.284607,-0.7674408,-6.271276,2.8424325,-2.482168
1570715266,3.36026,1.6280518,2.7174225,-0.34570312,-0.8930969,-0.32110596,2.8049982,-5.4657536,-0.6848452
1570715266,4.474167,-5.9441986,2.0093384,1.9147949,-1.4651489,0.21046448,3.8830419,-12.924332,-1.5790701
1570715266,3.4620209,-4.695633,1.2737122,2.891632,0.3117218,0.6706543,3.4526308,-12.017954,-0.63386154
1570715266,3.2082367,-3.0927124,-1.3724823,2.7201233,0.7953491,0.8485565,1.9891492,-11.527354,-2.5097897
1570715266,-1.7705078,8.146866,13.214798,-2.5177765,3.4148407,-0.6939392,-2.9007258,1.3956943,10.234017
1570715266,-1.7705078,8.146866,13.214798,-2.5177765,3.4148407,-0.6939392,-2.9007258,1.3956943,10.234017
1570715266,9.397842,19.611511,-7.202957,-0.9071045,2.4209442,0.9934387,4.28424,12.251179,-9.420708
1570715266,9.397842,19.611511,-7.202957,-0.9071045,2.4209442,0.9934387,4.28424,12.251179,-9.420708
1570715266,8.305481,9.0746155,-4.146759,-0.19763184,2.0779266,0.7633362,9.538181,4.1815467,-5.6273766
1570715267,8.964493,19.612701,-10.1987,1.761383,-4.6896973,2.3260803,6.832065,12.268482,-11.7476425
1570715267,8.964493,19.612701,-10.1987,1.761383,-4.6896973,2.3260803,6.832065,12.268482,-11.7476425
1570715267,-2.8532867,17.883484,19.612701,5.0136414,0.39268494,-0.20179749,-1.7473332,11.818212,14.507488
1570715267,-2.8532867,17.883484,19.612701,5.0136414,0.39268494,-0.20179749,-1.7473332,11.818212,14.507488
1570715267,-4.633972,7.1454926,-5.373184,-1.537735,3.357315,-0.89741516,-0.48942685,1.2489791,-4.933484
1570715267,-4.633972,7.1454926,-5.373184,-1.537735,3.357315,-0.89741516,-0.48942685,1.2489791,-4.933484
1570715267,-2.4726105,3.3063965,0.98820496,-0.57899475,0.16577148,0.45228577,-4.777166,-3.9978595,2.1415539
1570715267,-2.4726105,3.3063965,0.98820496,-0.57899475,0.16577148,0.45228577,-4.777166,-3.9978595,2.1415539
1570715267,-2.214035,0.746994,2.4534607,-1.0487823,-1.0582123,0.3383026,-4.6783533,-6.7725043,2.9530954
1570715267,-1.5089417,0.08558655,2.3588867,-1.2895203,-1.66008,0.08583069,-4.207355,-7.346781,2.7434723
1570715267,-3.9462433,19.151825,-8.116943,-3.81633,-2.137329,-1.3778381,-5.912424,10.219592,-9.92395
1570715267,-2.360077,19.612701,-6.167465,-3.832306,-2.4196167,-1.5152588,-5.912424,10.219592,-9.92395
1570715267,4.1359863,19.58577,4.4370575,-2.510315,-2.2608948,-3.952591,4.671474,12.065668,4.1462936
1570715267,19.612701,18.786102,3.1926727,-2.4208374,-1.3937683,0.22111511,18.439114,11.981858,-2.2221475
1570715267,19.612701,17.289124,4.566345,-2.4133759,-1.3873749,0.05281067,18.398151,11.56478,0.36477685
1570715267,2.5282745,11.650787,3.4751892,-1.4866028,0.014511108,0.26480103,1.9986634,4.0288286,2.649575
1570715267,2.644394,6.3506165,4.3813934,-1.345993,-1.1594086,-1.0529327,-1.0632774,-0.5439601,-1.4415975
1570715267,3.580536,5.5168457,3.4680023,-1.2160187,-0.877121,-1.0710449,-1.0632774,-0.5439601,-1.4415975
1570715267,2.897583,-6.810898,4.6674957,1.1446075,-0.27416992,-0.4297638,2.161147,-13.936061,1.2218478
1570715267,2.7467499,-6.926422,4.826706,1.2681732,-0.11332703,-0.39033508,2.161147,-13.936061,1.2218478
1570715267,1.5634155,-3.391983,4.1126404,1.6016083,1.3812408,0.4437561,0.48293585,-11.625561,1.6070817
1570715267,1.5634155,-3.391983,4.1126404,1.6016083,1.3812408,0.4437561,0.48293585,-11.625561,1.6070817
1570715267,4.525635,4.650131,-1.9835968,-0.8474426,3.004715,0.360672,2.6007185,-3.314641,-1.5389297
1570715267,4.525635,4.650131,-1.9835968,-0.8474426,3.004715,0.360672,2.6007185,-3.314641,-1.5389297
1570715267,1.703476,9.48703,-7.9349823,1.090271,3.6672974,0.77186584,3.584924,5.1390204,-8.553288
1570715267,1.703476,9.48703,-7.9349823,1.090271,3.6672974,0.77186584,3.584924,5.1390204,-8.553288
1570715267,2.126648,19.612701,-9.394241,-1.4866028,-4.4393616,1.5431061,0.7763159,9.827409,-14.084803
1570715267,1.6663666,19.612701,-6.8563995,-1.1446533,-5.260681,1.3907776,0.8223754,12.114185,-12.193975
1570715267,-1.4131775,19.612701,4.6423645,4.2466583,-7.086548,0.8624115,-3.3073807,12.172668,4.894341
1570715267,-0.9750366,11.357498,14.888947,5.5398865,5.6763916,-1.677185,-3.4902678,5.1610293,15.883564
1570715267,-0.9750366,11.357498,14.888947,5.5398865,5.6763916,-1.677185,-3.4902678,5.1610293,15.883564
1570715267,0.52493286,6.0615234,-8.322845,0.8612366,8.401337,-1.4332428,3.5667906,-0.48766375,-2.2313461
1570715267,-10.903198,2.1332397,-7.9008636,-0.98379517,0.55033875,-0.62257385,-9.342852,-3.886598,-8.714151
1570715268,-3.1956635,0.42796326,0.39204407,-1.4631653,-1.4907074,0.266922,-5.145157,-6.8025227,1.6870447
1570715268,-3.1956635,0.42796326,0.39204407,-1.4631653,-1.4907074,0.266922,-5.145157,-6.8025227,1.6870447
1570715268,-2.9095612,0.27114868,1.6352386,-2.109787,-1.5365143,-0.15171814,-5.031566,-7.066403,1.9774802
1570715268,-0.06703186,3.0262756,0.2753296,-3.3114014,-0.816391,-0.5362854,-2.2825124,-5.670547,1.9037418
1570715268,-0.82899475,19.612701,-9.254181,-4.4246063,-4.066513,-1.1466827,-5.0790033,7.279069,-10.70502
1570715268,1.7663269,19.612701,7.0036316,-4.342575,-5.9168854,-3.3059692,1.5222993,12.115158,4.7855496
1570715268,19.612701,19.612701,-12.108673,0.20930481,2.479538,-0.2390747,18.10443,12.148852,-10.750395
1570715268,19.495987,19.612701,-12.443863,0.19970703,1.5303802,-0.5650482,18.10443,12.148852,-10.750395
1570715268,5.1607056,14.23114,3.3153687,-1.3182831,-3.1663666,-0.17835999,5.0149474,5.5311337,-0.53342843
1570715268,0.24301147,5.826889,2.5635986,-0.9624939,-0.4829712,-0.46917725,-1.7185149,-0.96702623,-1.5633042
1570715268,0.24301147,5.826889,2.5635986,-0.9624939,-0.4829712,-0.46917725,-1.7185149,-0.96702623,-1.5633042
1570715268,4.6357727,-3.3345184,1.5418701,0.86550903,-0.17085266,-0.2657013,3.8063068,-10.20225,-1.8013849
1570715268,4.2431183,-4.30896,2.079361,1.106247,0.1434021,-0.20179749,3.7470813,-11.305807,-0.7189264
1570715268,2.1703491,-6.2991486,-1.2641449,1.6335602,0.4608612,0.3414917,1.4443429,-13.573395,-3.2840765
1570715268,1.5807648,-3.154358,1.5340881,1.0604401,0.5407562,0.7697296,0.6443117,-11.985291,-2.1829798
1570715268,0.2962799,5.7604523,19.612701,-1.4876709,5.02977,0.2349701,-2.5070498,-4.15468,13.174304
1570715268,19.612701,19.612701,-18.762756,0.12088013,5.765869,1.3939819,12.728427,12.22151,-21.485367
1570715268,19.612701,19.612701,-18.762756,0.12088013,5.765869,1.3939819,18.892513,12.207984,-21.380375
1570715268,-1.7256165,11.713638,-12.610855,-0.8868561,-3.2643738,2.622223,-3.5637815,-0.32804346,-14.466042
1570715268,-1.7256165,11.713638,-12.610855,-0.8868561,-3.2643738,2.622223,-3.5637815,-0.32804346,-14.466042
1570715268,0.7164612,19.612701,18.094772,5.566513,-5.387451,-0.15492249,-1.4239931,12.204741,17.495335
1570715268,0.48303223,19.594147,16.433197,5.996887,-4.999695,-0.36264038,-1.4239931,12.204741,17.495335
1570715268,0.48841858,11.273697,15.63533,6.6733246,2.9780731,-1.3320312,-3.0043764,5.619985,12.082663
1570715268,5.5036774,6.392517,-2.494156,0.8665619,9.030914,-1.9200592,6.7580724,0.65744114,-0.30575466
1570715268,-8.051697,1.0480652,-0.29089355,-0.7164154,-2.582611,0.2584076,-12.891679,-6.51923,-4.132149
1570715268,-3.2142181,1.6747437,1.6202698,-1.1169586,-0.26991272,0.6909027,-5.00558,-5.8869925,4.664981
1570715268,-3.9594116,1.1797485,-0.2735443,-1.4312134,-0.6598053,0.6344452,-5.4763455,-5.8367267,2.4385238
1570715268,-0.86968994,4.4226837,-1.5370789,-2.8181763,-0.7801819,-0.5352173,-3.397534,-4.3900485,1.6001308
1570715268,-0.86968994,4.4226837,-1.5370789,-2.8181763,-0.7801819,-0.5352173,-3.397534,-4.3900485,1.6001308
1570715268,3.5841217,19.612701,5.0182495,-4.5268707,-5.0444336,-3.0396576,3.6330428,12.065376,0.19946527
1570715268,3.5841217,19.612701,5.0182495,-4.5268707,-5.0444336,-3.0396576,3.6330428,12.065376,0.19946527
1570715268,12.7269745,19.612701,-2.534256,-2.4133759,4.518448,1.5857239,4.541211,12.097054,0.87570596
1570715268,19.612106,19.610306,-3.16214,-0.5885773,1.9564819,-1.2201843,18.634933,12.114011,-2.8453708
1570715268,1.6292572,10.9600525,1.4125824,-1.3822021,-0.673645,-0.34986877,0.54070145,2.252328,-1.791753
1570715269,-5.0619354,5.000885,-0.25976562,-1.4184265,-1.2915039,-0.9623871,-6.464986,-1.2067051,-1.881093
1570715269,3.210617,-1.4143677,-0.18315125,0.17201233,-0.72158813,-0.5543976,2.9627628,-8.043426,-2.8917048
1570715269,2.9646149,-1.8920135,-0.44711304,0.2593689,-0.8132019,-0.516037,2.9627628,-8.043426,-2.8917048
1570715269,3.359665,-3.312378,4.2078094,1.4215698,-0.28269958,0.13270569,2.9289837,-10.537678,1.7358565
1570715269,1.5310974,-3.5709534,1.1983032,2.4186554,0.52371216,0.4149933,1.4288262,-10.764312,-0.103143215
1570715269,1.1109161,-0.3531494,3.628418,1.8775024,0.57270813,0.37878418,0.4913547,-9.616625,-0.023701668
1570715269,8.887283,5.965149,3.162735,-0.82081604,3.9538574,-0.49154663,5.809341,-3.1141782,3.489496
1570715269,10.010162,6.965332,1.5430603,-0.62693787,3.6822205,-0.63108826,8.105408,-1.6699305,1.4479163
1570715269,13.751694,19.612701,-10.945099,1.742218,2.9024353,0.96681213,11.035188,12.167543,-9.550495
1570715269,1.5987244,8.177399,-5.0577545,0.41383362,4.40979,1.3492279,2.5617974,2.6802287,-6.8938046
1570715269,-0.04548645,12.073364,-19.612701,-1.1318665,-0.5341034,2.5540466,-0.4732577,1.5679841,-20.380323
1570715269,3.6236267,19.612701,4.451416,1.6751099,-7.346466,1.380127,1.9215646,12.129509,0.9710747
1570715269,1.9578552,17.270569,12.80957,5.950012,-2.8339996,-0.85798645,-0.5349512,11.447815,11.111515
1570715269,-0.46028137,15.804123,7.9595184,6.266388,0.70054626,-1.2787781,-2.2341347,8.134466,9.970271
1570715269,-1.8243866,9.027344,19.554642,6.8501587,4.8625336,-1.3639984,-3.5160751,4.023037,14.293
1570715269,2.364273,6.4841003,-5.604828,1.4119873,7.4564514,-1.9051514,4.210062,0.012526512,-0.5637109
1570715269,-1.9434967,1.7573395,5.9908905,-0.45329285,0.841156,0.89649963,-3.2509422,-5.728999,10.9667635
1570715269,-1.9434967,1.7573395,5.9908905,-0.45329285,0.841156,0.89649963,-3.2509422,-5.728999,10.9667635
1570715269,-2.9909515,1.2551575,-0.14245605,-1.2756805,0.32450867,0.7825165,-4.6914015,-5.954608,1.4326192
1570715269,-0.4447174,-0.93434143,2.0464478,-2.1672974,0.35432434,-0.50538635,-2.2899556,-8.13336,3.026489
1570715269,-0.4447174,-0.93434143,2.0464478,-2.1672974,0.35432434,-0.50538635,-2.2899556,-8.13336,3.026489
1570715269,-0.8571167,19.612106,-2.023697,-4.391571,-4.8675995,-1.2073975,-4.8431234,12.181673,-6.3135056
1570715269,-0.8571167,19.612106,-2.023697,-4.391571,-4.8675995,-1.2073975,-4.8431234,12.181673,-6.3135056
1570715269,1.1396332,19.50975,0.6218872,-3.1910248,-3.2622375,-3.0993042,-0.19749022,9.848858,0.45289445
1570715269,7.5207825,19.612701,5.1930237,-1.3342743,1.1191864,1.0850525,-1.4836907,12.070069,6.9859457
1570715269,10.15979,15.776596,0.6715698,-1.5792847,-2.8308105,-0.64494324,15.1943,9.844051,-5.2496777
1570715269,-3.878601,7.6835938,-7.0814514,-0.66207886,-1.545044,-1.2564087,-6.866117,2.4609509,-7.283855
1570715269,-3.878601,7.6835938,-7.0814514,-0.66207886,-1.545044,-1.2564087,-6.866117,2.4609509,-7.283855
1570715269,3.791214,-4.6357727,2.8000183,0.16242981,-0.5298462,-0.39993286,2.4711628,-11.475357,0.8346555
1570715269,3.791214,-4.6357727,2.8000183,0.16242981,-0.5298462,-0.39993286,2.4711628,-11.475357,0.8346555
1570715269,4.1832733,-6.9940643,-0.48901367,1.0018616,1.1831055,-0.5320282,3.3342974,-14.167107,-1.617568
1570715269,3.839096,-4.736328,2.82695,1.4226379,0.63237,-0.117630005,2.9550567,-12.626984,-0.4730885
1570715269,-0.5345001,8.471878,13.921082,-0.19230652,0.4693756,0.45654297,-1.129656,0.006816864,9.380518
1570715270,-0.5345001,8.471878,13.921082,-0.19230652,0.4693756,0.45654297,-1.129656,0.006816864,9.380518
1570715270,1.7214355,8.743622,-7.2017517,0.30303955,3.070755,1.2906494,1.536485,-1.1377025,-6.456112
1570715270,4.6627045,14.880569,-4.9745483,-0.7536926,3.5970001,0.7473602,6.909978,10.744423,-8.609373
1570715270,1.2443848,7.5195923,-12.425308,0.7184906,-1.5588837,1.3897095,-0.28768933,-2.5795121,-11.514079
1570715270,1.6472168,9.404419,-13.455414,0.8356781,-2.2278748,1.3758698,-0.26215518,-0.5124941,-14.082233
1570715270,2.17453,19.612701,0.9295502,2.1022797,-6.1768036,0.9593506,-1.0623598,12.242797,-4.128604
1570715270,0.23103333,18.548477,11.742966,7.2421722,4.2382812,-0.6481323,-3.550097,11.010805,16.263363
1570715270,1.0480652,18.491623,9.640854,7.379593,4.662262,-0.6481323,-3.550097,11.010805,16.263363
1570715270,5.5078583,11.634628,-1.3850403,2.5667267,10.115341,-0.67689514,0.9870956,3.4877958,10.978776
1570715270,-7.357376,4.182663,-3.0071106,-0.7803345,-2.10643,-0.5884857,-8.644237,-2.659348,-1.815473
1570715270,-3.6008759,2.7132263,2.4726105,-0.22746277,-0.08135986,0.6056824,-4.941514,-4.536533,6.066881
1570715270,-3.9618073,2.3175812,1.9446869,-0.3680725,-0.25286865,0.5652008,-4.941514,-4.536533,6.066881
1570715270,-3.304596,1.0468597,0.20051575,-1.4056396,-1.833725,0.04109192,-5.540648,-6.4579906,1.5600019
1570715270,-0.893631,0.068237305,0.8666992,-2.5209656,-2.0957794,-0.5416107,-3.4552631,-7.8428116,2.3608775
1570715270,0.5105591,9.345764,-1.5155334,-4.106079,-2.0510406,-0.738678,-1.2910736,-0.6084647,-1.303209
1570715270,-1.7884674,19.612701,3.8923798,-4.2040863,-4.5480194,-2.1895752,-2.9314249,11.986341,1.0928085
1570715270,3.1340027,19.612701,6.0663147,-2.2770233,1.7072144,1.5015717,-3.183661,12.039085,5.050541
1570715270,3.1340027,19.612701,6.0663147,-2.2770233,1.7072144,1.5015717,-3.183661,12.039085,5.050541
1570715270,0.52493286,12.777252,9.576202,-2.302597,-0.6321106,-0.21031189,-0.51562417,6.1618977,6.5629086
1570715270,0.52493286,12.777252,9.576202,-2.302597,-0.6321106,-0.21031189,-0.51562417,6.1618977,6.5629086
1570715270,1.9506683,6.3500214,0.18136597,-1.2533112,-2.1596985,-0.7450714,-1.5148206,-0.48915672,-8.335933
1570715270,4.364029,-1.3449402,1.3114166,-0.08578491,0.52264404,-0.7919464,3.6741018,-8.194141,0.14404106
1570715270,2.8939972,-7.19458,-1.783081,0.9901428,1.2384949,-0.19540405,2.5803716,-14.286747,-3.8385842
1570715270,2.8431091,-7.219116,-1.4897919,1.0178375,1.1777802,-0.1133728,2.5803716,-14.286747,-3.8385842
1570715270,1.8028412,-5.8921356,-0.6087189,1.3565826,1.2821808,0.7462921,1.4653507,-13.507967,-2.9264357
1570715270,-3.945053,4.50708,8.592789,-0.2892456,3.8931427,-0.15811157,-4.435671,-3.9457722,5.110106
1570715270,-3.5919037,4.50708,8.592789,-0.2892456,3.8931427,-0.15811157,-4.547316,-3.0285993,6.6872525
1570715270,8.514374,19.612701,-3.9282837,0.73553467,3.93042,1.4610901,3.8520722,12.223842,-1.3499596
1570715270,18.896835,19.612701,-10.847534,0.5981293,4.993561,1.8275452,6.565338,12.231573,-4.6137767
1570715270,1.6621704,3.7978058,-11.025299,-0.0090789795,2.6691437,1.3407135,2.6275158,-1.4900618,-12.590752
1570715270,-0.4189911,19.612701,8.69754,3.0258636,-5.5067596,1.8179474,-0.8667805,12.168513,3.126143
1570715270,-0.5518646,19.612701,10.165787,3.4029694,-5.401291,1.699707,-1.8427354,12.142973,6.5051346
1570715270,0.97384644,16.707932,4.9152985,5.5100555,2.1588898,-1.7102051,0.2285316,9.748455,4.8555603
1570715270,0.97384644,16.707932,4.9152985,5.5100555,2.1588898,-1.7102051,0.2285316,9.748455,4.8555603
1570715271,-1.8704681,5.1642914,-6.5080414,0.5906677,3.3700867,-1.9040833,-1.0943443,-1.7949171,-3.0201309
1570715271,-1.8704681,5.1642914,-6.5080414,0.5906677,3.3700867,-1.9040833,-1.0943443,-1.7949171,-3.0201309
1570715271,-2.2200165,0.85891724,0.8535309,-0.77394104,0.29786682,1.4472351,-3.284117,-7.2368083,4.054858
1570715271,-2.2200165,0.85891724,0.8535309,-0.77394104,0.29786682,1.4472351,-3.284117,-7.2368083,4.054858
1570715271,-2.6515808,1.7381897,3.6080627,-1.7923279,-2.6742096,0.75694275,-5.1567745,-6.0608153,3.961669
1570715271,-2.5187073,1.6208801,3.8079834,-2.0778198,-2.0371857,0.37878418,-4.2980375,-5.704379,4.7676497
1570715271,-1.2785034,3.186081,-2.5288696,-3.4562683,-1.5194702,0.12205505,-3.004292,-4.694985,-1.5947894
1570715271,2.3756409,19.612701,5.9280396,-4.2403107,-5.861496,-3.0300598,2.763105,12.115287,1.7007928
1570715271,1.2563629,19.612701,6.446991,-4.161484,-5.629257,-3.1376648,1.3869739,12.098462,4.317349
1570715271,19.56961,19.612701,-1.9979553,-1.4226837,2.6957855,0.34469604,18.566246,12.180907,-1.4397252
1570715271,19.56961,19.612701,-1.9979553,-1.4226837,2.6957855,0.34469604,18.566246,12.180907,-1.4397252
1570715271,2.4229279,15.038574,-12.142792,-1.0690155,-0.44781494,-0.7578583,0.800297,5.893284,-7.9968057
1570715271,4.4693756,2.4253235,-2.3421326,-0.12625122,-0.7151947,-1.6111298,4.3941107,-3.7193608,-5.29992
1570715271,4.4693756,2.4253235,-2.3421326,-0.12625122,-0.7151947,-1.6111298,4.3941107,-3.7193608,-5.29992
1570715271,2.5312653,-8.443146,4.003708,1.5834961,1.112793,-0.17622375,2.5564957,-15.414682,1.0118423
1570715271,2.4235382,-8.644272,3.645172,1.6111908,1.2480927,-0.06437683,2.5564957,-15.414682,1.0118423
1570715271,3.9935303,-3.3016052,-0.16101074,1.0828247,2.499771,1.2150116,3.2027402,-12.2668915,-3.881004
1570715271,4.079727,-2.3457184,0.7661438,1.074295,2.7778015,1.0552216,3.6807818,-10.915075,-2.8680143
1570715271,1.5658112,19.612701,-2.5677795,1.02742,3.6864777,0.40434265,2.9009917,12.258301,-3.4487195
1570715271,1.5658112,19.612701,-2.5677795,1.02742,3.6864777,0.40434265,2.9009917,12.258301,-3.4487195
1570715271,17.11435,19.612701,-16.973694,-1.2586365,7.6332855,1.6986389,14.509484,12.204109,-18.970753
1570715271,-1.6861115,16.904861,-8.574829,0.3062439,-7.15152,2.5987854,-3.0653186,6.971791,-11.144297
1570715271,-1.6861115,16.904861,-8.574829,0.3062439,-7.15152,2.5987854,-3.0653186,6.971791,-11.144297
1570715271,3.7606964,19.612701,8.444351,0.6417999,-6.40477,1.6443176,1.2672966,12.224363,-3.6993797
1570715271,1.10672,10.550644,12.940063,5.836029,3.5682373,-2.044693,0.2693386,5.5352483,7.704187
1570715271,1.10672,10.550644,12.940063,5.836029,3.5682373,-2.044693,0.2693386,5.5352483,7.704187
1570715271,-3.6631317,3.9360657,-6.901291,-0.42134094,1.1671295,-1.1072693,-2.0547175,-2.715026,-5.3267837
1570715271,-3.6631317,3.9360657,-6.901291,-0.42134094,1.1671295,-1.1072693,-2.0547175,-2.715026,-5.3267837
1570715271,-2.771881,0.35194397,2.151184,-1.2224121,-0.3934784,1.0988922,-3.7167497,-7.037218,5.2195377
1570715271,-1.8878326,1.2078705,1.9817963,-2.6434784,-1.0944366,-0.033477783,-3.9675329,-6.087592,3.1081028
1570715271,-1.6508026,1.161789,1.8363495,-2.734024,-1.0816498,-0.07395935,-3.9675329,-6.087592,3.1081028
1570715271,0.2926941,5.0032806,-1.0666199,-3.734314,-1.7250671,-0.30085754,-1.145344,-3.803608,-0.79483503
1570715271,-0.5632324,19.612701,-1.7992401,-4.249893,-4.156006,-1.2372284,-3.2759552,8.471701,-4.7406287
1570715272,-3.016693,19.612701,8.278549,-3.8877106,1.3929596,-0.7067261,-4.2096386,12.12867,4.145908
1570715272,-3.016693,19.612701,8.278549,-3.8877106,1.3929596,-0.7067261,-4.2096386,12.12867,4.145908
1570715272,1.0444641,10.2447815,2.8526917,-1.3182831,-1.3032227,-0.8601227,2.6719177,3.4126801,-0.104507685
1570715272,1.0444641,10.2447815,2.8526917,-1.3182831,-1.3032227,-0.8601227,2.6719177,3.4126801,-0.104507685
1570715272,0.029327393,4.7052,-1.2192535,-0.77926636,-1.3032227,-0.59806824,-2.1704984,-2.0941563,-2.9004886
1570715272,5.186432,3.2393494,0.51116943,-0.29670715,-1.3692627,-0.62364197,3.7753305,-3.4720783,-3.8000832
1570715272,4.736328,-4.985321,2.999939,1.0508575,-0.62783813,-0.29660034,4.3275123,-11.80304,-0.85611486
1570715272,2.9562378,-6.3188934,2.4702148,2.1044006,1.2257233,0.16786194,2.60079,-13.574821,0.33267808
1570715272,0.31723022,3.2597046,5.6150055,0.06762695,1.3418274,0.25308228,1.5750186,-7.036443,2.3771195
1570715272,0.31723022,3.2597046,5.6150055,0.06762695,1.3418274,0.25308228,1.5750186,-7.036443,2.3771195
1570715272,6.348831,4.6632996,2.0440521,-0.9124298,2.8044434,0.25627136,4.6343455,-3.3192701,-0.71370864
1570715272,6.1135864,11.780075,1.7076569,-0.030380249,2.146103,-0.37968445,10.255158,2.0957193,0.14887214
1570715272,-1.8609009,3.4823608,-9.293686,-0.2743225,0.48002625,2.08107,-2.3336978,-2.965365,-11.794529
1570715272,-1.8609009,3.4823608,-9.293686,-0.2743225,0.48002625,2.08107,-2.3336978,-2.965365,-11.794529
1570715272,-0.57341003,19.433136,-13.891754,0.5288849,-8.375519,2.0736084,-3.8645139,10.24999,-17.688637
1570715272,-0.92655945,16.632523,14.316132,6.0384216,-0.8930969,-1.4119263,-2.2623467,10.299037,17.569748
1570715272,-0.7589569,16.065094,12.070374,6.265335,-0.4084015,-1.4790344,-2.2623467,10.299037,17.569748
1570715272,9.847946,10.032303,6.22493,3.4817963,12.7146,-1.9243164,9.27603,2.0527992,13.98245
1570715272,9.847946,10.032303,6.22493,3.4817963,12.7146,-1.9243164,9.27603,2.0527992,13.98245
1570715272,-6.8839264,4.9194794,-7.9242096,-0.34996033,3.3711548,-1.4172516,-5.5563946,-1.4677739,-5.659653
1570715272,-1.7741089,3.213623,7.594406,-0.58218384,-1.6728668,1.0253906,-1.7370846,-4.03236,11.406597
1570715272,-4.1725006,1.1192932,1.7806854,-2.0149689,-1.4768524,0.29782104,-5.707539,-6.0126257,2.4360864
1570715272,-4.0072937,0.76794434,1.9015961,-2.0384064,-1.4853821,0.28077698,-5.707539,-6.0126257,2.4360864
1570715272,-0.74938965,9.697708,-5.9394226,-4.308487,-2.8819427,-0.096328735,-2.556529,-0.040341377,-5.199731
1570715272,-0.74938965,9.697708,-5.9394226,-4.308487,-2.8819427,-0.096328735,-2.556529,-0.040341377,-5.199731
1570715272,2.561203,19.512146,1.8944092,-4.8453827,-5.7443085,-1.4460144,-0.99315965,9.975046,-3.8680694
1570715272,-2.166153,19.22844,4.561554,-3.894104,-2.2577057,-2.487854,-1.548979,10.399162,3.4617379
1570715272,14.729126,19.612701,10.586563,-1.2714233,6.04924,1.936203,6.243643,12.34338,10.689394
1570715272,-2.3906097,13.650543,-11.805801,-1.2032471,-2.2736816,-1.5205841,-0.6764507,6.5204906,-11.347613
1570715272,-2.3906097,13.650543,-11.805801,-1.2032471,-2.2736816,-1.5205841,-0.6764507,6.5204906,-11.347613
1570715272,2.09552,4.499298,-1.0893555,-1.1148224,-2.3493042,-0.4851532,-0.25419644,-1.7173533,0.09661579
1570715272,4.3748016,-5.628174,7.001251,1.6239777,-0.5852356,-0.40100098,3.885805,-12.068386,2.8777897
1570715272,4.2712555,-5.8011475,7.032364,1.7603302,-0.36366272,-0.35731506,3.885805,-12.068386,2.8777897
1570715272,3.5146942,-6.467331,1.320404,2.5923004,1.4078827,0.26052856,2.891589,-13.811798,-0.35026932
1570715273,1.1043243,-0.1478424,2.7072449,0.8612366,2.4315948,0.2115326,1.7558742,-8.696625,0.027417898
1570715273,0.65242004,0.38786316,3.1872864,0.7344818,2.4646149,0.20620728,0.8755963,-7.596502,0.35659146
1570715273,1.7842712,19.612701,-1.6927032,0.74086,3.0675507,1.9649506,2.5831292,6.725917,-4.0235224
1570715273,1.7842712,19.612701,-1.6927032,0.74086,3.0675507,1.9649506,2.5831292,6.725917,-4.0235224
1570715273,1.0726013,12.124237,-7.5674744,-0.25090027,1.8819122,1.1404419,1.7019432,7.0897512,-9.339449
1570715273,-0.90979004,13.671494,-6.8988953,-0.08364868,-4.3626556,1.012619,-2.6260219,3.8591356,-9.892006
1570715273,-0.90979004,13.671494,-6.8988953,-0.08364868,-4.3626556,1.012619,-2.6260219,3.8591356,-9.892006
1570715273,-2.6156616,19.612701,0.8643036,1.9254456,-4.7695923,0.6589508,-4.5179973,12.383991,-1.4266195
1570715273,-0.0287323,16.850388,8.548492,6.041626,-1.6195984,-0.8047333,-2.4065635,10.769213,10.653172
1570715273,10.147827,9.586975,1.0624237,2.38031,10.603241,-1.5152588,8.919575,1.7907424,6.8592114
1570715273,10.147827,9.586975,1.0624237,2.38031,10.603241,-1.5152588,8.919575,1.7907424,6.8592114
1570715273,-1.5658112,4.5411987,-3.6074677,-0.28604126,2.7106934,-1.8753204,-0.8156917,-1.9474745,-2.2866144
1570715273,-2.2840729,2.692276,6.123169,-0.6226654,-2.805252,0.6568146,-5.9551353,-5.283566,4.802527
1570715273,-3.712204,0.22865295,0.5626373,-1.1829987,-0.9932251,0.75268555,-5.2932386,-7.1343913,1.2999308
1570715273,-3.712204,0.22865295,0.5626373,-1.1829987,-0.9932251,0.75268555,-5.2932386,-7.1343913,1.2999308
1570715273,-4.728546,12.483963,-9.504974,-4.26268,-2.614563,-0.05052185,-5.155894,4.0948114,-7.2264977
1570715273,-4.728546,12.483963,-9.504974,-4.26268,-2.614563,-0.05052185,-5.155894,4.0948114,-7.2264977
1570715273,-2.4019775,16.765991,2.7383728,-3.2006073,-2.805252,-3.2122345,-1.7638006,11.3433,4.622028
1570715273,-2.9987335,16.734879,1.7304077,-3.0631866,-2.7189636,-2.9959717,-3.1193419,9.40875,2.1087148
1570715273,10.161591,10.802032,-8.61554,0.48413086,-4.158127,-1.6707916,18.17206,7.98576,-6.024387
1570715273,10.161591,10.802032,-8.61554,0.48413086,-4.158127,-1.6707916,18.17206,7.98576,-6.024387
1570715273,-1.4221497,8.608353,10.682922,-2.763855,-0.18469238,0.2946167,-1.7988806,1.9229808,8.743757
1570715273,3.1477814,0.5859833,-1.146225,-0.7888489,-1.4917755,-0.5639801,2.5793724,-5.1008325,-3.9731886
1570715273,3.1477814,0.5859833,-1.146225,-0.7888489,-1.4917755,-0.5639801,2.5793724,-5.1008325,-3.9731886
1570715273,3.7804413,-4.975754,1.6945038,0.63327026,0.27870178,-0.53308105,2.6546378,-11.80721,-0.09401226
1570715273,1.9734192,-3.9558258,1.3628998,2.0032043,1.0595398,0.2434845,0.89552325,-11.774414,-1.8558521
1570715273,1.9734192,-3.9558258,1.3628998,2.0032043,1.0595398,0.2434845,0.89552325,-11.774414,-1.8558521
1570715273,-2.9472656,6.254257,12.54921,-0.80589294,3.1474457,-0.47555542,-0.8875554,-3.7119117,3.4695618
1570715273,4.139572,0.1478424,0.6589966,-0.13903809,2.8236084,0.79530334,1.7515819,-6.571174,1.5102961
1570715273,10.373474,19.440918,-3.1328125,0.025009155,6.9653625,0.8474884,16.26379,12.2938175,-8.290382
1570715273,9.040512,17.716492,-2.5905304,0.050582886,6.986664,0.932724,10.878056,12.194614,-5.8130403
1570715273,-0.049682617,9.1805725,-17.140686,-0.30203247,-1.4694061,1.4749298,-0.63241595,0.05486536,-17.887196
1570715273,0.20709229,10.621277,-17.140686,-0.30203247,-1.4694061,1.4749298,-0.63241595,0.05486536,-17.887196
1570715274,-0.28251648,19.612701,-0.8672943,1.3725739,-9.394974,1.668808,-2.0836005,12.256222,-4.9100056
1570715274,-3.470993,19.560028,9.506775,6.3654633,-1.4012299,-1.1125946,-5.1379232,12.041515,12.17183
1570715274,15.190613,9.496597,-3.055603,1.7965393,13.107681,-1.8987579,16.648376,2.922265,6.9011974
1570715274,12.064987,8.351578,-5.7969666,1.7965393,13.107681,-1.8987579,16.648376,2.922265,6.9011974
1570715274,-1.5993195,2.9987335,9.867111,-0.47673035,-2.1788635,1.2118225,-3.3900847,-4.5067925,11.423912
1570715274,-2.2756958,2.865265,9.11174,-0.44477844,-1.7900543,1.1798553,-3.3900847,-4.5067925,11.423912
1570715274,-5.261856,1.3180084,0.33039856,-1.348114,-0.701355,0.8176727,-7.231658,-5.486998,2.8447242
1570715274,-1.1947021,0.60095215,3.0424347,-2.75,-0.9793854,-0.63534546,-3.534236,-6.993938,3.5359993
1570715274,2.1446075,4.5920715,1.403595,-3.6384277,-1.4779205,-1.2223206,1.302865,-3.771224,0.87865245
1570715274,2.1446075,4.5920715,1.403595,-3.6384277,-1.4779205,-1.2223206,1.302865,-3.771224,0.87865245
1570715274,6.2159424,19.612701,3.9923248,-4.966812,-4.68544,-0.6673126,-1.0272149,12.2290325,-8.236716
1570715274,7.6392975,19.612701,-5.5216217,-0.23171997,1.7881775,-1.8146057,9.144281,12.357578,-6.652525
1570715274,7.6392975,19.612701,-5.5216217,-0.23171997,1.7881775,-1.8146057,9.144281,12.357578,-6.652525
1570715274,-4.1246185,9.727646,6.032196,-1.4525146,-2.3045654,-0.60020447,-5.828698,3.4921837,0.4410231
1570715274,-4.1246185,9.727646,6.032196,-1.4525146,-2.3045654,-0.60020447,-5.828698,3.4921837,0.4410231
1570715274,5.2121735,-0.58477783,0.51475525,0.9326172,-1.2691345,-0.57037354,4.459831,-6.568991,-3.0331142
1570715274,5.2121735,-0.58477783,0.51475525,0.9326172,-1.2691345,-0.57037354,4.459831,-6.568991,-3.0331142
1570715274,3.4135284,-7.7296753,3.4769745,2.5571442,1.8563538,0.40859985,3.8944178,-14.487499,1.9796286
1570715274,3.4135284,-7.7296753,3.4769745,2.5571442,1.8563538,0.40859985,3.8944178,-14.487499,1.9796286
1570715274,1.5891571,-3.9869385,-0.2735443,1.9435577,1.6635437,0.48744202,2.4181778,-13.224958,-2.8698988
1570715274,-3.5278625,19.580383,6.369171,0.21569824,5.3227234,-0.97410583,-8.252512,12.262228,16.14181
1570715274,-3.5278625,19.580383,6.369171,0.21569824,5.3227234,-0.97410583,-8.252512,12.262228,16.14181
1570715274,7.56987,19.612701,-12.898758,-1.1531677,6.8897247,2.6126404,2.9679081,12.155952,-15.900684
1570715274,2.6713257,3.7367554,-7.9828644,0.11343384,0.50239563,0.97213745,5.132105,-2.744309,-7.872821
1570715274,6.906082,18.904022,-4.90213,-0.17100525,-5.9530945,3.0611115,3.8391595,8.135262,-7.6346965
1570715274,6.906082,18.904022,-4.90213,-0.17100525,-5.9530945,3.0611115,3.8391595,8.135262,-7.6346965
1570715274,6.892914,19.612701,0.49620056,2.7424927,-6.3355255,1.4578857,6.5126915,12.1587,-0.2981962
1570715274,-0.6033325,15.434219,9.388855,3.9867249,-1.0827179,-0.39672852,-2.5769608,7.6070876,5.0289035
1570715274,-8.494629,6.760025,19.612701,7.3060913,2.2941742,-0.31044006,-7.8793726,2.6409354,20.254854
1570715274,-8.387482,0.6374512,1.8531189,-1.4067078,-1.7272034,0.42564392,-11.447324,-6.1096945,-0.30581295
1570715274,-8.387482,0.6374512,1.8531189,-1.4067078,-1.7272034,0.42564392,-11.447324,-6.1096945,-0.30581295
1570715274,-1.9895782,3.7229767,8.351578,-0.7153473,-1.4246674,0.5662689,-3.9990168,-2.9818068,10.460799
1570715274,-3.3027954,-0.22865295,0.03112793,-1.2266693,-1.4789886,0.04534912,-6.2309113,-7.0643578,-0.4875028
1570715275,0.16220093,8.849564,-4.7417145,-4.3947754,-0.7056122,-1.5386963,-2.141161,-1.1275945,-4.896714
1570715275,0.26576233,10.035889,-3.8983612,-4.5119476,-0.9420929,-1.6249847,-1.874392,0.9872441,-4.728248
1570715275,0.33998108,19.612701,5.598236,-3.318863,-4.4681244,-3.6915894,0.80988103,12.088051,6.0572653
1570715275,-0.23103333,19.612701,4.5513763,-3.271988,-4.242279,-3.5978546,-0.2850001,12.076729,4.6896176
1570715275,6.5008545,14.156311,-2.542038,-1.5856628,1.591095,-1.786911,12.716229,11.479736,-9.36463
1570715275,5.735916,13.6475525,-3.2028503,-1.6389313,1.1341095,-1.6420288,7.4526644,7.499559,-6.267024
1570715275,-1.467041,14.699799,-9.52533,-1.7252197,-2.8936615,-1.0039368,0.6656746,7.140656,-12.367669
1570715275,0.47045898,5.1840515,2.9652252,-1.8189697,-1.8049622,-0.52989197,-2.4107747,0.20072174,3.8344584
1570715275,5.391739,-8.656235,3.047821,1.312912,-0.39242554,-0.27955627,5.821224,-14.429045,0.021089554
1570715275,5.391739,-8.656235,3.047821,1.312912,-0.39242554,-0.27955627,5.821224,-14.429045,0.021089554
1570715275,1.6208801,-8.054092,1.0797882,2.38031,2.290985,0.7143402,2.1664228,-15.762356,-2.1460845
1570715275,1.6208801,-8.054092,1.0797882,2.38031,2.290985,0.7143402,2.1664228,-15.762356,-2.1460845
1570715275,-0.8319855,5.716156,6.7145386,-0.1954956,3.119751,0.14974976,-1.1384721,-1.9790149,4.9226
1570715275,-0.8319855,5.716156,6.7145386,-0.1954956,3.119751,0.14974976,-1.1384721,-1.9790149,4.9226
1570715275,9.314636,17.838593,-0.33758545,0.13685608,2.912033,0.95402527,10.919769,12.197399,-3.828401
1570715275,9.314636,17.838593,-0.33758545,0.13685608,2.912033,0.95402527,10.919769,12.197399,-3.828401
1570715275,1.1043243,3.949829,-5.771225,-0.5363922,-0.025970459,1.3130188,0.86049795,-3.9685893,-7.332527
1570715275,1.2378082,15.269028,-4.1880646,-1.3513184,-3.9344177,1.7849274,0.13080055,6.6561236,-8.609671
1570715275,6.311722,19.612106,3.2345734,1.7869568,-6.011688,1.748703,4.9683332,12.335545,0.6277975
1570715275,-0.8421631,14.081497,16.845001,4.1699524,-2.884079,-0.865448,0.46618116,9.02407,2.0043693
1570715275,-0.8421631,14.081497,16.845001,4.1699524,-2.884079,-0.865448,0.46618116,9.02407,2.0043693
1570715275,-3.863037,2.2421722,-7.539337,-0.5587616,5.854294,-1.8476257,-0.3367567,-3.8859696,-4.454042
1570715275,-3.863037,2.2421722,-7.539337,-0.5587616,5.854294,-1.8476257,-0.3367567,-3.8859696,-4.454042
1570715275,-4.6507416,3.6308136,3.59729,-1.3385315,-2.042511,0.4853058,-6.0017576,-2.6501136,5.504948
1570715275,-4.6507416,3.6308136,3.59729,-1.3385315,-2.042511,0.4853058,-6.0017576,-2.6501136,5.504948
1570715275,1.7657166,3.1489716,4.2006226,-3.0621338,1.2843018,-1.4886322,-0.40511763,-4.675556,5.3373957
1570715275,2.4684296,6.257843,-1.1875305,-3.5755768,0.5428772,-1.9924927,1.1157732,-2.5743756,0.6833704
1570715275,1.6262665,19.612106,2.3936005,-4.646179,-5.91156,-2.1192627,-3.0939565,12.165445,-4.0634093
1570715275,-0.423172,19.612701,5.612015,-3.927124,-5.621811,-2.4058228,0.44552118,12.184806,5.17311
1570715275,14.520233,19.612701,4.976349,-2.6722412,4.0966034,-0.4382782,10.66194,12.34138,2.0633895
1570715275,18.207901,19.612701,1.8363495,-1.8168335,4.232956,-1.2510681,17.741253,12.359585,0.08740044
1570715275,-0.19692993,11.58374,1.3964233,-0.5960388,-2.249176,-0.69607544,0.057747193,3.6162,-3.0275362
1570715275,-1.52211,5.542572,-2.637207,-0.4841919,-0.6321106,-0.46385193,-4.5488367,-1.1199346,-2.7174017
1570715276,5.725128,1.4155731,0.5632324,0.19970703,-1.2073517,-0.4297638,4.367734,-5.027851,-3.3379762
1570715276,4.610031,-5.699402,2.533661,1.9297028,-0.20599365,-0.17622375,5.3177595,-12.704906,-0.7343905
1570715276,4.610031,-5.699402,2.533661,1.9297028,-0.20599365,-0.17622375,5.3177595,-12.704906,-0.7343905
1570715276,2.896988,-6.6145782,1.0947418,2.8149414,1.190567,0.18595886,3.3038297,-13.473174,-0.5919509
1570715276,2.905365,-3.2405548,2.2122498,2.2950897,2.5200195,0.40541077,3.0419848,-12.577307,0.32826674
1570715276,5.6275635,7.633911,3.7541046,-0.051696777,3.5447998,-0.23054504,3.9927747,-0.5160899,5.0768213
1570715276,5.6275635,7.633911,3.7541046,-0.051696777,3.5447998,-0.23054504,3.9927747,-0.5160899,5.0768213
1570715276,5.783798,10.030502,-2.3295593,-0.4884491,3.4041748,0.45440674,8.293575,5.622439,-3.341076
1570715276,5.783798,10.030502,-2.3295593,-0.4884491,3.4041748,0.45440674,8.293575,5.622439,-3.341076
1570715276,-0.48243713,19.612701,-5.4480133,-0.59284973,-4.369049,2.2302094,-1.8933538,10.097673,-10.672595
1570715276,-0.48243713,19.612701,-5.4480133,-0.59284973,-4.369049,2.2302094,-1.8933538,10.097673,-10.672595
1570715276,2.9694061,19.612701,-2.8556824,3.9760742,-8.2625885,1.7061005,0.99628234,12.1723385,-3.1189826
1570715276,2.5408478,19.612701,3.3632507,4.055969,-7.39653,-0.12615967,1.1837215,12.087193,1.3427552
1570715276,-0.9067993,8.449738,19.612701,8.903992,5.3855743,-0.4574585,-6.145794,1.7262144,21.194109
1570715276,12.086533,7.914032,-3.4524384,0.79945374,13.582779,-1.3959503,13.517965,2.5885658,-1.3026848
1570715276,-3.4877472,2.676117,0.18075562,-1.4205475,-1.372467,0.97958374,-5.140692,-3.626307,5.8591523
1570715276,-3.589508,2.4498596,-0.41838074,-1.4397278,-1.341568,0.90289307,-5.5018644,-4.289148,2.403273
1570715276,-0.8200073,2.6898804,5.0224304,-2.3995361,0.934906,-0.85266113,-5.167549,-5.3000603,7.970505
1570715276,-0.8200073,2.6898804,5.0224304,-2.3995361,0.934906,-0.85266113,-3.92831,-4.7583933,6.830866
1570715276,2.5001526,6.095642,-1.0336914,-3.75029,-0.7524872,-2.0500183,0.9248917,-2.536344,-1.6158414
1570715276,1.0426788,19.612701,6.1602783,-3.8546906,-7.200531,-3.4753418,2.5944397,12.223261,5.8583755
1570715276,-0.5093689,19.612701,5.6000366,-3.7854462,-6.935272,-3.4178162,2.5944397,12.223261,5.8583755
1570715276,19.612701,19.612701,-0.4632721,-0.27220154,4.1019287,-1.7315063,19.195406,12.299978,0.11736393
1570715276,14.640549,15.576675,-0.64105225,0.34140015,2.164215,-2.3046265,19.286526,12.253162,-3.5458624
1570715276,-5.0535583,5.9950867,7.360977,-0.7526398,-1.3937683,-0.4574585,-7.362317,-0.3552704,-0.5672114
1570715276,-5.0535583,5.9950867,7.360977,-0.7526398,-1.3937683,-0.4574585,-7.362317,-0.3552704,-0.5672114
1570715276,4.76326,-4.276642,0.6572113,1.0018616,-0.3583374,0.11672974,5.030301,-10.621553,-1.9082792
1570715276,4.7255554,-4.5400085,0.7164612,1.0828247,-0.338089,0.1614685,4.949191,-11.457655,-1.6506984
1570715276,3.7612915,-4.3466797,-1.6585846,1.1243591,0.6824341,0.6131439,3.5511787,-11.808598,-3.6489258
1570715276,3.8714294,-4.268265,-0.10354614,0.8910675,0.82943726,0.43203735,3.9980717,-11.661066,-1.9658309
1570715276,1.1168976,-1.0522461,3.186676,0.3850708,1.7359772,-0.02708435,1.7617805,-8.876827,0.6312895
1570715276,-0.854126,7.080246,9.506775,-0.22853088,3.6214905,0.10501099,-1.7117641,-1.3324547,8.983219
1570715276,14.119812,19.612701,-1.4095917,-1.2426605,2.9525146,0.6429596,18.233978,12.291194,-8.417164
1570715276,14.119812,19.612701,-1.4095917,-1.2426605,2.9525146,0.6429596,18.233978,12.291194,-8.417164
1570715277,-1.3371582,-0.61291504,-9.669586,-1.1606293,-0.9165344,1.3428497,-0.9170903,-7.632923,-9.742653
1570715277,0.97624207,19.612701,1.9973602,3.047165,-4.828186,0.98065186,1.4708701,12.327206,0.6657864
1570715277,0.97624207,19.612701,1.9973602,3.047165,-4.828186,0.98065186,1.4708701,12.327206,0.6657864
1570715277,-2.6396027,17.107162,16.784546,6.2408295,0.4832306,-0.022827148,-3.4552903,11.996825,18.139095
1570715277,-4.282028,11.727402,14.155716,8.06456,3.1783447,-0.19966125,-5.7982817,5.1738772,14.538144
1570715277,5.6814423,9.376297,-1.8171997,0.5565796,6.319809,-0.85266113,5.5875025,3.8340063,0.95899963
1570715277,-2.2206268,1.7357941,10.2447815,-0.35209656,-0.55433655,0.35214233,-4.5729303,-3.8865476,8.770632
1570715277,-4.775833,0.36212158,-2.1769257,-1.381134,-0.93144226,0.90715027,-6.8412075,-6.590571,-0.93788433
1570715277,-4.775833,0.36212158,-2.1769257,-1.381134,-0.93144226,0.90715027,-6.8412075,-6.590571,-0.93788433
1570715277,0.8750763,7.521988,-2.328354,-3.8216553,-1.2531586,-0.82603455,-1.6306466,-1.3764825,-2.2435946
1570715277,0.8535309,8.486252,-2.3738556,-3.9324493,-1.357544,-0.8835602,-1.6306466,-1.3764825,-2.2435946
1570715277,-0.087387085,13.779831,-5.588669,-4.531128,-3.0555878,-1.3256378,-2.5379224,4.5118628,-6.558281
1570715277,-1.7357941,19.612701,5.8167114,-3.4211273,0.42677307,-0.23588562,-3.1095877,12.201109,3.5302563
1570715277,-1.2503662,19.612701,6.1321564,-3.2975464,1.0765839,0.077316284,-3.1095877,12.201109,3.5302563
1570715277,1.830368,10.63205,5.9561768,-1.2671509,0.101867676,-0.69181824,2.0536368,3.2345686,3.7701342
1570715277,1.4742279,13.5212555,-1.4048004,-1.0626221,0.19560242,-0.47769165,0.61950517,4.153679,0.008913517
1570715277,4.596863,2.7329865,-3.0382385,-0.3819275,-0.42970276,-1.0785065,3.7190185,-3.8062453,-4.481591
1570715277,4.6992188,2.2421722,-3.648758,-0.29563904,-0.62464905,-1.0912933,3.7190185,-3.8062453,-4.481591
1570715277,4.656723,-2.9861755,0.5776062,0.025009155,-1.4779205,-0.5831604,3.920323,-9.454029,-4.2344513
1570715277,3.2088318,-6.712738,3.6595306,1.1616516,0.12742615,-0.18687439,3.2948332,-13.752485,0.9405472
1570715277,1.0642242,-0.8816681,5.127777,0.52249146,1.0254517,0.58010864,1.098436,-9.01229,1.9808894
1570715277,1.0642242,-0.8816681,5.127777,0.52249146,1.0254517,0.58010864,1.098436,-9.01229,1.9808894
1570715277,5.561737,16.098007,-5.905899,0.80052185,2.0555573,-0.7397461,10.53523,8.447151,-5.4765606
1570715277,5.561737,16.098007,-5.905899,0.80052185,2.0555573,-0.7397461,10.53523,8.447151,-5.4765606
1570715277,-0.72065735,2.5845337,-6.1483154,-0.16461182,4.443878,1.3630829,0.8932966,-1.2531953,-7.5147343
1570715277,-0.72065735,2.5845337,-6.1483154,-0.16461182,4.443878,1.3630829,0.8932966,-1.2531953,-7.5147343
1570715277,-0.09397888,18.790298,-10.051453,-1.7124329,-4.4095306,2.320755,-1.4846141,5.416059,-14.609407
1570715277,2.0548248,19.612701,8.874115,5.5239105,-6.197052,0.5108795,0.4854207,12.315344,7.5262136
1570715277,2.0548248,19.612701,8.874115,5.5239105,-6.197052,0.5108795,0.4854207,12.315344,7.5262136
1570715277,0.24958801,15.076294,11.449066,6.2536163,-0.12397766,-1.0348206,-1.3183374,7.8501406,12.26641
1570715277,11.0390625,7.4705048,12.900558,4.2061768,12.153198,-1.0902252,5.8245325,0.61337566,19.39597
1570715277,-5.151123,0.49440002,8.152863,-1.0349274,-3.3613129,-0.14852905,-6.8469663,-6.775699,7.7790074
1570715277,-5.151123,0.49440002,8.152863,-1.0349274,-3.3613129,-0.14852905,-6.8469663,-6.775699,7.7790074
1570715278,-5.163101,0.5009918,3.4751892,-1.58461,-2.0041656,0.50660706,-7.0313673,-6.6096144,3.1342916
1570715278,-5.163101,0.5009918,3.4751892,-1.58461,-2.0041656,0.50660706,-7.0313673,-6.6096144,3.1342916
1570715278,2.676117,11.694473,-4.4172974,-4.0464325,-0.2922821,-1.9104767,0.99941623,0.32541227,-3.238957
1570715278,2.676117,11.694473,-4.4172974,-4.0464325,-0.2922821,-1.9104767,0.99941623,0.32541227,-3.238957
1570715278,0.04548645,19.612701,7.3340454,-4.3020935,-5.655899,-2.9086304,-0.22092724,12.281417,2.5255733
1570715278,14.492706,19.612701,2.568985,-2.6093903,2.639328,-0.73228455,11.507074,12.378182,0.24921465
1570715278,14.492706,19.612701,2.568985,-2.6093903,2.639328,-0.73228455,11.507074,12.378182,0.24921465
1570715278,3.3183594,11.601105,0.16699219,-0.94970703,0.44807434,-1.2979431,5.501886,5.996841,-1.3586767
1570715278,1.632843,4.0108795,1.9967651,-0.47779846,-0.5053406,-0.77171326,-0.04098794,-2.616548,0.59253645
1570715278,1.632843,4.0108795,1.9967651,-0.47779846,-0.5053406,-0.77171326,-0.04098794,-2.616548,0.59253645
1570715278,5.292984,-6.0974274,0.111328125,1.2745667,-0.9665985,-0.164505,5.875578,-12.061417,-1.0569746
1570715278,4.9392395,-6.5008545,0.40940857,1.3352814,-0.9793854,-0.10272217,5.272399,-13.037646,-2.3539193
1570715278,2.6677399,-5.657501,1.9357147,2.3430176,0.7601929,0.78038025,2.654335,-13.040489,0.09645343
1570715278,0.34954834,4.05159,8.264191,0.09638977,3.022812,0.28396606,-0.014047444,-4.14333,5.517889
1570715278,0.34954834,4.05159,8.264191,0.09638977,3.022812,0.28396606,-0.014047444,-4.14333,5.517889
1570715278,8.26358,17.186783,2.6360168,-0.1720581,3.213501,-0.23268127,4.5447974,7.236871,7.226653
1570715278,6.5313873,16.044739,-0.8373718,-1.1446533,3.323227,1.2352448,6.3532834,10.649884,-4.007821
1570715278,3.3016052,4.273056,-4.906311,-0.97953796,2.7341309,1.3875885,3.5909276,-1.3715901,-6.56954
1570715278,-1.3575134,9.364319,-6.1692657,0.4905243,-2.966095,1.6443176,-2.1036453,-0.4276805,-7.411237
1570715278,1.7483673,19.060837,-7.052124,1.868988,-4.8377686,1.9585724,-0.227386,9.65113,-8.718102
1570715278,-0.4297638,16.142303,-0.077804565,2.8959045,-4.350937,0.5875702,-1.8456721,9.0463915,-0.9644299
1570715278,-0.4297638,16.142303,-0.077804565,2.8959045,-4.350937,0.5875702,-1.8456721,9.0463915,-0.9644299
1570715278,5.4210663,8.0546875,2.732376,6.666931,10.068481,0.28396606,1.0837865,0.5196805,19.95535
1570715278,-7.5722656,3.016098,1.9081726,-1.202179,-4.795166,0.8176727,-12.824767,-5.080779,-1.687884
1570715278,-7.5722656,3.016098,1.9081726,-1.202179,-4.795166,0.8176727,-12.824767,-5.080779,-1.687884
1570715278,-1.1761475,-1.1504211,-1.0211334,-1.2714233,-0.45632935,-0.62683105,-3.5006506,-7.754792,0.9908135
1570715278,-1.1761475,-1.1504211,-1.0211334,-1.2714233,-0.45632935,-0.62683105,-3.5006506,-7.754792,0.9908135
1570715278,0.2454071,9.5720215,-5.4264526,-3.737503,-1.0539551,-0.8878174,-1.6273813,-1.4543328,-3.625395
1570715278,0.2454071,9.5720215,-5.4264526,-3.737503,-1.0539551,-0.8878174,-1.6273813,-1.4543328,-3.625395
1570715278,-2.3211823,16.796524,0.20709229,-2.8352203,-3.221756,-3.8524475,-1.0023198,10.736593,0.7452412
1570715278,-2.8467102,17.226883,-0.41479492,-2.8352203,-3.221756,-3.8524475,-2.8056655,9.278625,-0.36389333
1570715278,19.539078,19.612701,-1.6388245,-0.45436096,-0.36898804,0.28929138,17.110008,12.017361,0.60261405
1570715278,19.612701,19.311035,-1.9949646,-0.11987305,-1.2041473,-0.21350098,18.967304,12.005526,-2.016002
1570715279,-1.1815338,12.603073,0.020355225,-2.2131042,-1.3458252,0.079437256,-2.8669899,3.6790757,-2.8388991
1570715279,-2.691681,13.71698,2.331955,-1.4876709,-0.98257446,-0.96559143,-1.9393337,8.778232,3.6530838
1570715279,4.6034546,-2.7898407,2.5091248,-0.5651398,-0.1857605,-0.09100342,4.356873,-9.461337,0.2599814
1570715279,4.4370575,-3.304596,2.2517395,-0.4937744,-0.13676453,-0.09207153,4.356873,-9.461337,0.2599814
1570715279,0.84695435,-9.542694,3.1561584,0.83354187,0.99775696,0.80807495,0.45312637,-17.073748,0.026240349
1570715279,0.93733215,-9.542694,3.1561584,0.83354187,0.99775696,0.80807495,0.45312637,-17.073748,0.026240349
1570715279,1.7561493,-0.9900055,1.4089813,1.1584473,4.9434814,0.5620117,1.022286,-8.984514,-1.0253036
1570715279,1.7561493,-0.9900055,1.4089813,1.1584473,4.9434814,0.5620117,1.022286,-8.984514,-1.0253036
1570715279,9.64743,19.612701,-7.4615326,0.09638977,5.764801,1.3492279,13.995768,12.299719,-12.002176
1570715279,9.64743,19.612701,-7.4615326,0.09638977,5.764801,1.3492279,13.995768,12.299719,-12.002176
1570715279,-0.2633667,4.7345276,-9.252991,0.3371277,0.65153503,2.131134,-1.0364572,-0.4338293,-10.860381
1570715279,1.9231415,19.612701,-3.1675262,-1.092453,-4.7749176,1.8328705,0.019222617,9.476932,-7.482599
1570715279,2.1607666,19.612701,11.326965,1.1073151,-5.8082275,1.2150116,1.2483084,12.340891,2.2717495
1570715279,-2.4636383,10.9049835,13.049591,4.816574,0.048599243,-1.3991547,-3.2432647,4.6447997,11.501056
1570715279,-2.4636383,10.9049835,13.049591,4.816574,0.048599243,-1.3991547,-3.2432647,4.6447997,11.501056
1570715279,9.13208,8.325241,14.946396,5.454666,10.424271,-1.1168518,4.603541,0.25798082,21.54872
1570715279,-6.0854645,0.73262024,3.138794,-0.95077515,-3.0704956,1.1191406,-10.103237,-6.980739,2.6267319
1570715279,-4.6435547,1.2348022,4.300583,-0.9017639,-3.3080444,1.2139435,-10.103237,-6.980739,2.6267319
1570715279,-0.628479,0.15621948,2.7090454,-2.175827,-0.4840393,-0.5096588,-3.34588,-6.6440544,4.05217
1570715279,-0.628479,0.15621948,2.7090454,-2.175827,-0.4840393,-0.5096588,-3.34588,-6.6440544,4.05217
1570715279,2.2481537,-0.037704468,1.1647797,-2.8181763,-0.35620117,-0.6598511,-0.34600425,-7.794683,2.946064
1570715279,-2.5605927,11.249756,-6.9515686,-4.053894,-3.0417328,-1.0188446,-3.116415,2.2714005,-6.1051545
1570715279,-2.7120361,19.612701,7.079651,-3.5063477,-3.5402832,-1.6388245,-2.7758746,12.180036,6.2939806
1570715279,-1.9812012,19.612701,7.9248047,-3.5297852,-0.17936707,-0.3221588,-3.5326238,12.193054,5.904182
1570715279,12.911331,17.367538,-0.36212158,-1.1286774,2.2984314,-1.4747772,18.563814,12.22603,0.04411435
1570715279,1.2785034,11.520905,0.2956848,-1.6144257,0.0059814453,-0.57463074,2.973649,4.7391105,-1.2578886
1570715279,5.2558746,5.273834,-1.3251953,-0.7536926,-0.26991272,-0.44892883,3.2966938,-1.8161144,-4.8306637
1570715279,5.8969116,5.00148,-0.54408264,-0.6152191,-0.3807068,-0.52882385,3.2966938,-1.8161144,-4.8306637
1570715279,4.799774,-2.3906097,-0.43215942,0.15496826,-0.8089447,-0.5671692,4.9935036,-7.2953467,-3.8034637
1570715279,2.3032227,-7.355591,3.7565002,1.9062653,0.7293091,0.46826172,1.8154802,-14.430363,2.4403207
1570715279,2.070984,-7.554306,2.5875397,2.0000153,0.8464813,0.4948883,1.8154802,-14.430363,2.4403207
1570715279,-0.38127136,-2.2122498,4.6621094,1.615448,2.3772736,0.45228577,-0.5503135,-11.341251,1.7528491
1570715279,-0.74938965,3.6864777,6.506836,0.22314453,5.4526825,-0.10058594,-1.6687863,-3.7089567,4.4480777
1570715280,7.285553,15.244476,-0.4519043,0.8868103,4.186081,-0.023895264,7.752092,4.5805593,-2.2010098
1570715280,3.5236664,10.111908,-3.095108,0.031402588,1.7050781,0.07836914,6.8279643,6.762525,-6.7528706
1570715280,-2.269699,1.5951385,-0.6578064,-0.6599579,1.0126648,2.256836,-1.9094685,-5.9146914,-1.8902122
1570715280,-2.269699,1.5951385,-0.6578064,-0.6599579,1.0126648,2.256836,-1.9094685,-5.9146914,-1.8902122
1570715280,5.126587,19.612701,1.7705078,1.8892212,-8.505478,1.0296631,4.144267,12.428016,-0.9733584
1570715280,5.126587,19.612701,1.7705078,1.8892212,-8.505478,1.0296631,4.144267,12.428016,-0.9733584
1570715280,-1.2282257,8.467087,18.6622,7.8941193,4.3501434,-2.0191345,-4.674552,3.8135157,19.469778
1570715280,-1.2282257,8.467087,18.6622,7.8941193,4.3501434,-2.0191345,-4.674552,3.8135157,19.469778
1570715280,10.950485,6.5672913,3.0035248,1.3310242,14.854706,-1.981842,9.665351,1.3853679,0.13454938
1570715280,-8.6436615,0.5674286,-7.7422485,0.75897217,3.9293518,-1.4939575,-8.380833,-5.747626,-3.7663941
1570715280,-2.3672638,2.7826538,3.3530731,-1.8977966,-3.0694275,1.2618866,-4.672364,-4.428231,3.525226
1570715280,-2.3672638,2.7826538,3.3530731,-1.8977966,-3.0694275,1.2618866,-4.672364,-4.428231,3.525226
1570715280,-0.29148865,7.9589233,-4.490326,-2.605133,-1.2552795,0.1572113,-3.5353708,-0.52375555,-0.5732521
1570715280,-0.29148865,7.9589233,-4.490326,-2.605133,-1.2552795,0.1572113,-3.5353708,-0.52375555,-0.5732521
1570715280,2.771881,12.904144,8.222885,-5.9777527,-6.241791,-0.55758667,1.6851845,7.861494,6.877764
1570715280,2.771881,12.904144,8.222885,-5.9777527,-6.241791,-0.55758667,1.6851845,7.861494,6.877764
1570715280,13.709198,19.594147,-6.079483,-0.710022,7.1389923,-1.6452179,9.879501,12.44788,-0.572057
1570715280,13.902527,18.67836,-9.788696,-0.65037537,7.064438,-1.6729126,11.938892,12.420822,-6.9468384
1570715280,-0.85113525,8.47966,-9.539703,-2.012848,-1.8678131,-1.0454865,-2.0992515,0.65400505,-13.029211
1570715280,3.4751892,0.41719055,4.818924,-0.44371033,-3.0172272,-0.3690338,0.023638964,-5.582652,-1.3119912
1570715280,3.4751892,0.41719055,4.818924,-0.44371033,-3.0172272,-0.3690338,0.023638964,-5.582652,-1.3119912
1570715280,2.6575623,-5.5282135,1.9716187,2.379242,1.8041534,0.13163757,1.6716611,-13.251671,0.20486164
1570715280,2.6575623,-5.5282135,1.9716187,2.379242,1.8041534,0.13163757,1.6716611,-13.251671,0.20486164
1570715280,-0.9505005,7.107193,1.8171997,1.1754913,2.6371918,0.8421631,-1.2372203,-1.1575708,-0.4879595
1570715280,-0.9505005,7.107193,1.8171997,1.1754913,2.6371918,0.8421631,-1.2372203,-1.1575708,-0.4879595
