time,ax,ay,az,gx,gy,gz,la_x,la_y,la_z,fox,foy,foz
1570715598,-0.25857377,10.773908,3.6104562,0.8703476,1.1196271,2.3383267,-0.31124622,1.0821792,1.9440918
1570715598,1.067814,8.197746,-0.59376204,0.936396,0.81921333,2.234993,0.6847417,-1.460463,-2.2361844
1570715598,0.34476504,8.825027,1.7286136,1.2346791,1.7311075,2.5109048,-0.62728083,-0.8379706,0.37349546
1570715598,0.60333884,9.481039,3.9839516,1.636296,0.6956389,2.7282255,-1.1300632,-0.11971009,3.0119057
1570715598,2.1547816,8.930372,-0.5650316,1.9526893,0.3185238,1.9473628,-0.21068975,-0.5746084,-1.0295067
1570715598,1.5705963,10.0029745,0.7374141,2.1849241,0.50388545,2.2935843,-1.2689269,0.7230489,0.9864111
1570715598,4.343082,9.284714,-0.91458505,2.2573643,0.026632423,2.2946496,0.6991069,0.20590134,-0.21068975
1570715598,5.0421886,8.149862,-1.4748282,2.245646,0.06604841,1.8248537,0.8523358,-0.61770403,-0.17717093
1570715598,5.6886234,8.628703,-2.1787236,2.2541683,-0.043677174,1.6501449,1.067814,0.1340753,-0.34476504
1570715598,6.483498,7.5848308,-3.5338416,2.2935843,-0.32385027,1.2314832,1.3503298,-0.21068975,-1.3790601
1570715598,6.9000893,6.5122285,-3.8307228,2.3990488,0.0063917814,0.8266704,1.7525556,-1.2449849,-0.7517793
1570715598,6.9144545,6.167464,-5.463568,-0.17790459,1.0375992,0.47618774,1.5993267,-1.3790601,-2.1499932
1570715599,5.674258,6.9958572,-3.098097,-0.04261188,0.36220095,0.1747087,0.25378537,-0.545878,0.047884032
1570715599,6.2632318,6.1530986,-3.3854012,0.47938362,0.6210681,0.42611876,0.7182605,-1.3072342,-0.25378537
1570715599,6.5265937,6.2584434,-2.4708161,0.4570124,0.54223615,0.40268224,0.79487497,-1.0869676,0.4357447
1570715599,6.579266,5.78918,-2.3319526,0.28549957,0.12996623,-0.014914157,0.92895025,-1.292869,0.6512229
1570715599,5.4539914,6.909666,-2.657564,0.41013932,0.12890093,-0.122509144,-0.18195933,-0.545878,0.6512229
1570715599,5.133168,6.7947445,-1.3072342,0.6413088,0.25141007,0.33556855,-0.272939,-0.51714754,1.5849615
1570715599,4.2281604,5.841852,-1.7621324,1.0333381,-0.33343795,0.25034478,-1.5610195,-1.2593501,1.733402
1570715599,3.715801,6.8809357,-3.7493198,1.0493175,0.04154658,0.52945256,-2.0590134,0.07182605,0.062249243
1570715599,3.8307228,6.349423,-1.460463,0.2098635,0.15553336,0.82027864,-2.111686,-0.19632454,1.7525556
1570715599,0.866701,6.9288197,0.35434186,-0.6700718,-0.6785942,0.46873066,-4.8698063,0.02873042,3.3518825
1570715599,0.23942018,5.9184666,-3.6487634,-0.32278496,0.54117084,-0.07776668,-5.884948,-0.79966336,0.019153614
1570715599,0.79008657,6.9719152,-3.4093432,0.5592809,3.6869926,-0.028763017,-5.463568,0.1340753,-0.9528923
1570715599,1.8914193,6.7229185,-0.6943185,-0.04793836,4.201531,-0.9747467,-5.48751,-0.10055647,1.8722657
1570715599,4.936844,8.015787,-1.6807296,-0.71587956,2.389461,-2.1923811,-2.1021092,0.79008657,0.7326257
1570715599,7.8865004,8.470686,-3.6487634,-0.7925809,1.4551957,-2.4459217,1.7621324,0.91937345,-2.336741
1570715599,10.70687,9.351752,-5.1666875,-0.67326766,0.88952297,-1.7588053,4.912902,1.1109096,-3.8402996
1570715599,9.935937,9.715671,-5.6407394,-0.7041613,1.0919293,-0.9736814,4.5920787,1.5131354,-5.032612
1570715599,10.146626,6.885724,-3.289633,0.3781804,0.3163932,-0.6903124,4.975151,-1.4317327,-2.8491
1570715599,10.6158905,8.532935,-2.0254946,1.3934084,-1.2133732,-0.67539823,5.631162,0.11971009,-1.2210429
1570715599,9.595961,9.749189,-2.6623523,0.8703476,-1.6842345,-0.12357444,4.76925,1.316811,-1.3263878
1570715599,8.949526,8.872911,-2.8874073,0.28549957,-1.2037855,0.3494174,4.1611223,0.7565677,-1.5227122
1570715599,7.704541,7.465121,-2.8299465,0.99285674,-1.6916915,0.4175964,2.8538885,-0.81881696,-0.81881696
1570715599,5.511452,6.9288197,-2.5617957,1.7822418,-1.1633042,0.5443667,0.6464345,-1.1779473,0.033518825
1570715599,6.5840545,7.7811556,6.081272,1.2336138,0.012783563,0.63811284,0.61770403,-0.5363012,5.2720323
1570715599,7.8386164,4.5058875,-1.2449849,-1.2836828,-0.8703476,0.27165073,2.360683,-3.3806129,2.72939
1570715599,8.868123,8.360553,-3.2369606,-0.506016,-1.2059162,0.04154658,3.8642416,0.48841715,-0.20111294
1570715599,6.9719152,8.331821,-3.0023289,-0.419727,-0.81069094,0.39309457,2.0015526,0.45968673,0.090979666
1570715599,6.2728086,8.566454,-1.3024458,-0.76168734,-0.30041373,0.33130735,1.2545617,0.6991069,1.7238252
1570715599,5.7365074,7.129933,-3.1364043,-0.9023065,-0.15766394,0.23756121,0.6751649,-0.7757214,-0.30645782
1570715599,6.3781533,7.575254,-2.0973208,-0.1725781,-0.23436533,0.029828314,1.292869,-0.34955344,0.6464345
1570715599,7.675811,11.568783,-4.4915223,-0.04900366,0.26952013,0.42079228,2.5234885,3.6774938,-1.7669208
1570715599,5.7987566,7.201759,-4.189853,-0.6253293,0.02769772,0.043677174,0.5554548,-0.6607997,-1.5801731
1570715599,6.1195793,8.508993,-3.8259344,0.12677033,-0.15872924,0.19707993,0.8619126,0.641646,-1.2354081
1570715600,4.3239284,6.315904,-1.2401965,-0.091615535,-0.22477765,0.3504827,-1.0247183,-1.4652514,1.3838485
1570715600,3.6822822,5.305551,-3.217807,-0.57632565,-0.5496932,0.011718267,-1.685518,-2.4756045,-0.61291564
1570715600,4.735731,5.4444146,-2.4947581,-0.19281875,0.36646214,-0.0010652969,-0.63206923,-2.360683,0.02873042
1570715600,5.070919,5.161899,-1.1300632,-0.5347791,0.4112046,-0.204537,0.033518825,-2.6862943,1.2258313
1570715600,4.5202527,10.357317,-2.992752,-0.5582156,-0.11185618,-0.41653112,-0.79487497,2.4229321,-0.770933
1570715600,4.8602295,5.9041014,-5.765238,-0.6903124,-0.419727,-1.2751604,-0.6607997,-1.7525556,-3.4141316
1570715600,4.711789,6.727707,-1.8579005,-0.113986775,0.39629045,-1.2858135,-0.29688102,-1.6089035,-0.31124622
1570715600,5.0996494,7.493851,-1.0965444,-0.771275,0.4538165,-1.503134,0.33039984,-1.4173675,0.82360536
1570715600,5.1475334,12.5264635,-2.6862943,-1.2229608,0.1384886,-1.2261568,1.091756,3.7205894,-1.1779473
1570715600,4.1276035,13.378799,-0.80445176,-1.0088362,0.6253293,-0.7957768,0.009576807,4.333505,0.34955344
1570715600,5.0278234,12.966996,-0.842759,-0.16512102,-0.31106672,-0.87460876,1.5945383,3.916914,0.5602432
1570715600,2.3319526,9.504981,-1.6089035,0.28123838,-0.5358444,-0.25993246,-0.5602432,2.2218192,-1.1204864
1570715600,6.0285997,7.7332716,-4.261679,-0.4133352,-0.17683929,0.12890093,1.7238252,-1.7764976,-2.327164
1570715600,4.5633483,8.7532015,0.47884035,-0.90869826,0.36539686,-0.3451562,1.1109096,-0.36870706,1.4652514
1570715600,3.6343982,9.126697,-0.5746084,0.094811425,-0.0010652969,-0.22264706,0.35434186,-0.18674773,0.50278234
1570715600,3.4380736,9.337387,-1.6472107,-0.028763017,0.1054644,-0.27058542,-0.095768064,0.24899697,-0.31124622
1570715600,3.8642416,8.858546,-0.93373865,-0.32811147,0.25460598,-0.2087982,0.5793968,-0.33518824,-0.272939
1570715600,3.1172507,9.169792,-0.39743748,-0.30147904,0.12463974,-0.21838588,-0.062249243,-0.08619126,0.33518824
1570715600,2.006341,6.181829,-2.3223755,-0.2759119,0.09055024,-0.0031958907,-2.1739352,-0.9768343,-0.7230489
1570715600,2.4420857,5.142745,0.25857377,-0.6572882,-0.15020686,0.08309316,-0.79008657,-4.098873,0.78529817
1570715600,3.8355112,7.350199,-0.62249243,-0.5315832,0.116117366,-0.120378554,0.48362875,-2.6431987,-0.51714754
1570715600,2.6240451,7.1969705,0.22505496,-0.7052266,-0.0074570784,-0.22797355,-0.5793968,-2.111686,0.45968673
1570715600,4.1802764,9.706094,-0.1436521,-0.29189137,-0.044742472,0.08522376,0.6368576,-0.6991069,0.076614454
1570715600,4.0414124,10.773908,-0.1388637,-0.01065297,-0.08202787,-0.31745848,0.82360536,1.5370775,-0.15322891
1570715600,3.1986535,7.651869,-0.50278234,0.36965802,-0.20027582,-0.5986969,0.11971009,-1.6567876,-0.4261679
1570715600,2.6527755,5.947197,-0.89064306,0.92574304,-0.8341275,-1.1270841,-0.062249243,-2.7102363,0.17238252
1570715600,2.0111294,6.1866174,-0.61291564,1.5755742,-1.1004517,-1.8067436,-0.41180268,-3.2848446,0.12928689
1570715600,0.90979666,14.068329,-3.0358477,1.0248157,-0.8778047,-2.1678793,-0.8714894,4.501099,-1.8148049
1570715600,1.9967642,14.877569,-1.292869,-0.5603462,0.40694344,-1.1675655,0.6751649,5.2385135,-0.047884032
1570715600,2.2744915,12.167333,-0.9720459,-1.2964664,0.8341275,-0.2748466,1.0965444,2.4708161,-0.08619126
1570715600,1.2401965,11.33894,-0.60812724,-0.39629045,0.33237264,-0.17683929,0.10534488,1.6184803,0.023942016
1570715600,1.4173675,10.443508,-0.7326257,0.35474387,0.2077329,-0.29402196,0.320823,0.7182605,-0.06703765
1570715600,1.412579,11.267113,-1.436521,0.41866168,0.20240642,-0.37285393,0.4165911,1.541866,-0.6560113
1570715600,0.8331822,9.964667,-1.5945383,0.07883197,0.30041373,-0.36859274,-0.062249243,0.23463176,-0.7469909
1570715601,0.47884035,6.009446,-1.3982137,-0.38883337,0.351548,-0.3100014,-0.33997664,-3.7301662,-0.61291564
1570715601,0.7374141,9.02614,-0.9768343,-0.13635801,0.22477765,-0.23436533,0.08140286,-0.8858546,-0.35434186
1570715601,0.60333884,9.730036,-0.866701,-0.091615535,0.18216577,-0.26952013,-0.11971009,-0.023942016,-0.17238252
1570715601,0.35913026,9.437943,-1.0534488,-0.04261188,0.09694202,-0.27271602,-0.31124622,-0.320823,-0.37828386
1570715601,0.17238252,9.404425,-0.9624691,0.0085223755,0.11505207,-0.23223473,-0.45010993,-0.35434186,-0.2825158
1570715601,0.30166942,9.56723,-0.7230489,0.0042611877,-0.040481284,-0.16512102,-0.2825158,-0.19632454,-0.033518825
1570715601,0.31603462,9.552865,-0.8331822,0.009587673,-0.18216577,-0.092680834,-0.24899697,-0.21068975,-0.1340753
1570715601,0.37828386,9.672575,-0.79966336,0.009587673,-0.21412468,-0.020240642,-0.18674773,-0.090979666,-0.08619126
1570715601,0.51714754,9.485827,-0.8475474,0.0021305939,-0.24501829,-0.02130594,-0.090979666,-0.25857377,-0.11492168
1570715601,0.7086837,9.773131,-0.91458505,0.064983115,-0.2066676,-0.012783563,0.1340753,0.009576807,-0.16759412
1570715601,0.6847417,10.0029745,-0.8283938,0.054330144,-0.204537,-0.01065297,0.10534488,0.20111294,-0.110133275
1570715601,0.5506664,9.610326,-0.92895025,0.039415985,-0.14914156,-0.031958908,-0.0047884034,-0.090979666,-0.1340753
1570715601,0.60812724,9.552865,-1.0007763,0.043677174,-0.059656627,-0.019175345,-0.038307227,-0.22026655,-0.21547815
1570715601,0.58897364,9.749189,-1.1061212,0.03835069,-0.060721926,-0.012783563,0.009576807,0.0,-0.272939
1570715601,0.48841715,9.490616,-1.0869676,0.068179004,-0.039415985,-0.01065297,-0.110133275,-0.272939,-0.30645782
1570715601,0.47405192,9.56723,-1.0486604,0.064983115,0.034089502,-0.03728539,-0.110133275,-0.18195933,-0.20590134
1570715601,0.47884035,9.624691,-1.043872,0.07457078,0.1054644,-0.05646074,-0.04309563,-0.1388637,-0.1388637
1570715601,0.36870706,9.749189,-0.94810385,0.059656627,0.1395539,-0.057526033,-0.18195933,-0.08619126,-0.033518825
1570715601,0.30166942,9.811439,-1.0007763,0.05539544,0.13529271,-0.058591332,-0.29209262,0.076614454,-0.08140286
1570715601,0.05267244,9.634268,-0.9816227,0.04900366,0.12570503,-0.043677174,-0.50278234,-0.110133275,-0.04309563
1570715601,0.090979666,9.667787,-0.93852705,0.036220096,0.14807628,-0.08415846,-0.5363012,-0.11492168,0.023942016
1570715601,0.062249243,9.715671,-1.0295067,0.039415985,0.116117366,-0.07883197,-0.49799395,-0.047884032,-0.04309563
1570715601,0.033518825,9.600749,-1.0151415,0.034089502,0.07776668,-0.064983115,-0.46447513,-0.12449849,-0.10534488
1570715601,-0.02873042,9.701305,-0.90500826,0.023436533,0.03728539,-0.031958908,-0.5506664,0.0047884034,0.07182605
1570715601,-0.07182605,9.739613,-0.93852705,0.005326485,0.005326485,-0.01065297,-0.50757074,-0.04309563,0.0047884034
1570715601,-0.095768064,9.907207,-0.866701,0.015979454,0.012783563,-0.019175345,-0.5746084,0.10055647,0.110133275
1570715601,0.019153614,9.902418,-0.9864111,0.0042611877,0.0085223755,-0.03835069,-0.51714754,0.16280572,0.009576807
1570715601,0.14844051,9.653421,-0.90979666,-0.022371236,-0.022371236,-0.05219955,-0.31603462,-0.090979666,0.07182605
1570715601,0.110133275,9.773131,-0.90021986,-0.017044751,-0.06178722,-0.025567126,-0.33997664,0.023942016,0.076614454
1570715601,0.07182605,9.548077,-0.9576807,-0.033024207,-0.10120321,0.0,-0.36870706,-0.19632454,0.009576807
1570715601,0.110133275,9.662998,-0.93373865,-0.018110048,-0.11824796,0.017044751,-0.33039984,-0.08140286,0.02873042
1570715601,0.12928689,9.753978,-0.9576807,-0.01384886,-0.14914156,0.03728539,-0.31124622,0.0,0.0047884034
1570715601,0.24420857,9.519346,-1.0582372,-0.012783563,-0.15766394,0.057526033,-0.20111294,-0.22505496,-0.095768064
1570715602,0.40701428,9.514558,-1.1300632,-0.009587673,-0.175774,0.068179004,-0.05267244,-0.22984336,-0.16759412
1570715602,0.5410896,9.68694,-1.1204864,0.01065297,-0.15127216,0.0692443,0.06703765,-0.05746084,-0.15322891
1570715602,0.47405192,9.572019,-1.2210429,0.018110048,-0.116117366,0.068179004,-0.009576807,-0.17238252,-0.24420857
1570715602,0.58897364,9.629479,-1.1827357,0.020240642,-0.060721926,0.05646074,0.08619126,-0.11492168,-0.20111294
1570715602,0.48362875,9.701305,-1.0486604,0.018110048,-0.04261188,0.044742472,-0.023942016,-0.038307227,-0.05746084
1570715602,0.521936,9.605537,-1.115698,0.0,-0.034089502,0.035154797,0.0047884034,-0.1340753,-0.11971009
1570715602,0.45968673,9.648633,-0.9911995,-0.011718267,-0.04154658,0.045807768,-0.062249243,-0.090979666,0.0
1570715602,0.31124622,9.533711,-1.0007763,0.023436533,-0.029828314,0.063917816,-0.22505496,-0.20590134,0.0
1570715602,0.45968673,9.696517,-1.0342951,0.022371236,-0.045807768,0.059656627,-0.11492168,-0.04309563,-0.10534488
1570715602,0.4261679,9.758766,-1.0726024,0.029828314,-0.04900366,0.04793836,-0.1340753,0.019153614,-0.05746084
1570715602,0.46926352,9.610326,-0.93373865,0.01384886,-0.043677174,0.029828314,-0.095768064,-0.12449849,0.08619126
1570715602,0.4309563,9.634268,-1.0055647,0.0031958907,-0.04900366,0.036220096,-0.1388637,-0.10055647,0.01436521
1570715602,0.5315128,9.586384,-1.0869676,0.0063917814,-0.059656627,0.04261188,-0.06703765,-0.17717093,-0.01436521
1570715602,0.47405192,9.615114,-1.0295067,0.011718267,-0.06178722,0.03835069,-0.11971009,-0.10534488,0.05746084
1570715602,0.62249243,9.696517,-1.0773908,0.03089361,-0.039415985,0.039415985,0.038307227,-0.023942016,-0.05746084
1570715602,0.6847417,9.667787,-0.94331545,0.018110048,-0.054330144,0.05219955,0.038307227,-0.11971009,0.01436521
1570715602,0.5506664,9.619903,-0.9959879,0.026632423,-0.059656627,0.054330144,-0.10055647,-0.1388637,0.07182605
1570715602,0.5602432,9.653421,-1.0151415,0.019175345,-0.058591332,0.04261188,-0.0047884034,-0.08619126,0.038307227
1570715602,0.5746084,9.753978,-1.0821792,0.02769772,-0.036220096,0.04261188,-0.0047884034,0.019153614,0.04309563
1570715602,0.60812724,9.758766,-1.0726024,0.028763017,-0.044742472,0.02450183,-0.009576807,0.009576807,0.062249243
1570715602,0.6560113,9.533711,-1.0247183,0.02130594,-0.045807768,0.022371236,0.023942016,-0.12928689,-0.038307227
1570715602,0.5746084,9.461885,-1.0821792,0.0063917814,-0.03728539,0.02130594,-0.04309563,-0.2633622,-0.0047884034
1570715602,0.6607997,9.576807,-1.1348516,0.031958908,-0.029828314,0.035154797,0.033518825,-0.11971009,0.01436521
1570715602,0.6368576,9.552865,-1.1109096,0.04261188,-0.039415985,0.043677174,0.009576807,-0.11492168,-0.05267244
1570715602,0.7565677,9.715671,-1.1444284,0.05113425,-0.012783563,0.04154658,0.07182605,0.023942016,-0.07182605
1570715602,0.7182605,9.68694,-1.115698,0.04154658,0.022371236,0.03728539,0.04309563,-0.019153614,-0.06703765
1570715602,0.60812724,9.615114,-1.163582,0.03728539,0.03835069,0.02450183,-0.062249243,-0.1340753,-0.009576807
1570715602,0.58897364,9.514558,-1.163582,0.03728539,0.026632423,0.0042611877,-0.076614454,-0.19153613,-0.095768064
1570715602,0.56982,9.552865,-1.2497733,0.043677174,0.01384886,0.0063917814,-0.11492168,-0.15801731,-0.08619126
1570715602,0.6943185,9.734824,-1.1779473,0.044742472,0.03089361,0.03089361,0.0,0.019153614,-0.0047884034
1570715602,0.6703765,9.864111,-1.1779473,0.04154658,0.044742472,0.025567126,-0.02873042,0.15322891,0.0
1570715602,0.58418524,9.562442,-1.091756,0.034089502,0.04793836,0.0085223755,-0.11971009,-0.1436521,0.095768064
1570715602,0.5602432,9.615114,-1.2497733,0.04261188,0.045807768,0.01065297,-0.1436521,-0.090979666,-0.047884032
1570715603,0.47884035,9.792285,-1.283292,0.031958908,0.03728539,0.026632423,-0.22984336,0.047884032,-0.033518825
1570715603,0.5746084,9.65821,-1.3455414,0.039415985,0.03835069,0.011718267,-0.1388637,-0.04309563,-0.12449849
1570715603,0.6943185,9.557653,-1.292869,0.031958908,0.026632423,-0.0021305939,-0.019153614,-0.1436521,-0.06703765
1570715603,0.7038953,9.514558,-1.3503298,0.02769772,0.043677174,-0.0031958907,-0.009576807,-0.18674773,-0.11492168
1570715603,0.7182605,9.543288,-1.3215994,0.03089361,0.063917816,-0.0063917814,0.0047884034,-0.15801731,-0.08140286
1570715603,0.7661445,9.68694,-1.2545617,0.04154658,0.07563608,-0.015979454,0.05267244,-0.009576807,-0.0047884034
1570715603,0.61770403,9.605537,-1.3790601,0.050068956,0.09800732,-0.012783563,-0.08619126,-0.090979666,-0.11971009
1570715603,0.79008657,9.691729,-1.2162545,0.03835069,0.09907261,-0.011718267,0.08140286,-0.0047884034,0.047884032
1570715603,0.7134721,9.653421,-1.283292,0.023436533,0.058591332,-0.012783563,-0.023942016,-0.04309563,0.05267244
1570715603,0.6512229,9.595961,-1.4413095,0.03835069,0.06285252,-0.0042611877,-0.047884032,-0.10055647,-0.15801731
1570715603,0.5746084,9.653421,-1.2880806,0.03835069,0.043677174,0.02130594,-0.12928689,-0.038307227,0.0
1570715603,0.50757074,9.490616,-1.3263878,0.059656627,0.0021305939,0.059656627,-0.21068975,-0.20111294,-0.023942016
1570715603,0.22026655,9.504981,-1.436521,0.091615535,-0.029828314,0.094811425,-0.51714754,-0.18195933,-0.110133275
1570715603,0.39264908,9.725247,-1.3263878,0.08309316,-0.07244019,0.10652969,-0.37349546,0.038307227,0.019153614
1570715603,0.7326257,9.849746,-1.364695,0.036220096,-0.13316211,0.064983115,-0.047884032,0.16759412,0.0
1570715603,0.8571242,9.89763,-1.3599066,-0.015979454,-0.13529271,0.022371236,0.095768064,0.24420857,-0.023942016
1570715603,0.90979666,9.524135,-1.3742718,-0.044742472,-0.12996623,-0.005326485,0.110133275,-0.07182605,-0.0047884034
1570715603,0.93852705,9.437943,-1.4317327,-0.046873067,-0.117182665,-0.018110048,0.15322891,-0.24899697,-0.08619126
1570715603,0.92416185,9.519346,-1.3599066,-0.044742472,-0.07457078,-0.02450183,0.16759412,-0.22505496,-0.0047884034
1570715603,0.91458505,9.519346,-1.412579,-0.043677174,-0.046873067,-0.031958908,0.1436521,-0.12449849,-0.033518825
1570715603,0.92895025,9.514558,-1.412579,-0.039415985,-0.029828314,-0.03835069,0.11971009,-0.21068975,-0.10534488
1570715603,0.8475474,9.600749,-1.4317327,-0.044742472,-0.02450183,-0.035154797,0.12449849,-0.08619126,-0.07182605
1570715603,0.7134721,9.600749,-1.283292,-0.04154658,-0.012783563,-0.050068956,0.009576807,-0.08619126,-0.023942016
1570715603,0.7134721,9.519346,-1.3072342,-0.033024207,0.0063917814,-0.039415985,0.01436521,-0.19153613,-0.04309563
1570715603,0.6751649,9.543288,-1.2449849,-0.011718267,-0.014914157,-0.0063917814,-0.01436521,-0.17238252,0.01436521
1570715603,0.641646,9.552865,-1.2018893,-0.012783563,-0.017044751,-0.0031958907,-0.02873042,-0.15801731,0.04309563
1570715603,0.7326257,9.562442,-1.3742718,-0.014914157,0.01384886,-0.012783563,0.047884032,-0.20111294,-0.076614454
1570715603,0.8571242,9.715671,-1.3599066,-0.0010652969,0.039415985,-0.019175345,0.17238252,0.04309563,-0.062249243
1570715603,0.8331822,9.648633,-1.4077905,-0.01384886,0.091615535,-0.04154658,0.15801731,-0.05746084,-0.16280572
1570715603,0.78050977,9.821015,-1.2976574,0.0010652969,0.16618632,-0.06178722,0.1388637,0.076614454,-0.02873042
1570715603,0.6512229,9.648633,-1.1587936,-0.005326485,0.16938221,-0.07776668,-0.047884032,0.01436521,0.10534488
1570715603,0.40701428,9.514558,-1.1779473,-0.0085223755,0.17151281,-0.07350549,-0.23942018,-0.17238252,0.0
1570715603,0.18674773,9.634268,-1.1683705,-0.014914157,0.11505207,-0.04261188,-0.3878607,-0.11492168,0.07182605
1570715603,0.090979666,9.605537,-1.2354081,-0.0063917814,0.057526033,-0.03089361,-0.5315128,-0.10055647,0.062249243
1570715604,0.2873042,9.610326,-1.1683705,0.01065297,0.01384886,-0.018110048,-0.33039984,-0.095768064,0.08140286
1570715604,0.47405192,9.605537,-1.1348516,0.0021305939,-0.05219955,0.0021305939,-0.1388637,-0.10055647,0.11492168
1570715604,0.56982,9.710882,-1.2401965,0.0021305939,-0.0692443,0.0063917814,-0.038307227,0.0,0.01436521
1570715604,0.7134721,9.581595,-1.1827357,0.0031958907,-0.07989727,0.01065297,0.10055647,-0.12449849,0.07182605
1570715604,0.7374141,9.557653,-1.292869,0.0074570784,-0.068179004,0.0085223755,0.12449849,-0.14844051,-0.02873042
1570715604,0.7757214,9.634268,-1.3120226,0.0042611877,-0.05646074,0.0085223755,0.16280572,-0.06703765,-0.047884032
1570715604,0.79008657,9.624691,-1.3790601,0.005326485,-0.017044751,0.0021305939,0.17717093,-0.076614454,-0.110133275
1570715604,0.6895301,9.557653,-1.3072342,0.0,-0.0021305939,-0.0042611877,0.076614454,-0.1436521,-0.038307227
1570715604,0.63206923,9.662998,-1.3790601,0.0063917814,0.014914157,-0.012783563,0.019153614,-0.038307227,-0.110133275
1570715604,0.60812724,9.677363,-1.2545617,0.0021305939,0.02450183,-0.01384886,-0.009576807,-0.0047884034,-0.023942016
1570715604,0.5315128,9.648633,-1.340753,-0.0074570784,0.029828314,-0.020240642,-0.06703765,-0.05267244,-0.07182605
1570715604,0.5602432,9.643845,-1.2449849,-0.0042611877,0.0010652969,-0.02130594,-0.033518825,-0.062249243,0.019153614
1570715604,0.5506664,9.591172,-1.2880806,-0.0074570784,-0.012783563,-0.0063917814,-0.038307227,-0.11492168,-0.019153614
1570715604,0.5554548,9.543288,-1.3215994,-0.009587673,-0.02130594,0.0010652969,-0.033518825,-0.16280572,-0.05267244
1570715604,0.63206923,9.600749,-1.292869,0.0031958907,-0.02450183,-0.0021305939,0.038307227,-0.10534488,-0.023942016
1570715604,0.5602432,9.615114,-1.3311762,0.0074570784,-0.018110048,0.0021305939,-0.02873042,-0.090979666,-0.062249243
1570715604,0.58418524,9.595961,-1.3359646,-0.0010652969,-0.01065297,0.0074570784,-0.019153614,-0.08619126,-0.0047884034
1570715604,0.5650316,9.624691,-1.2976574,0.0010652969,-0.011718267,0.0031958907,-0.047884032,-0.019153614,-0.023942016
1570715604,0.5410896,9.706094,-1.3215994,-0.0031958907,-0.0042611877,-0.0074570784,-0.047884032,0.0,-0.047884032
1570715604,0.58418524,9.629479,-1.340753,-0.011718267,-0.0031958907,-0.01065297,-0.02873042,-0.076614454,-0.07182605
1570715604,0.5554548,9.662998,-1.3072342,-0.009587673,0.0021305939,-0.009587673,-0.033518825,-0.1436521,-0.04309563
1570715604,0.521936,9.653421,-1.2880806,-0.0021305939,-0.012783563,-0.0031958907,-0.009576807,-0.0047884034,0.062249243
1570715604,0.60812724,9.56723,-1.2785037,-0.0042611877,-0.009587673,-0.005326485,0.019153614,-0.090979666,-0.033518825
1570715604,0.5506664,9.619903,-1.2880806,-0.0010652969,0.0074570784,0.0010652969,-0.009576807,-0.090979666,-0.023942016
1570715604,0.49799395,9.634268,-1.1875241,0.0063917814,-0.01384886,0.01065297,-0.009576807,-0.047884032,0.10055647
1570715604,0.47884035,9.648633,-1.2114661,0.0021305939,-0.0021305939,-0.0021305939,-0.12449849,-0.038307227,0.038307227
1570715604,0.50278234,9.619903,-1.2880806,0.0021305939,-0.011718267,-0.011718267,-0.06703765,-0.090979666,0.0
1570715604,0.61291564,9.591172,-1.2114661,-0.009587673,-0.01384886,-0.01065297,0.076614454,-0.16759412,0.05267244
1570715604,0.60812724,9.572019,-1.3359646,-0.0031958907,-0.009587673,0.0010652969,0.0,-0.14844051,-0.01436521
1570715604,0.60812724,9.662998,-1.3455414,0.0085223755,-0.0010652969,-0.0063917814,0.033518825,0.0,0.0047884034
1570715604,0.62249243,9.610326,-1.1731589,0.012783563,0.0085223755,-0.017044751,0.038307227,-0.062249243,0.10534488
1570715604,0.5506664,9.667787,-1.2976574,0.0,0.020240642,-0.005326485,-0.01436521,-0.062249243,-0.019153614
1570715604,0.51235914,9.653421,-1.1827357,-0.005326485,0.0010652969,0.005326485,-0.023942016,-0.06703765,0.05267244
1570715605,0.5554548,9.629479,-1.2641385,0.0,0.019175345,-0.01065297,-0.01436521,-0.090979666,0.062249243
1570715605,0.58418524,9.648633,-1.2114661,0.0063917814,0.015979454,-0.01065297,0.02873042,-0.10055647,0.076614454
1570715605,0.5602432,9.610326,-1.316811,0.005326485,0.0021305939,-0.005326485,-0.023942016,-0.08619126,0.023942016
1570715605,0.5602432,9.639056,-1.2497733,-0.0021305939,0.01065297,0.0031958907,-0.0047884034,-0.06703765,0.023942016
1570715605,0.545878,9.591172,-1.2545617,0.0031958907,0.01065297,-0.0010652969,-0.019153614,-0.11492168,0.019153614
1570715605,0.5554548,9.672575,-1.2689269,0.0063917814,0.0010652969,-0.0010652969,-0.047884032,-0.062249243,0.062249243
1570715605,0.5506664,9.65821,-1.3455414,0.0031958907,0.0042611877,0.0010652969,-0.01436521,-0.04309563,-0.062249243
1570715605,0.5793968,9.643845,-1.2354081,0.0042611877,0.018110048,-0.011718267,0.009576807,-0.05746084,0.04309563
1570715605,0.6703765,9.591172,-1.283292,-0.0063917814,-0.0010652969,-0.01384886,0.10534488,-0.11492168,0.0
1570715605,0.56982,9.548077,-1.3599066,-0.0042611877,-0.0042611877,0.0021305939,0.0047884034,-0.15801731,-0.08140286
1570715605,0.5793968,9.624691,-1.2306197,0.011718267,0.0074570784,-0.0063917814,0.01436521,-0.08140286,0.047884032
1570715605,0.59376204,9.65821,-1.2354081,0.0031958907,0.0042611877,-0.0042611877,0.033518825,-0.047884032,0.04309563
1570715605,0.5506664,9.619903,-1.2976574,-0.0031958907,0.033024207,-0.0063917814,-0.0047884034,-0.08619126,-0.01436521
1570715605,0.58418524,9.605537,-1.1971009,-0.0085223755,0.023436533,-0.025567126,0.023942016,-0.10055647,0.076614454
1570715605,0.58897364,9.653421,-1.3311762,-0.0085223755,0.02769772,-0.03835069,0.05267244,-0.05267244,-0.01436521
1570715605,0.61770403,9.643845,-1.283292,-0.0042611877,0.043677174,-0.029828314,0.076614454,-0.062249243,-0.009576807
1570715605,0.6655881,9.624691,-1.2593501,-0.0074570784,0.031958908,-0.019175345,0.047884032,-0.11971009,0.05746084
1570715605,0.49320555,9.562442,-1.2497733,-0.0085223755,0.034089502,-0.019175345,-0.038307227,-0.1436521,0.01436521
1570715605,0.51714754,9.610326,-1.3215994,0.0031958907,0.039415985,-0.019175345,0.0,-0.10055647,-0.038307227
1570715605,0.5315128,9.720459,-1.3215994,-0.0042611877,0.034089502,-0.025567126,0.07182605,-0.0047884034,0.009576807
1570715605,0.5267244,9.600749,-1.1971009,-0.015979454,0.020240642,-0.028763017,-0.009576807,-0.076614454,0.12449849
1570715605,0.45010993,9.691729,-1.2880806,-0.023436533,0.033024207,-0.034089502,-0.047884032,0.0,-0.019153614
1570715605,0.50278234,9.605537,-1.2689269,-0.033024207,0.0010652969,-0.04261188,-0.009576807,-0.08619126,0.05746084
1570715605,0.47405192,9.619903,-1.2114661,-0.023436533,0.0042611877,-0.028763017,0.0,-0.090979666,0.02873042
1570715605,0.5363012,9.5385,-1.1875241,-0.028763017,0.0010652969,-0.02130594,0.02873042,-0.15801731,0.047884032
1570715605,0.49799395,9.576807,-1.3120226,-0.01384886,-0.0010652969,-0.01384886,0.05267244,-0.10534488,-0.02873042
1570715605,0.4357447,9.576807,-1.3120226,-0.009587673,0.0042611877,-0.009587673,0.019153614,-0.12928689,-0.06703765
1570715605,0.47884035,9.667787,-1.1731589,-0.0042611877,-0.0031958907,-0.01384886,0.08140286,-0.076614454,-0.0047884034
1570715605,0.44532153,9.639056,-1.2545617,-0.0063917814,0.0085223755,-0.005326485,-0.076614454,-0.038307227,-0.019153614
1570715605,0.40701428,9.562442,-1.1971009,-0.005326485,-0.0074570784,-0.009587673,-0.062249243,-0.10055647,0.062249243
1570715605,0.41180268,9.619903,-1.2066777,-0.0021305939,-0.0063917814,-0.009587673,-0.062249243,-0.02873042,-0.019153614
1570715605,0.47884035,9.629479,-1.2545617,-0.005326485,0.0010652969,-0.0021305939,0.0047884034,-0.08619126,-0.02873042
1570715605,0.48841715,9.595961,-1.2737153,-0.0042611877,0.005326485,-0.011718267,0.0047884034,-0.12449849,0.02873042
1570715606,0.44532153,9.624691,-1.1683705,-0.0021305939,0.0021305939,-0.01065297,-0.0047884034,-0.1340753,0.01436521
1570715606,0.4405331,9.758766,-1.1827357,0.0010652969,0.0063917814,-0.011718267,-0.023942016,0.038307227,0.033518825
1570715606,0.39743748,9.696517,-1.1779473,-0.017044751,0.0010652969,-0.009587673,0.01436521,0.009576807,0.05746084
1570715606,0.34955344,9.595961,-1.2210429,-0.012783563,-0.0042611877,-0.017044751,-0.08619126,-0.10055647,0.047884032
1570715606,0.4357447,9.653421,-1.1923125,-0.012783563,-0.017044751,-0.0085223755,-0.033518825,-0.12449849,0.023942016
1570715606,0.46447513,9.576807,-1.1875241,-0.011718267,-0.025567126,-0.0031958907,-0.023942016,-0.12449849,0.05267244
1570715606,0.5267244,9.615114,-1.2018893,-0.0042611877,-0.020240642,0.0,0.01436521,-0.06703765,0.038307227
1570715606,0.45010993,9.572019,-1.1348516,-0.011718267,-0.011718267,-0.005326485,0.0,-0.14844051,0.06703765
1570715606,0.45489833,9.65821,-1.1779473,-0.005326485,-0.0021305939,-0.0074570784,0.0047884034,-0.062249243,0.023942016
1570715606,0.4165911,9.639056,-1.1683705,-0.0021305939,-0.0010652969,-0.0063917814,-0.02873042,-0.08140286,0.033518825
1570715606,0.41180268,9.643845,-1.1444284,-0.01065297,-0.0010652969,-0.0063917814,-0.02873042,-0.076614454,0.05267244
1570715606,0.4357447,9.648633,-1.1204864,-0.009587673,0.0074570784,-0.011718267,-0.0047884034,-0.07182605,0.07182605
1570715606,0.38307226,9.653421,-1.1683705,-0.005326485,0.01384886,-0.012783563,-0.05267244,-0.06703765,0.023942016
1570715606,0.39264908,9.619903,-1.1492168,-0.01065297,0.014914157,-0.014914157,-0.04309563,-0.10055647,0.04309563
1570715606,0.45010993,9.643845,-1.1731589,-0.011718267,0.0085223755,-0.012783563,0.01436521,-0.076614454,0.01436521
1570715606,0.37349546,9.672575,-1.1875241,-0.009587673,-0.0031958907,-0.0042611877,-0.05746084,-0.047884032,0.0
1570715606,0.4405331,9.648633,-1.13964,-0.0031958907,-0.0031958907,-0.0031958907,0.009576807,-0.07182605,0.04309563
1570715606,0.4309563,9.662998,-1.1444284,-0.0085223755,0.012783563,-0.009587673,0.0,-0.062249243,0.038307227
1570715606,0.35434186,9.667787,-1.1971009,-0.005326485,-0.0063917814,-0.0063917814,-0.06703765,-0.05746084,-0.01436521
1570715606,0.34955344,9.576807,-1.1731589,-0.0063917814,-0.009587673,0.0042611877,-0.07182605,-0.14844051,0.0047884034
1570715606,0.40701428,9.562442,-1.115698,0.0010652969,0.0042611877,0.0042611877,0.01436521,-0.16280572,0.062249243
1570715606,0.39264908,9.68694,-1.1731589,0.009587673,-0.0031958907,0.005326485,0.023942016,-0.04309563,0.019153614
1570715606,0.36870706,9.677363,-1.1540052,0.0063917814,0.0042611877,0.0,-0.023942016,-0.02873042,0.06703765
1570715606,0.44532153,9.624691,-1.1300632,-0.0010652969,0.009587673,-0.0042611877,0.01436521,-0.10055647,0.05267244
1570715606,0.44532153,9.648633,-1.1300632,-0.0074570784,0.009587673,0.0,0.01436521,-0.076614454,0.05267244
1570715606,0.4165911,9.710882,-1.1444284,-0.005326485,0.011718267,-0.01065297,0.0,-0.033518825,0.06703765
1570715606,0.3878607,9.5385,-1.1971009,-0.0010652969,0.018110048,-0.012783563,-0.02873042,-0.18674773,-0.01436521
1570715606,0.40222588,9.543288,-1.1204864,-0.005326485,0.015979454,-0.0021305939,-0.0047884034,-0.18195933,0.02873042
1570715606,0.39743748,9.653421,-1.1492168,0.0042611877,0.009587673,0.0021305939,-0.047884032,-0.07182605,0.038307227
1570715606,0.33039984,9.600749,-1.13964,0.0074570784,0.01384886,-0.0031958907,-0.06703765,-0.12928689,0.062249243
1570715606,0.4213795,9.691729,-1.1348516,0.0063917814,0.0085223755,-0.0021305939,0.0,-0.10534488,0.009576807
1570715606,0.33518824,9.749189,-1.091756,-0.0021305939,0.0063917814,0.009587673,0.0,0.009576807,0.02873042
1570715606,0.29209262,9.600749,-1.0965444,-0.0010652969,-0.0010652969,-0.005326485,-0.1340753,-0.12449849,0.08140286
1570715606,0.4405331,9.591172,-1.2162545,0.0042611877,-0.0042611877,0.0042611877,0.023942016,-0.11971009,-0.05746084
1570715607,0.44532153,9.591172,-1.1061212,0.0031958907,-0.015979454,0.012783563,0.019153614,-0.1340753,0.07182605
1570715607,0.4309563,9.682152,-1.2210429,0.0085223755,-0.005326485,0.012783563,0.033518825,-0.062249243,-0.033518825
1570715607,0.4165911,9.677363,-1.2066777,0.01384886,0.0010652969,0.012783563,-0.0047884034,-0.04309563,0.0047884034
1570715607,0.4213795,9.648633,-1.1204864,0.01065297,0.0063917814,0.0074570784,-0.019153614,-0.04309563,0.06703765
1570715607,0.3878607,9.643845,-1.1252748,0.0085223755,-0.0042611877,0.0042611877,-0.047884032,-0.076614454,0.062249243
1570715607,0.38307226,9.639056,-1.1348516,0.0,-0.01065297,0.0063917814,-0.0047884034,-0.095768064,0.1436521
1570715607,0.35434186,9.677363,-1.1827357,0.011718267,-0.0010652969,0.017044751,-0.06703765,-0.15801731,0.038307227
1570715607,0.33997664,9.572019,-1.115698,0.01384886,-0.017044751,0.017044751,-0.10055647,-0.14844051,0.076614454
1570715607,0.4405331,9.634268,-1.1061212,0.018110048,-0.014914157,0.023436533,-0.033518825,-0.1436521,0.019153614
1570715607,0.48841715,9.672575,-1.1587936,0.011718267,-0.026632423,0.020240642,0.0,-0.05267244,0.047884032
1570715607,0.47405192,9.701305,-1.1731589,0.009587673,-0.011718267,0.017044751,0.01436521,-0.019153614,0.033518825
1570715607,0.545878,9.706094,-1.1540052,0.01065297,-0.0021305939,0.012783563,0.08140286,-0.01436521,0.05267244
1570715607,0.51714754,9.730036,-1.1779473,-0.0010652969,0.005326485,-0.0042611877,0.05267244,0.0047884034,0.02873042
1570715607,0.5410896,9.624691,-1.2306197,-0.0042611877,0.005326485,-0.005326485,0.08140286,-0.095768064,-0.019153614
1570715607,0.51235914,9.595961,-1.1587936,-0.0074570784,0.018110048,-0.0010652969,0.05267244,-0.12449849,0.04309563
1570715607,0.51235914,9.500193,-1.2210429,0.011718267,0.01065297,0.01384886,0.047884032,-0.22026655,-0.01436521
1570715607,0.51235914,9.634268,-1.2689269,0.017044751,0.014914157,0.02130594,0.04309563,-0.08619126,-0.05746084
1570715607,0.48362875,9.672575,-1.1971009,0.018110048,0.017044751,0.012783563,0.009576807,-0.04309563,0.01436521
1570715607,0.50278234,9.710882,-1.1971009,0.012783563,0.029828314,0.0042611877,0.06703765,0.0,-0.01436521
1570715607,0.50757074,9.619903,-1.2018893,0.0042611877,0.033024207,-0.0042611877,0.033518825,-0.095768064,0.01436521
1570715607,0.46447513,9.643845,-1.3072342,0.005326485,0.029828314,0.0021305939,-0.009576807,-0.07182605,-0.08619126
1570715607,0.5363012,9.629479,-1.2354081,0.01065297,0.023436533,0.0085223755,0.05746084,-0.08619126,-0.01436521
1570715607,0.60812724,9.562442,-1.2497733,0.015979454,0.0063917814,0.02130594,0.12449849,-0.15322891,-0.023942016
1570715607,0.50278234,9.557653,-1.2545617,0.020240642,0.0031958907,0.01384886,0.038307227,-0.18674773,-0.023942016
1570715607,0.46447513,9.629479,-1.2545617,0.020240642,-0.0021305939,0.022371236,-0.02873042,-0.08619126,-0.019153614
1570715607,0.5506664,9.701305,-1.2066777,0.023436533,-0.018110048,0.02769772,0.02873042,0.0,0.009576807
1570715607,0.5315128,9.682152,-1.2880806,0.0021305939,0.0021305939,0.005326485,0.023942016,-0.02873042,-0.04309563
1570715607,0.60333884,9.552865,-1.2354081,-0.0031958907,-0.0031958907,-0.0074570784,0.10055647,-0.15801731,0.0047884034
1570715607,0.545878,9.562442,-1.3120226,-0.0042611877,-0.01384886,0.0042611877,0.04309563,-0.14844051,-0.06703765
1570715607,0.6655881,9.662998,-1.3024458,0.0031958907,-0.0021305939,-0.0042611877,0.16280572,-0.047884032,-0.05746084
1570715607,0.6943185,9.615114,-1.1923125,-0.0021305939,0.01065297,-0.01065297,0.19153613,-0.095768064,0.047884032
1570715607,0.5602432,9.619903,-1.2497733,-0.0063917814,0.028763017,-0.009587673,0.076614454,-0.090979666,0.033518825
1570715607,0.48841715,9.591172,-1.2785037,-0.0021305939,0.01065297,-0.009587673,-0.01436521,-0.076614454,-0.019153614
1570715608,0.44532153,9.619903,-1.2737153,0.0010652969,0.0031958907,-0.0010652969,-0.019153614,-0.10534488,0.0
1570715608,0.47405192,9.677363,-1.1923125,0.0010652969,0.012783563,-0.0010652969,-0.04309563,-0.076614454,0.009576807
1570715608,0.5506664,9.662998,-1.2210429,-0.0074570784,0.0,-0.0074570784,0.01436521,-0.01436521,0.0047884034
1570715608,0.47884035,9.648633,-1.2497733,-0.005326485,-0.005326485,-0.0074570784,-0.05267244,-0.110133275,0.0
1570715608,0.5267244,9.552865,-1.2593501,-0.0074570784,-0.02130594,0.0010652969,0.02873042,-0.16280572,-0.023942016
1570715608,0.50278234,9.677363,-1.2497733,0.0010652969,-0.02450183,0.015979454,0.0047884034,-0.038307227,0.02873042
1570715608,0.5650316,9.68694,-1.2593501,-0.0010652969,-0.019175345,0.0042611877,0.023942016,-0.019153614,0.05267244
1570715608,0.50757074,9.701305,-1.2162545,-0.009587673,-0.014914157,-0.018110048,0.02873042,-0.009576807,0.033518825
1570715608,0.5506664,9.610326,-1.2162545,-0.015979454,-0.025567126,-0.017044751,0.05746084,-0.10534488,0.009576807
1570715608,0.59855044,9.552865,-1.2066777,-0.017044751,-0.014914157,-0.0074570784,0.038307227,-0.15322891,-0.038307227
1570715608,0.59376204,9.552865,-1.2689269,-0.0063917814,-0.0074570784,-0.0085223755,0.10534488,-0.16280572,-0.04309563
1570715608,0.60333884,9.730036,-1.1923125,0.0010652969,0.012783563,-0.0085223755,0.11492168,-0.05746084,0.0
1570715608,0.50757074,9.586384,-1.1013328,-0.01065297,0.01384886,-0.014914157,0.06703765,-0.047884032,0.12449849
1570715608,0.45010993,9.624691,-1.1827357,-0.01065297,0.02769772,-0.022371236,-0.02873042,-0.090979666,0.033518825
1570715608,0.4261679,9.667787,-1.1492168,-0.011718267,0.018110048,-0.014914157,-0.047884032,-0.047884032,0.062249243
1570715608,0.4357447,9.600749,-1.1587936,-0.0063917814,0.005326485,-0.009587673,-0.038307227,-0.11492168,0.05267244
1570715608,0.4165911,9.624691,-1.2210429,-0.005326485,0.0042611877,-0.0063917814,-0.05267244,-0.090979666,-0.0047884034
1570715608,0.40701428,9.648633,-1.1971009,-0.009587673,-0.014914157,-0.0063917814,-0.062249243,-0.06703765,0.009576807
1570715608,0.4213795,9.595961,-1.2258313,-0.0031958907,-0.0085223755,-0.005326485,-0.047884032,-0.12449849,-0.01436521
1570715608,0.48841715,9.667787,-1.2401965,0.0021305939,-0.011718267,0.0021305939,0.01436521,-0.047884032,-0.02873042
1570715608,0.49320555,9.643845,-1.2018893,0.0021305939,-0.02450183,0.014914157,0.019153614,-0.07182605,0.0047884034
1570715608,0.45489833,9.653421,-1.1300632,0.0085223755,0.0063917814,0.0042611877,-0.019153614,-0.062249243,0.08140286
1570715608,0.45010993,9.629479,-1.2066777,0.0031958907,-0.0063917814,-0.0021305939,-0.023942016,-0.08619126,0.0047884034
1570715608,0.46447513,9.624691,-1.1971009,-0.0021305939,-0.0063917814,-0.0010652969,-0.009576807,-0.090979666,0.01436521
1570715608,0.48362875,9.667787,-1.1348516,0.0031958907,-0.012783563,-0.0010652969,0.0047884034,-0.047884032,0.076614454
1570715608,0.48841715,9.576807,-1.1779473,0.005326485,-0.0010652969,0.0010652969,0.009576807,-0.1388637,0.033518825
1570715608,0.45489833,9.715671,-1.1779473,0.0042611877,0.0085223755,0.011718267,-0.019153614,0.0,0.038307227
1570715608,0.49799395,9.677363,-1.2641385,0.005326485,-0.0021305939,0.0042611877,0.01436521,-0.038307227,-0.04309563
1570715608,0.47884035,9.533711,-1.2641385,0.0074570784,-0.0010652969,-0.005326485,0.009576807,-0.1340753,-0.062249243
1570715608,0.5602432,9.634268,-1.2258313,0.0031958907,0.0,0.0031958907,0.076614454,-0.08140286,0.0
1570715608,0.45489833,9.68694,-1.2354081,0.005326485,-0.0074570784,0.0042611877,-0.023942016,-0.02873042,-0.009576807
1570715608,0.48362875,9.629479,-1.2449849,0.0,0.005326485,-0.0021305939,0.0,-0.095768064,0.01436521
1570715608,0.56982,9.639056,-1.2066777,-0.0010652969,-0.0031958907,0.005326485,0.10055647,-0.047884032,-0.0047884034
1570715609,0.51714754,9.667787,-1.2737153,0.0,0.0021305939,0.0042611877,0.023942016,-0.038307227,-0.019153614
1570715609,0.5315128,9.730036,-1.2401965,-0.011718267,-0.0010652969,-0.0063917814,0.038307227,-0.0047884034,-0.04309563
1570715609,0.62728083,9.696517,-1.283292,-0.017044751,-0.0042611877,-0.034089502,0.10055647,-0.009576807,-0.019153614
1570715609,0.59855044,9.543288,-1.1444284,-0.015979454,-0.028763017,-0.02769772,0.14844051,-0.17238252,0.02873042
1570715609,0.4405331,9.466674,-1.1683705,-0.005326485,-0.015979454,0.018110048,0.01436521,-0.25857377,0.0
1570715609,0.46926352,9.653421,-1.1827357,0.014914157,-0.014914157,0.019175345,-0.023942016,-0.12449849,0.07182605
1570715609,0.3878607,9.763555,-1.2593501,0.015979454,-0.01384886,0.012783563,-0.023942016,0.038307227,0.038307227
1570715609,0.4213795,9.696517,-1.1731589,-0.0063917814,0.0063917814,-0.0021305939,-0.05746084,-0.01436521,0.076614454
1570715609,0.4405331,9.734824,-1.13964,-0.0074570784,0.005326485,-0.015979454,-0.04309563,0.01436521,0.10055647
1570715609,0.3878607,9.624691,-1.2785037,-0.018110048,-0.0042611877,-0.022371236,-0.009576807,-0.110133275,0.02873042
1570715609,0.5315128,9.634268,-1.1731589,-0.019175345,0.005326485,-0.020240642,0.05746084,-0.08619126,0.033518825
1570715609,0.5410896,9.619903,-1.115698,-0.009587673,0.0063917814,-0.015979454,0.07182605,-0.10055647,0.08619126
1570715609,0.45489833,9.581595,-1.2354081,-0.0042611877,0.012783563,-0.009587673,-0.04309563,-0.12928689,-0.019153614
1570715609,0.5267244,9.653421,-1.2258313,-0.0074570784,-0.0021305939,0.0021305939,0.047884032,-0.11971009,-0.023942016
1570715609,0.49799395,9.662998,-1.2162545,0.0021305939,0.0042611877,0.0031958907,0.009576807,-0.04309563,-0.023942016
1570715609,0.51235914,9.682152,-1.2162545,0.0010652969,0.011718267,-0.0042611877,0.038307227,-0.095768064,0.019153614
1570715609,0.45968673,9.763555,-1.2114661,-0.0074570784,0.0085223755,-0.01384886,-0.009576807,0.038307227,0.038307227
1570715609,0.4165911,9.591172,-1.0965444,-0.015979454,-0.0074570784,-0.023436533,-0.038307227,-0.05267244,0.01436521
1570715609,0.45489833,9.576807,-1.1779473,-0.02130594,-0.0021305939,-0.020240642,0.0,-0.1436521,0.009576807
1570715609,0.5315128,9.648633,-1.1444284,-0.0074570784,-0.009587673,-0.0085223755,0.07182605,-0.076614454,0.01436521
1570715609,0.49799395,9.691729,-1.1444284,-0.01065297,-0.005326485,-0.0063917814,0.04309563,-0.10534488,-0.0047884034
1570715609,0.49320555,9.667787,-1.1061212,-0.009587673,0.0042611877,-0.009587673,0.07182605,-0.08140286,0.04309563
1570715609,0.37349546,9.677363,-1.1492168,-0.0042611877,0.0085223755,-0.01384886,-0.06703765,-0.047884032,0.02873042
1570715609,0.45968673,9.677363,-1.1109096,-0.012783563,0.0074570784,-0.015979454,-0.01436521,-0.047884032,0.038307227
1570715609,0.4213795,9.605537,-1.163582,-0.017044751,0.0085223755,-0.01384886,0.02873042,-0.11971009,0.0047884034
1570715609,0.46447513,9.65821,-1.1779473,-0.0042611877,0.012783563,-0.018110048,0.033518825,-0.06703765,-0.0047884034
1570715609,0.4357447,9.662998,-1.13964,0.0,0.020240642,-0.0063917814,0.0047884034,-0.062249243,0.02873042
1570715609,0.40222588,9.610326,-1.1300632,-0.009587673,0.01065297,-0.0074570784,-0.023942016,-0.11492168,0.033518825
1570715609,0.45968673,9.600749,-1.0965444,-0.0031958907,0.0042611877,-0.01065297,-0.019153614,-0.14844051,0.047884032
1570715609,0.4213795,9.653421,-1.1109096,-0.005326485,-0.0031958907,0.0021305939,0.0,-0.07182605,0.05267244
1570715609,0.4309563,9.763555,-1.1300632,-0.009587673,-0.0063917814,-0.005326485,-0.076614454,-0.01436521,0.01436521
1570715609,0.40222588,9.533711,-1.2018893,-0.009587673,-0.019175345,-0.0085223755,-0.019153614,-0.19153613,-0.038307227
1570715609,0.49799395,9.619903,-1.1540052,-0.0085223755,-0.017044751,-0.0031958907,0.076614454,-0.10534488,0.0047884034
1570715609,0.46447513,9.600749,-1.1444284,-0.0021305939,-0.020240642,-0.009587673,0.08619126,0.0,0.009576807
1570715610,0.47405192,9.619903,-1.1779473,-0.01065297,0.0042611877,0.0010652969,0.07182605,-0.16759412,-0.02873042
1570715610,0.39743748,9.648633,-1.1300632,-0.0074570784,0.0021305939,0.0021305939,-0.0047884034,-0.06703765,0.038307227
1570715610,0.34955344,9.595961,-1.13964,0.0,-0.005326485,0.0,-0.038307227,-0.07182605,0.0
1570715610,0.4165911,9.696517,-1.0869676,-0.0010652969,0.0074570784,-0.005326485,0.0,-0.02873042,0.090979666
1570715610,0.35913026,9.706094,-1.0390835,-0.0063917814,0.0021305939,-0.0010652969,-0.038307227,-0.023942016,0.17238252
1570715610,0.32561144,9.548077,-1.1061212,-0.011718267,-0.0021305939,-0.0042611877,-0.07182605,-0.15801731,0.10055647
1570715610,0.4357447,9.672575,-1.0869676,-0.0042611877,-0.009587673,0.0063917814,0.0047884034,-0.095768064,0.062249243
1570715610,0.3878607,9.634268,-1.115698,0.0042611877,-0.0063917814,0.01384886,0.0,-0.08140286,0.02873042
1570715610,0.40222588,9.634268,-1.1300632,0.009587673,-0.017044751,0.0063917814,0.038307227,-0.06703765,0.038307227
1570715610,0.49320555,9.725247,-1.091756,0.009587673,-0.0021305939,0.009587673,0.01436521,-0.04309563,0.05267244
1570715610,0.4213795,9.639056,-1.1444284,-0.011718267,0.01065297,0.0,0.009576807,-0.04309563,0.06703765
1570715610,0.40701428,9.634268,-1.1109096,-0.0010652969,-0.0042611877,-0.009587673,-0.019153614,-0.090979666,0.038307227
1570715610,0.41180268,9.629479,-1.13964,0.0042611877,-0.0031958907,0.0063917814,-0.01436521,-0.095768064,0.009576807
1570715610,0.49320555,9.643845,-1.0630256,-0.0031958907,-0.0085223755,0.0074570784,0.01436521,-0.14844051,0.08140286
1570715610,0.46447513,9.696517,-1.1779473,0.0063917814,0.0085223755,0.0010652969,-0.0047884034,-0.06703765,-0.0047884034
1570715610,0.50757074,9.706094,-1.091756,-0.01065297,-0.01065297,-0.011718267,0.08619126,0.0,0.033518825
1570715610,0.4309563,9.715671,-1.0773908,-0.026632423,-0.02130594,-0.026632423,0.0047884034,-0.01436521,0.06703765
1570715610,0.35913026,9.68694,-1.0151415,-0.03728539,-0.0074570784,-0.034089502,-0.05267244,-0.04309563,0.11492168
1570715610,0.272939,9.634268,-1.1013328,-0.04261188,-0.031958908,-0.050068956,-0.12928689,-0.095768064,0.019153614
1570715610,0.39743748,9.572019,-1.0773908,-0.031958908,-0.039415985,-0.03728539,0.0047884034,-0.16280572,0.033518825
1570715610,0.39743748,9.5385,-1.1971009,-0.022371236,-0.045807768,-0.005326485,-0.0047884034,-0.15801731,-0.019153614
1570715610,0.48841715,9.653421,-1.0390835,0.0,-0.03835069,0.0063917814,0.10534488,-0.08140286,0.062249243
1570715610,0.47884035,9.667787,-1.1061212,-0.0085223755,-0.031958908,0.017044751,0.090979666,-0.06703765,0.0
1570715610,0.47884035,9.65821,-1.0390835,0.0010652969,-0.009587673,0.018110048,0.08619126,-0.076614454,0.062249243
1570715610,0.49320555,9.797073,-1.0007763,-0.0031958907,-0.0042611877,0.0063917814,0.095768064,0.05746084,0.10055647
1570715610,0.35913026,9.643845,-1.0342951,-0.014914157,0.0074570784,-0.0021305939,-0.033518825,-0.090979666,0.062249243
1570715610,0.33518824,9.605537,-1.1013328,0.0042611877,-0.0021305939,-0.0042611877,-0.05746084,-0.12928689,0.0
1570715610,0.36870706,9.65821,-1.1061212,-0.0042611877,-0.01065297,0.0085223755,-0.023942016,-0.076614454,-0.0047884034
1570715610,0.46447513,9.591172,-1.1923125,-0.0021305939,-0.01384886,0.012783563,0.062249243,-0.1436521,-0.095768064
1570715610,0.44532153,9.706094,-1.115698,0.01384886,0.0063917814,0.012783563,0.05746084,-0.08619126,-0.0047884034
1570715610,0.47884035,9.643845,-1.0486604,0.0074570784,-0.0085223755,0.014914157,0.06703765,-0.090979666,0.05267244
1570715610,0.41180268,9.610326,-1.1013328,0.0042611877,0.005326485,0.0042611877,0.0,-0.12449849,0.0
1570715610,0.4309563,9.662998,-1.0773908,0.012783563,0.0063917814,0.009587673,0.01436521,-0.07182605,0.02873042
1570715611,0.40701428,9.643845,-1.13964,0.0085223755,-0.0063917814,0.018110048,-0.009576807,-0.08619126,-0.02873042
1570715611,0.37828386,9.65821,-1.0247183,0.009587673,-0.018110048,0.014914157,-0.04309563,-0.07182605,0.08619126
1570715611,0.4213795,9.65821,-1.0965444,0.015979454,-0.0063917814,0.018110048,0.033518825,-0.08140286,0.0
1570715611,0.40222588,9.648633,-1.0965444,0.020240642,-0.011718267,0.015979454,0.0,-0.110133275,0.01436521
1570715611,0.46926352,9.682152,-1.0773908,0.02450183,-0.026632423,0.023436533,-0.0047884034,-0.090979666,0.062249243
1570715611,0.48841715,9.696517,-1.1444284,0.01384886,-0.011718267,0.023436533,0.019153614,-0.047884032,0.0
1570715611,0.49799395,9.677363,-1.1204864,0.011718267,0.0085223755,0.0063917814,0.047884032,-0.05267244,0.01436521
1570715611,0.45489833,9.624691,-1.1971009,0.0063917814,0.020240642,-0.0010652969,0.10055647,-0.11492168,-0.07182605
1570715611,0.5746084,9.552865,-1.1971009,0.005326485,0.011718267,0.0031958907,0.12928689,-0.10534488,-0.07182605
1570715611,0.5650316,9.624691,-1.1492168,0.011718267,0.009587673,0.0063917814,0.1388637,-0.12928689,0.05267244
1570715611,0.545878,9.605537,-1.1971009,0.015979454,0.026632423,0.01065297,0.090979666,-0.05267244,0.04309563
1570715611,0.47405192,9.653421,-1.1013328,0.014914157,0.03728539,0.01065297,0.01436521,-0.1388637,0.05267244
1570715611,0.4165911,9.667787,-1.1492168,0.022371236,0.031958908,0.0010652969,-0.033518825,-0.095768064,0.019153614
1570715611,0.4309563,9.639056,-1.0630256,0.014914157,0.019175345,0.0031958907,-0.02873042,-0.08619126,0.090979666
1570715611,0.4261679,9.667787,-1.1348516,0.01065297,0.017044751,0.0042611877,-0.02873042,-0.023942016,0.062249243
1570715611,0.45010993,9.701305,-1.0965444,0.011718267,0.01384886,0.0021305939,-0.08140286,-0.062249243,0.08619126
1570715611,0.45489833,9.653421,-1.1109096,0.01065297,0.0021305939,0.0,-0.01436521,-0.05746084,0.01436521
1570715611,0.45968673,9.662998,-1.0630256,0.011718267,0.0010652969,0.0031958907,0.05267244,-0.10055647,0.07182605
1570715611,0.50757074,9.710882,-1.1827357,0.0042611877,0.0010652969,-0.0031958907,0.038307227,-0.01436521,-0.01436521
1570715611,0.5267244,9.672575,-1.1300632,0.0021305939,0.009587673,0.0021305939,0.05746084,-0.05267244,0.038307227
1570715611,0.49799395,9.619903,-1.1444284,0.01065297,0.01065297,0.0031958907,0.01436521,-0.038307227,0.0
1570715611,0.47884035,9.600749,-1.1779473,0.0085223755,0.011718267,-0.0063917814,0.0047884034,-0.11971009,-0.0047884034
1570715611,0.5267244,9.619903,-1.1923125,0.0042611877,0.0063917814,0.005326485,0.06703765,-0.10534488,-0.0047884034
1570715611,0.4309563,9.677363,-1.1444284,0.011718267,0.0010652969,0.01065297,-0.038307227,-0.04309563,0.02873042
1570715611,0.5746084,9.667787,-1.2018893,0.01065297,0.0,0.0085223755,0.095768064,-0.05267244,-0.023942016
1570715611,0.44532153,9.68694,-1.163582,0.005326485,0.0085223755,-0.0021305939,-0.02873042,-0.033518825,0.01436521
1570715611,0.50278234,9.677363,-1.1252748,-0.0021305939,0.01065297,-0.0042611877,0.023942016,-0.04309563,0.05267244
1570715611,0.521936,9.595961,-1.2401965,-0.0063917814,0.01065297,-0.0010652969,0.04309563,-0.12449849,-0.062249243
1570715611,0.58418524,9.576807,-1.2354081,-0.0063917814,0.0031958907,-0.01384886,0.10534488,-0.1436521,-0.05746084
1570715611,0.60812724,9.667787,-1.1587936,-0.0063917814,0.0,-0.012783563,0.1340753,-0.05267244,0.01436521
1570715611,0.49320555,9.696517,-1.1779473,-0.0063917814,-0.0031958907,-0.0042611877,0.019153614,-0.023942016,-0.0047884034
1570715611,0.4261679,9.586384,-1.1971009,-0.0010652969,0.0074570784,-0.0010652969,-0.04309563,-0.1340753,-0.023942016
1570715611,0.47884035,9.543288,-1.1587936,0.0,-0.017044751,0.0031958907,0.0047884034,-0.17717093,0.009576807
1570715612,0.45489833,9.677363,-1.0965444,-0.0010652969,-0.009587673,0.005326485,-0.04309563,-0.04309563,0.07182605
1570715612,0.48841715,9.706094,-1.2258313,-0.0063917814,0.0010652969,-0.0042611877,0.01436521,-0.01436521,-0.05267244
1570715612,0.4261679,9.653421,-1.0965444,-0.01065297,-0.0074570784,-0.022371236,0.0,-0.038307227,0.047884032
1570715612,0.51235914,9.65821,-1.1348516,-0.011718267,-0.0042611877,-0.017044751,0.047884032,-0.06703765,0.02873042
1570715612,0.47405192,9.586384,-1.0534488,-0.018110048,-0.017044751,-0.0085223755,0.009576807,-0.1388637,0.10534488
1570715612,0.49320555,9.600749,-1.1875241,0.0031958907,-0.0010652969,-0.0031958907,0.033518825,-0.12449849,-0.02873042
1570715612,0.62249243,9.629479,-1.0965444,-0.0021305939,-0.005326485,0.0,0.15801731,-0.095768064,0.05746084
1570715612,0.49799395,9.696517,-1.13964,-0.0063917814,-0.0085223755,0.0021305939,0.047884032,-0.062249243,0.023942016
1570715612,0.45968673,9.672575,-1.1109096,-0.009587673,-0.0031958907,-0.009587673,0.019153614,-0.05267244,0.04309563
1570715612,0.47405192,9.696517,-1.1061212,-0.0085223755,-0.0063917814,-0.012783563,0.038307227,-0.05267244,0.04309563
1570715612,0.4261679,9.648633,-1.1252748,-0.01065297,-0.0063917814,-0.01065297,-0.07182605,-0.08140286,0.04309563
1570715612,0.521936,9.643845,-1.1109096,-0.0063917814,-0.005326485,-0.0010652969,0.062249243,-0.1340753,0.009576807
1570715612,0.46926352,9.662998,-1.1683705,-0.0031958907,-0.0074570784,-0.0074570784,0.01436521,-0.062249243,-0.019153614
1570715612,0.47884035,9.629479,-1.2497733,0.0,-0.0021305939,-0.0085223755,0.019153614,-0.1340753,-0.06703765
1570715612,0.5506664,9.648633,-1.1587936,-0.0042611877,-0.0021305939,-0.0031958907,0.076614454,-0.076614454,0.04309563
1570715612,0.5554548,9.691729,-1.1013328,-0.0031958907,0.0063917814,-0.005326485,0.076614454,-0.06703765,0.0
1570715612,0.48362875,9.677363,-1.2162545,0.0010652969,0.026632423,-0.014914157,0.01436521,-0.047884032,-0.023942016
1570715612,0.3878607,9.634268,-1.0965444,-0.005326485,0.005326485,-0.018110048,-0.02873042,-0.11971009,0.062249243
1570715612,0.4405331,9.662998,-1.1492168,-0.0074570784,0.0031958907,-0.009587673,-0.01436521,-0.08140286,-0.038307227
1570715612,0.40222588,9.548077,-1.1587936,-0.005326485,-0.0074570784,-0.005326485,-0.009576807,-0.20111294,0.01436521
1570715612,0.45489833,9.701305,-1.1013328,0.005326485,0.0063917814,-0.0031958907,0.009576807,-0.023942016,0.038307227
1570715612,0.44532153,9.677363,-1.1300632,-0.0042611877,0.0021305939,-0.0021305939,0.0,-0.047884032,0.009576807
1570715612,0.38307226,9.65821,-1.115698,-0.0031958907,0.009587673,-0.0085223755,-0.05746084,-0.06703765,0.023942016
1570715612,0.37828386,9.706094,-1.0869676,-0.009587673,0.0021305939,-0.009587673,-0.05746084,-0.023942016,0.05267244
1570715612,0.37828386,9.65821,-1.0965444,-0.0074570784,0.0010652969,-0.0085223755,-0.05746084,-0.05267244,0.062249243
1570715612,0.45010993,9.65821,-1.1109096,-0.0010652969,0.0074570784,-0.009587673,0.01436521,-0.07182605,0.023942016
1570715612,0.45010993,9.648633,-1.091756,-0.0010652969,0.0,-0.0063917814,0.019153614,-0.10055647,0.02873042
1570715612,0.4357447,9.639056,-1.1444284,-0.0085223755,-0.0010652969,-0.0031958907,0.0,-0.090979666,-0.0047884034
1570715612,0.4261679,9.572019,-1.1875241,-0.0010652969,-0.0063917814,-0.0021305939,-0.0047884034,-0.15801731,-0.047884032
1570715612,0.50278234,9.682152,-1.1061212,0.0010652969,-0.017044751,0.0,0.06703765,-0.047884032,0.02873042
1570715612,0.45010993,9.691729,-1.0342951,-0.0063917814,0.0010652969,-0.0021305939,0.01436521,-0.038307227,0.095768064
1570715612,0.4357447,9.643845,-1.091756,-0.0074570784,0.0042611877,-0.014914157,0.0047884034,-0.08619126,0.038307227
1570715612,0.44532153,9.576807,-1.1444284,-0.0031958907,-0.019175345,-0.0085223755,0.019153614,-0.15322891,-0.009576807
1570715612,0.47405192,9.624691,-1.091756,-0.0021305939,-0.017044751,0.0,0.047884032,-0.10534488,0.038307227
1570715613,0.46447513,9.629479,-1.0869676,0.005326485,-0.009587673,0.0063917814,0.038307227,-0.10055647,0.04309563
1570715613,0.45489833,9.600749,-1.1204864,0.0085223755,-0.0074570784,0.01065297,0.023942016,-0.12928689,0.009576807
1570715613,0.40701428,9.696517,-1.0726024,0.01384886,-0.0031958907,0.005326485,-0.023942016,-0.033518825,0.062249243
1570715613,0.35434186,9.653421,-1.0773908,0.015979454,-0.0031958907,0.0,-0.076614454,-0.076614454,0.062249243
1570715613,0.36391866,9.706094,-1.0342951,0.012783563,0.0085223755,-0.005326485,-0.06703765,-0.023942016,0.10534488
1570715613,0.40222588,9.677363,-1.1540052,0.0021305939,0.009587673,-0.0063917814,0.0,-0.033518825,0.05267244
1570715613,0.46926352,9.691729,-1.1971009,-0.0085223755,0.017044751,-0.005326485,0.038307227,-0.038307227,-0.05267244
1570715613,0.4165911,9.624691,-1.1971009,-0.0021305939,0.020240642,-0.01384886,-0.0047884034,-0.1388637,0.01436521
1570715613,0.45489833,9.629479,-1.1109096,0.0085223755,0.018110048,-0.0074570784,0.02873042,-0.10055647,0.02873042
1570715613,0.50757074,9.605537,-1.1252748,-0.0021305939,0.02130594,-0.0021305939,0.08140286,-0.12449849,0.01436521
1570715613,0.41180268,9.696517,-1.1109096,0.009587673,0.02130594,-0.0021305939,-0.009576807,-0.033518825,0.02873042
1570715613,0.34476504,9.610326,-1.2066777,0.005326485,0.022371236,0.0021305939,-0.08140286,-0.11971009,-0.05746084
1570715613,0.45010993,9.581595,-1.1109096,0.0,0.012783563,-0.005326485,0.019153614,-0.14844051,0.033518825
1570715613,0.50278234,9.643845,-1.1731589,0.0021305939,0.0063917814,-0.0063917814,0.062249243,-0.12449849,-0.0047884034
1570715613,0.4405331,9.605537,-1.091756,0.0,0.0063917814,-0.0063917814,0.0,-0.10534488,0.04309563
1570715613,0.46447513,9.653421,-1.1683705,0.01065297,0.009587673,-0.0021305939,0.02873042,-0.11971009,0.033518825
1570715613,0.45968673,9.672575,-1.1204864,0.005326485,0.012783563,0.0042611877,0.02873042,-0.05267244,0.02873042
1570715613,0.45489833,9.682152,-1.1300632,-0.0031958907,0.014914157,-0.0010652969,0.0047884034,-0.047884032,0.01436521
1570715613,0.4213795,9.672575,-1.1013328,0.0010652969,0.0063917814,-0.0085223755,-0.05746084,-0.095768064,-0.0047884034
1570715613,0.38307226,9.610326,-1.163582,0.0042611877,0.0074570784,-0.0063917814,-0.02873042,-0.076614454,0.02873042
1570715613,0.4213795,9.610326,-1.0965444,0.0010652969,0.005326485,-0.0010652969,0.0,-0.095768064,0.023942016
1570715613,0.48362875,9.691729,-1.2114661,-0.0021305939,-0.0042611877,0.0031958907,0.047884032,-0.11492168,-0.01436521
1570715613,0.36391866,9.615114,-1.1731589,0.005326485,0.0074570784,-0.0010652969,-0.062249243,-0.08619126,-0.0047884034
1570715613,0.47884035,9.605537,-1.1731589,0.0085223755,0.0010652969,0.0,0.06703765,-0.15322891,-0.07182605
1570715613,0.49799395,9.720459,-1.1252748,0.0042611877,-0.0021305939,0.011718267,0.04309563,0.0,0.033518825
1570715613,0.49799395,9.720459,-1.1252748,0.0042611877,-0.0021305939,0.011718267,0.04309563,0.0,0.033518825
1570715613,0.50278234,9.65821,-1.1061212,-0.0063917814,0.014914157,0.0,-0.0047884034,-0.05746084,0.019153614
1570715613,0.45489833,9.639056,-1.1348516,-0.0010652969,-0.0010652969,-0.0063917814,0.0,-0.06703765,0.038307227
1570715613,0.51235914,9.562442,-1.1731589,-0.011718267,0.0010652969,-0.005326485,0.08140286,-0.15322891,-0.033518825
1570715613,0.56982,9.600749,-1.2066777,-0.0021305939,0.009587673,-0.009587673,0.1340753,-0.12449849,-0.05746084
1570715613,0.51714754,9.65821,-1.1492168,-0.0031958907,0.0021305939,-0.0031958907,0.08619126,-0.06703765,0.0
1570715613,0.45968673,9.648633,-1.1731589,0.0021305939,0.009587673,0.0021305939,0.076614454,-0.06703765,-0.009576807
1570715613,0.39743748,9.65821,-1.1013328,0.01065297,0.011718267,-0.0031958907,-0.033518825,-0.06703765,0.047884032
1570715614,0.4261679,9.65821,-1.091756,0.0063917814,0.009587673,-0.0085223755,-0.0047884034,-0.06703765,0.05746084
1570715614,0.39743748,9.619903,-1.1492168,-0.0042611877,0.0,0.0,-0.033518825,-0.10534488,0.0
1570715614,0.4165911,9.600749,-1.091756,-0.005326485,0.0010652969,-0.0031958907,-0.01436521,-0.12449849,0.05746084
1570715614,0.4261679,9.634268,-1.1827357,0.0010652969,0.0031958907,-0.0074570784,0.0,-0.090979666,-0.02873042
1570715614,0.48362875,9.672575,-1.115698,0.0063917814,0.0,0.0063917814,0.047884032,-0.05267244,0.033518825
1570715614,0.45489833,9.706094,-1.043872,0.005326485,-0.0031958907,0.0074570784,0.019153614,-0.019153614,0.10534488
1570715614,0.38307226,9.605537,-1.1300632,-0.0010652969,0.0031958907,0.0042611877,-0.047884032,-0.11971009,0.019153614
1570715614,0.39264908,9.653421,-1.1587936,0.0010652969,0.0031958907,0.0085223755,-0.04309563,-0.07182605,-0.0047884034
1570715614,0.39743748,9.639056,-1.1587936,-0.0031958907,-0.0074570784,-0.011718267,-0.038307227,-0.08619126,-0.0047884034
1570715614,0.4261679,9.624691,-1.1013328,-0.0010652969,-0.0042611877,-0.005326485,-0.01436521,-0.10055647,0.08619126
1570715614,0.36391866,9.595961,-1.1731589,-0.009587673,-0.017044751,0.0010652969,-0.06703765,-0.12928689,-0.023942016
1570715614,0.45489833,9.634268,-1.0965444,0.0021305939,-0.015979454,0.0042611877,0.019153614,-0.090979666,0.047884032
1570715614,0.47405192,9.65821,-1.0869676,-0.0031958907,-0.022371236,0.0031958907,0.0,-0.08140286,0.04309563
1570715614,0.44532153,9.65821,-1.0582372,-0.0085223755,-0.0074570784,-0.009587673,-0.038307227,-0.023942016,0.06703765
1570715614,0.37349546,9.65821,-1.091756,-0.023436533,-0.0085223755,-0.020240642,-0.01436521,-0.033518825,0.05267244
1570715614,0.4165911,9.629479,-1.1348516,-0.03089361,-0.02130594,-0.026632423,0.0,-0.10055647,-0.02873042
1570715614,0.47405192,9.648633,-1.115698,-0.025567126,0.0042611877,-0.033024207,0.062249243,-0.08140286,0.0047884034
1570715614,0.46447513,9.586384,-1.1300632,-0.015979454,0.011718267,-0.02769772,0.033518825,-0.17238252,-0.033518825
1570715614,0.45968673,9.643845,-1.1061212,-0.0074570784,0.01384886,-0.015979454,0.08619126,-0.11971009,-0.08619126
1570715614,0.46926352,9.591172,-1.13964,-0.0085223755,0.023436533,0.0010652969,0.06703765,-0.16280572,-0.0047884034
1570715614,0.4357447,9.562442,-1.0534488,0.0031958907,0.023436533,0.0031958907,0.095768064,-0.18674773,0.047884032
1570715614,0.4357447,9.768343,-1.1540052,0.0085223755,0.043677174,0.0074570784,0.047884032,-0.04309563,-0.009576807
1570715614,0.51235914,9.696517,-1.1204864,-0.0021305939,0.03728539,0.01384886,0.12928689,-0.06703765,0.0047884034
1570715614,0.36870706,9.65821,-1.0821792,0.0042611877,0.05646074,0.0,0.0,-0.095768064,0.05746084
1570715614,0.4309563,9.610326,-1.1252748,0.012783563,0.05113425,0.005326485,-0.019153614,-0.10534488,0.0047884034
1570715614,0.2873042,9.682152,-1.0534488,0.0063917814,0.014914157,0.0074570784,-0.110133275,-0.12928689,0.10055647
1570715614,0.3878607,9.672575,-1.0965444,0.01065297,0.01384886,0.0,-0.02873042,-0.047884032,0.04309563
1570715614,0.33997664,9.701305,-1.067814,0.005326485,0.0074570784,0.005326485,-0.033518825,-0.047884032,0.08619126
1570715614,0.34476504,9.629479,-1.0869676,0.005326485,-0.005326485,0.0031958907,-0.05746084,-0.11492168,0.023942016
1570715614,0.34476504,9.653421,-1.1492168,0.0042611877,-0.02130594,0.0063917814,-0.04309563,-0.090979666,0.01436521
1570715614,0.47405192,9.677363,-1.1827357,0.0042611877,-0.028763017,0.0085223755,0.009576807,-0.076614454,0.047884032
1570715614,0.51235914,9.648633,-1.163582,0.0074570784,-0.033024207,0.01065297,0.11492168,-0.110133275,-0.0047884034
1570715614,0.49320555,9.619903,-1.1683705,0.0,-0.015979454,0.0085223755,0.019153614,-0.18195933,0.05746084
1570715615,0.50278234,9.619903,-1.2114661,0.012783563,-0.02130594,0.009587673,0.06703765,-0.18195933,-0.009576807
1570715615,0.51235914,9.662998,-1.1923125,0.014914157,-0.022371236,0.015979454,0.076614454,-0.06703765,-0.05267244
1570715615,0.5650316,9.710882,-1.1013328,0.011718267,-0.014914157,0.012783563,0.12449849,-0.019153614,0.038307227
1570715615,0.49320555,9.691729,-1.115698,0.011718267,-0.005326485,0.009587673,0.07182605,-0.05267244,-0.047884032
1570715615,0.49799395,9.653421,-1.1779473,0.0021305939,-0.0074570784,0.005326485,0.05267244,-0.07182605,-0.02873042
1570715615,0.45968673,9.629479,-1.163582,0.009587673,-0.0010652969,-0.0063917814,0.01436521,-0.095768064,-0.01436521
1570715615,0.5410896,9.648633,-1.1683705,0.0042611877,-0.019175345,-0.0010652969,0.095768064,-0.076614454,-0.01436521
1570715615,0.47405192,9.572019,-1.1348516,0.0042611877,-0.012783563,0.0063917814,0.02873042,-0.15322891,0.01436521
1570715615,0.49320555,9.662998,-1.1252748,0.017044751,-0.011718267,0.015979454,0.04309563,-0.062249243,0.023942016
1570715615,0.44532153,9.691729,-1.1540052,0.02130594,-0.01065297,0.017044751,0.047884032,-0.062249243,-0.019153614
1570715615,0.521936,9.677363,-1.091756,0.01065297,0.0042611877,-0.0031958907,0.062249243,-0.047884032,0.06703765
1570715615,0.45489833,9.65821,-1.2210429,0.0021305939,0.01384886,-0.0031958907,0.0,-0.06703765,-0.05267244
1570715615,0.49320555,9.634268,-1.2210429,0.0021305939,0.011718267,-0.011718267,0.038307227,-0.090979666,-0.05267244
1570715615,0.4357447,9.682152,-1.2162545,0.0010652969,0.017044751,-0.0085223755,-0.01436521,-0.04309563,-0.047884032
1570715615,0.46926352,9.509769,-1.1779473,0.0085223755,0.019175345,-0.0085223755,0.01436521,-0.21547815,-0.009576807
1570715615,0.5315128,9.576807,-1.1923125,0.005326485,0.022371236,-0.0085223755,0.062249243,-0.16280572,-0.009576807
1570715615,0.5506664,9.662998,-1.1444284,0.0085223755,0.025567126,-0.0063917814,0.10055647,-0.05267244,0.01436521
1570715615,0.46447513,9.643845,-1.1731589,0.0085223755,0.020240642,-0.0031958907,0.01436521,-0.08140286,0.0
1570715615,0.48841715,9.639056,-1.1492168,0.01065297,0.017044751,0.0031958907,-0.023942016,-0.076614454,0.0
1570715615,0.37828386,9.662998,-1.1923125,0.011718267,0.018110048,-0.0010652969,-0.038307227,-0.062249243,-0.047884032
1570715615,0.45010993,9.624691,-1.067814,0.0063917814,0.0042611877,-0.0085223755,-0.023942016,-0.12449849,0.05746084
1570715615,0.4261679,9.624691,-1.2066777,0.0010652969,0.0,0.0021305939,-0.009576807,-0.062249243,-0.033518825
1570715615,0.44532153,9.639056,-1.0821792,0.011718267,-0.0042611877,0.0074570784,-0.0047884034,-0.08140286,0.05746084
1570715615,0.46447513,9.710882,-1.1348516,0.01384886,-0.0042611877,0.01384886,-0.023942016,-0.06703765,0.04309563
1570715615,0.4309563,9.586384,-1.1061212,0.015979454,0.0085223755,0.0063917814,0.01436521,-0.08140286,0.10534488
1570715615,0.4309563,9.734824,-1.1204864,0.0031958907,0.01065297,0.0010652969,-0.04309563,0.0,0.090979666
1570715615,0.35913026,9.643845,-1.1779473,-0.0021305939,0.0031958907,-0.0010652969,-0.10055647,-0.076614454,0.05267244
1570715615,0.48362875,9.610326,-1.1444284,0.0074570784,-0.0042611877,-0.0063917814,-0.05746084,-0.1388637,0.033518825
1570715615,0.4261679,9.696517,-1.1779473,0.0031958907,-0.0010652969,0.0021305939,-0.033518825,-0.023942016,-0.02873042
1570715615,0.48362875,9.634268,-1.2114661,0.0021305939,-0.0063917814,0.005326485,-0.019153614,-0.110133275,0.0
1570715615,0.46447513,9.691729,-1.1875241,-0.0021305939,-0.015979454,0.0031958907,-0.023942016,-0.1340753,0.009576807
1570715615,0.50757074,9.605537,-1.1875241,-0.0010652969,-0.017044751,0.0010652969,0.02873042,-0.1340753,-0.033518825
1570715615,0.5363012,9.667787,-1.2354081,-0.0031958907,-0.018110048,0.0063917814,0.05267244,-0.095768064,-0.019153614
1570715615,0.5746084,9.710882,-1.2018893,-0.0010652969,-0.017044751,0.0010652969,0.090979666,-0.009576807,-0.0047884034
1570715616,0.5267244,9.667787,-1.2066777,-0.0063917814,-0.0074570784,-0.0074570784,0.062249243,-0.05267244,-0.01436521
1570715616,0.59855044,9.591172,-1.13964,-0.0074570784,-0.009587673,-0.0063917814,0.095768064,-0.17238252,0.009576807
1570715616,0.51714754,9.576807,-1.2210429,-0.009587673,-0.014914157,0.0063917814,0.05746084,-0.1436521,-0.033518825
1570715616,0.49320555,9.610326,-1.1540052,0.0031958907,-0.0085223755,0.0042611877,0.02873042,-0.110133275,0.02873042
1570715616,0.5315128,9.677363,-1.1731589,0.009587673,-0.0042611877,0.0021305939,0.06703765,-0.04309563,0.009576807
1570715616,0.50278234,9.619903,-1.1779473,-0.0063917814,-0.0010652969,0.005326485,0.038307227,-0.10055647,0.0047884034
1570715616,0.40222588,9.643845,-1.2066777,0.0031958907,0.009587673,0.0,-0.062249243,-0.076614454,-0.019153614
1570715616,0.44532153,9.648633,-1.1348516,0.005326485,0.012783563,0.0021305939,-0.019153614,-0.07182605,0.047884032
1570715616,0.50278234,9.648633,-1.1923125,-0.0021305939,0.0085223755,0.0063917814,0.033518825,-0.07182605,-0.0047884034
1570715616,0.49320555,9.581595,-1.1875241,0.0010652969,0.017044751,-0.0021305939,0.019153614,-0.1388637,0.0
1570715616,0.5410896,9.543288,-1.2018893,0.0042611877,0.011718267,0.0010652969,0.05746084,-0.19153613,0.019153614
1570715616,0.45010993,9.662998,-1.3120226,0.0042611877,-0.01384886,0.019175345,-0.023942016,-0.05746084,-0.11971009
1570715616,0.49320555,9.662998,-1.3024458,0.0085223755,-0.019175345,0.01384886,0.009576807,-0.05746084,-0.110133275
1570715616,0.50278234,9.624691,-1.2210429,0.0,-0.014914157,0.0063917814,0.019153614,-0.095768064,-0.023942016
1570715616,0.51714754,9.696517,-1.2593501,-0.0010652969,-0.0085223755,0.009587673,0.02873042,-0.023942016,-0.062249243
1570715616,0.49320555,9.653421,-1.1348516,-0.0042611877,0.0031958907,-0.0042611877,0.0047884034,-0.06703765,0.05746084
1570715616,0.45968673,9.533711,-1.1875241,-0.0021305939,-0.0042611877,-0.0031958907,0.038307227,-0.18674773,0.0
1570715616,0.48841715,9.581595,-1.1971009,-0.0063917814,-0.005326485,0.0,-0.05267244,-0.12449849,-0.01436521
1570715616,0.545878,9.643845,-1.1971009,0.0010652969,-0.0021305939,-0.0010652969,0.062249243,-0.076614454,-0.0047884034
1570715616,0.521936,9.691729,-1.2306197,-0.0031958907,-0.005326485,0.0085223755,0.04309563,-0.062249243,-0.009576807
1570715616,0.44532153,9.667787,-1.1731589,-0.0031958907,0.0,-0.0021305939,-0.038307227,-0.05267244,0.01436521
1570715616,0.45010993,9.65821,-1.1587936,0.0,-0.0042611877,-0.0085223755,-0.033518825,-0.062249243,0.02873042
1570715616,0.545878,9.634268,-1.1300632,0.0,-0.005326485,-0.0021305939,0.062249243,-0.08619126,0.05746084
1570715616,0.50278234,9.615114,-1.1779473,-0.005326485,-0.012783563,-0.0021305939,0.05746084,-0.04309563,0.047884032
1570715616,0.5554548,9.648633,-1.1540052,0.0,-0.0010652969,0.0021305939,0.05746084,-0.07182605,0.019153614
1570715616,0.45489833,9.672575,-1.1492168,0.0010652969,-0.005326485,0.0010652969,-0.033518825,-0.08619126,0.023942016
1570715616,0.5602432,9.672575,-1.163582,0.0042611877,0.0,-0.0010652969,-0.0047884034,-0.090979666,0.033518825
1570715616,0.50278234,9.682152,-1.1348516,0.0,-0.009587673,0.0,0.05746084,-0.047884032,0.019153614
1570715616,0.48841715,9.624691,-1.1827357,-0.0021305939,-0.005326485,-0.01065297,0.019153614,-0.12449849,0.023942016
1570715616,0.521936,9.653421,-1.2114661,-0.0042611877,0.0031958907,-0.0031958907,0.047884032,-0.062249243,0.07182605
1570715616,0.48362875,9.653421,-1.2401965,-0.0063917814,0.0031958907,-0.0085223755,-0.0047884034,-0.062249243,0.062249243
1570715616,0.46447513,9.543288,-1.2018893,-0.0042611877,-0.015979454,-0.0074570784,-0.019153614,-0.12928689,0.019153614
1570715616,0.5506664,9.581595,-1.2018893,-0.0010652969,0.0,-0.0042611877,0.10534488,-0.12928689,-0.04309563
1570715617,0.59376204,9.572019,-1.1827357,0.0042611877,-0.0042611877,-0.0031958907,0.090979666,-0.12928689,0.023942016
1570715617,0.59855044,9.634268,-1.2114661,0.0031958907,-0.0042611877,0.0085223755,0.08140286,-0.10055647,-0.019153614
1570715617,0.50757074,9.65821,-1.2114661,0.0042611877,0.0042611877,0.0031958907,0.019153614,-0.08619126,0.0
1570715617,0.5315128,9.643845,-1.1731589,0.0063917814,0.017044751,-0.01065297,0.009576807,-0.12449849,0.038307227
1570715617,0.49799395,9.667787,-1.1540052,-0.0021305939,0.01065297,-0.011718267,0.01436521,-0.05267244,0.033518825
1570715617,0.45489833,9.634268,-1.1827357,-0.0042611877,0.0074570784,-0.0042611877,-0.019153614,-0.08619126,0.0047884034
1570715617,0.45010993,9.624691,-1.2066777,-0.0021305939,0.0010652969,-0.0042611877,-0.0047884034,-0.090979666,0.02873042
1570715617,0.45010993,9.5385,-1.13964,0.0,-0.0063917814,0.0,0.0,-0.12449849,-0.009576807
1570715617,0.47405192,9.662998,-1.2593501,0.0063917814,-0.0074570784,0.0021305939,-0.0047884034,-0.05746084,-0.06703765
1570715617,0.5315128,9.552865,-1.1875241,0.005326485,-0.011718267,-0.0010652969,0.047884032,-0.16759412,0.0
1570715617,0.58418524,9.68694,-1.1540052,0.0031958907,-0.0074570784,0.0010652969,0.10055647,-0.033518825,0.038307227
1570715617,0.51714754,9.720459,-1.1348516,0.0010652969,0.005326485,-0.005326485,0.033518825,0.0,0.05746084
1570715617,0.4309563,9.605537,-1.2018893,-0.0063917814,0.01065297,-0.01384886,-0.04309563,-0.11492168,-0.009576807
1570715617,0.37349546,9.610326,-1.1683705,-0.0042611877,-0.0010652969,-0.01384886,-0.095768064,-0.110133275,0.019153614
1570715617,0.51714754,9.610326,-1.2258313,-0.0010652969,-0.009587673,-0.0074570784,0.04309563,-0.110133275,-0.033518825
1570715617,0.45489833,9.639056,-1.1109096,-0.0021305939,-0.01384886,-0.0010652969,-0.009576807,-0.08140286,0.076614454
1570715617,0.47884035,9.600749,-1.1971009,0.005326485,-0.0010652969,0.0074570784,0.0047884034,-0.11971009,-0.0047884034
1570715617,0.45968673,9.696517,-1.1252748,0.018110048,-0.0031958907,0.009587673,-0.009576807,-0.023942016,0.06703765
1570715617,0.40701428,9.701305,-1.1971009,0.009587673,0.0042611877,0.0,-0.06703765,-0.019153614,0.0
1570715617,0.5363012,9.65821,-1.1252748,-0.0031958907,0.0085223755,-0.009587673,0.062249243,-0.062249243,0.07182605
1570715617,0.5267244,9.691729,-1.1683705,-0.0021305939,0.017044751,-0.009587673,0.05746084,-0.062249243,0.033518825
1570715617,0.4357447,9.605537,-1.1875241,-0.0021305939,0.009587673,-0.009587673,-0.033518825,-0.11492168,0.0047884034
1570715617,0.51235914,9.624691,-1.1204864,0.011718267,0.014914157,-0.0085223755,0.04309563,-0.095768064,0.07182605
1570715617,0.5410896,9.691729,-1.1923125,0.0,0.0031958907,-0.0010652969,0.07182605,-0.02873042,0.0
1570715617,0.5363012,9.605537,-1.2449849,-0.0010652969,0.01384886,-0.0031958907,0.08140286,-0.07182605,-0.062249243
1570715617,0.5506664,9.619903,-1.1779473,0.009587673,0.012783563,-0.0085223755,0.06703765,-0.07182605,0.0
1570715617,0.48362875,9.634268,-1.1779473,0.005326485,0.0074570784,-0.0021305939,0.04309563,-0.038307227,-0.033518825
1570715617,0.48841715,9.653421,-1.1923125,0.0042611877,0.005326485,0.0031958907,-0.0047884034,-0.07182605,0.033518825
1570715617,0.3878607,9.610326,-1.2114661,0.0074570784,0.019175345,-0.014914157,-0.05267244,-0.11971009,0.0
1570715617,0.5315128,9.720459,-1.2066777,-0.0042611877,-0.0074570784,-0.01065297,0.06703765,-0.047884032,0.047884032
1570715617,0.48362875,9.68694,-1.163582,-0.01384886,-0.02130594,-0.0031958907,-0.04309563,-0.05746084,-0.0047884034
1570715617,0.47884035,9.5385,-1.2066777,0.0010652969,-0.012783563,0.0,0.01436521,-0.18195933,-0.009576807
1570715617,0.5506664,9.610326,-1.1731589,0.0,-0.01384886,-0.0042611877,0.02873042,-0.14844051,0.0047884034
1570715618,0.48362875,9.662998,-1.0869676,-0.0021305939,-0.009587673,-0.005326485,0.0047884034,-0.033518825,0.038307227
1570715618,0.50757074,9.682152,-1.1204864,-0.0063917814,-0.0021305939,-0.009587673,0.05267244,-0.07182605,-0.033518825
1570715618,0.5315128,9.662998,-1.1779473,-0.01065297,-0.0063917814,-0.01384886,0.076614454,-0.05746084,0.009576807
1570715618,0.47884035,9.605537,-1.1923125,-0.0085223755,0.0,-0.011718267,0.033518825,-0.06703765,0.01436521
1570715618,0.45010993,9.610326,-1.163582,-0.005326485,0.0063917814,-0.014914157,0.0047884034,-0.10055647,-0.02873042
1570715618,0.48362875,9.68694,-1.1683705,-0.0010652969,0.0031958907,-0.015979454,0.04309563,-0.08619126,0.0
1570715618,0.51235914,9.677363,-1.1683705,-0.012783563,0.009587673,-0.014914157,-0.0047884034,-0.06703765,-0.019153614
1570715618,0.49320555,9.576807,-1.1731589,-0.014914157,0.01065297,-0.023436533,0.0,-0.10055647,0.009576807
1570715618,0.45489833,9.682152,-1.2114661,-0.012783563,0.0063917814,-0.022371236,0.0047884034,-0.06703765,-0.009576807
1570715618,0.44532153,9.734824,-1.2162545,-0.019175345,-0.0010652969,-0.020240642,0.01436521,0.0047884034,-0.038307227
1570715618,0.36870706,9.576807,-1.0869676,-0.031958908,-0.019175345,-0.039415985,-0.076614454,-0.062249243,0.05267244
1570715618,0.39743748,9.562442,-1.1109096,-0.03089361,-0.012783563,-0.035154797,-0.009576807,-0.16280572,0.047884032
1570715618,0.40701428,9.639056,-1.091756,-0.029828314,-0.026632423,-0.023436533,0.0047884034,-0.090979666,0.05746084
1570715618,0.41180268,9.701305,-1.2162545,-0.017044751,-0.029828314,-0.014914157,0.01436521,-0.02873042,-0.06703765
1570715618,0.46447513,9.615114,-1.1587936,-0.017044751,-0.018110048,-0.017044751,0.07182605,-0.11492168,-0.01436521
1570715618,0.4357447,9.576807,-1.1013328,-0.014914157,-0.0031958907,-0.02450183,0.047884032,-0.15322891,0.033518825
1570715618,0.38307226,9.682152,-1.1013328,-0.02450183,0.009587673,-0.02769772,0.0,-0.047884032,0.02873042
1570715618,0.30645782,9.648633,-1.0965444,-0.019175345,0.009587673,-0.025567126,-0.06703765,-0.08140286,0.02873042
1570715618,0.36391866,9.610326,-1.0965444,-0.012783563,0.0042611877,-0.019175345,0.0,-0.12449849,0.023942016
1570715618,0.4309563,9.662998,-1.043872,-0.01065297,-0.0074570784,-0.011718267,0.062249243,-0.07182605,0.076614454
1570715618,0.35434186,9.677363,-1.0630256,-0.009587673,-0.0031958907,-0.0085223755,-0.01436521,-0.038307227,-0.04309563
1570715618,0.33039984,9.643845,-1.1252748,-0.0085223755,-0.0021305939,-0.01065297,-0.02873042,-0.090979666,-0.0047884034
1570715618,0.32561144,9.624691,-1.0773908,-0.01065297,-0.011718267,-0.0042611877,-0.033518825,-0.110133275,0.033518825
1570715618,0.33997664,9.639056,-1.0630256,-0.009587673,-0.009587673,-0.0031958907,-0.019153614,-0.095768064,0.047884032
1570715618,0.3878607,9.701305,-1.1061212,-0.0031958907,-0.0031958907,-0.009587673,0.02873042,-0.033518825,0.0047884034
1570715618,0.35913026,9.600749,-1.1492168,-0.01065297,-0.0085223755,-0.0042611877,-0.01436521,-0.14844051,0.01436521
1570715618,0.35913026,9.600749,-1.1492168,-0.01065297,-0.0085223755,-0.0042611877,-0.01436521,-0.14844051,0.01436521
1570715618,0.38307226,9.65821,-1.115698,-0.005326485,-0.014914157,-0.0042611877,0.02873042,-0.076614454,-0.009576807
1570715618,0.4405331,9.691729,-1.0726024,0.0042611877,-0.0042611877,0.0042611877,0.10055647,-0.019153614,0.02873042
1570715618,0.4261679,9.648633,-1.067814,-0.0042611877,-0.0021305939,0.005326485,0.038307227,-0.02873042,0.07182605
1570715618,0.2825158,9.65821,-1.0630256,-0.0021305939,0.015979454,-0.009587673,-0.076614454,-0.090979666,0.02873042
1570715618,0.38307226,9.677363,-1.067814,-0.0021305939,0.0085223755,-0.011718267,-0.033518825,-0.05267244,0.10055647
1570715618,0.35434186,9.701305,-1.0390835,-0.005326485,0.0021305939,-0.0063917814,0.038307227,-0.02873042,0.12449849
1570715618,0.2825158,9.595961,-1.0534488,0.0,0.015979454,-0.0021305939,-0.009576807,-0.1388637,0.047884032
1570715619,0.35913026,9.615114,-0.9911995,0.005326485,0.015979454,0.0,-0.009576807,-0.08140286,0.04309563
1570715619,0.34955344,9.710882,-1.115698,0.0042611877,0.0031958907,0.0021305939,-0.038307227,-0.062249243,-0.05267244
1570715619,0.320823,9.643845,-1.0151415,-0.0010652969,0.0042611877,0.0021305939,-0.023942016,-0.047884032,0.02873042
1570715619,0.32561144,9.605537,-0.9959879,-0.0021305939,0.0042611877,0.0021305939,-0.033518825,-0.12928689,0.06703765
1570715619,0.30166942,9.715671,-1.0630256,0.005326485,-0.0021305939,0.0031958907,-0.05267244,-0.019153614,0.019153614
1570715619,0.35434186,9.706094,-1.0007763,0.0031958907,-0.0085223755,0.0042611877,0.0,-0.02873042,0.023942016
1570715619,0.30166942,9.624691,-1.0247183,-0.005326485,0.0031958907,-0.0010652969,-0.04309563,-0.06703765,0.10055647
1570715619,0.36391866,9.701305,-1.115698,-0.0031958907,-0.01065297,-0.0063917814,-0.08140286,-0.08140286,0.038307227
1570715619,0.36870706,9.682152,-1.043872,-0.0010652969,-0.011718267,0.0074570784,-0.009576807,-0.019153614,0.009576807
1570715619,0.40222588,9.653421,-1.043872,0.0031958907,-0.009587673,0.0063917814,0.033518825,-0.110133275,-0.01436521
1570715619,0.41180268,9.648633,-1.1013328,0.0074570784,-0.011718267,0.011718267,0.05267244,-0.14844051,-0.038307227
1570715619,0.34955344,9.662998,-1.1204864,0.009587673,-0.0031958907,0.011718267,-0.009576807,-0.07182605,-0.01436521
1570715619,0.33039984,9.65821,-1.0247183,0.0031958907,-0.0031958907,0.0021305939,-0.02873042,-0.076614454,0.076614454
1570715619,0.320823,9.634268,-1.0199299,0.0031958907,0.01065297,-0.0042611877,-0.038307227,-0.10055647,0.08140286
1570715619,0.33039984,9.653421,-1.0151415,0.0031958907,-0.005326485,-0.0021305939,-0.02873042,-0.08140286,0.08619126
1570715619,0.31124622,9.619903,-1.1300632,-0.0031958907,-0.012783563,0.0,-0.047884032,-0.11492168,-0.023942016
1570715619,0.33997664,9.696517,-1.0055647,0.0010652969,-0.014914157,-0.0063917814,-0.023942016,-0.047884032,0.05267244
1570715619,0.33039984,9.682152,-1.115698,-0.0085223755,-0.028763017,-0.005326485,-0.023942016,-0.05267244,-0.009576807
1570715619,0.33997664,9.643845,-1.067814,-0.019175345,-0.029828314,-0.0074570784,-0.009576807,-0.090979666,0.02873042
1570715619,0.31124622,9.624691,-1.1204864,-0.0074570784,-0.029828314,-0.01065297,-0.033518825,-0.110133275,-0.023942016
1570715619,0.4213795,9.65821,-1.0342951,0.0021305939,-0.01384886,0.0,0.07182605,-0.076614454,0.05746084
1570715619,0.39743748,9.605537,-1.1444284,0.0010652969,-0.01065297,0.005326485,0.047884032,-0.12928689,-0.047884032
1570715619,0.4261679,9.68694,-1.0007763,0.01384886,-0.0021305939,-0.0031958907,0.076614454,-0.047884032,0.090979666
1570715619,0.40701428,9.634268,-1.1827357,0.0085223755,-0.005326485,0.0074570784,0.05746084,-0.10055647,-0.08140286
1570715619,0.29209262,9.643845,-1.0103531,0.0,0.0042611877,0.011718267,-0.05746084,-0.090979666,0.08619126
1570715619,0.41180268,9.605537,-1.0965444,0.018110048,0.0085223755,0.009587673,0.05267244,-0.12928689,0.0047884034
1570715619,0.35913026,9.662998,-1.0390835,0.019175345,0.009587673,0.017044751,0.0,-0.07182605,0.06703765
1570715619,0.4357447,9.696517,-1.0965444,0.01065297,0.02130594,0.0063917814,0.07182605,-0.038307227,0.009576807
1570715619,0.35434186,9.65821,-1.13964,0.0074570784,0.014914157,0.0063917814,-0.01436521,-0.095768064,-0.033518825
1570715619,0.40701428,9.706094,-1.1109096,0.0074570784,0.019175345,-0.0031958907,0.0,-0.11492168,0.038307227
1570715619,0.39743748,9.610326,-1.0821792,0.017044751,0.014914157,-0.0042611877,0.02873042,-0.12449849,0.033518825
1570715619,0.4213795,9.605537,-1.1779473,0.01065297,0.012783563,0.0042611877,0.06703765,-0.11971009,-0.019153614
1570715619,0.45010993,9.68694,-1.0965444,0.0074570784,0.02130594,0.009587673,0.076614454,-0.047884032,0.023942016
1570715620,0.47405192,9.629479,-1.1540052,0.009587673,0.018110048,0.0031958907,0.110133275,-0.08619126,-0.038307227
1570715620,0.47405192,9.629479,-1.1061212,0.015979454,0.026632423,0.0010652969,0.095768064,-0.16759412,0.01436521
1570715620,0.36391866,9.710882,-1.1540052,0.009587673,0.02450183,0.0,0.05746084,-0.06703765,0.06703765
1570715620,0.39743748,9.715671,-1.1013328,0.015979454,0.023436533,0.0031958907,0.05267244,-0.01436521,0.02873042
1570715620,0.3878607,9.662998,-1.1587936,0.0063917814,0.036220096,-0.0085223755,0.009576807,-0.0047884034,-0.062249243
1570715620,0.4309563,9.600749,-1.0965444,-0.0010652969,0.009587673,-0.009587673,0.019153614,-0.17238252,0.01436521
1570715620,0.40222588,9.557653,-1.1061212,0.0031958907,0.005326485,0.005326485,0.0,-0.076614454,-0.009576807
1570715620,0.35434186,9.653421,-1.1492168,0.012783563,0.01065297,0.0021305939,-0.02873042,-0.095768064,-0.0047884034
1570715620,0.47405192,9.677363,-1.1683705,0.018110048,0.0031958907,0.0063917814,-0.0047884034,-0.033518825,0.038307227
1570715620,0.3878607,9.672575,-1.1061212,0.01065297,0.0074570784,0.0042611877,-0.0047884034,-0.04309563,0.076614454
1570715620,0.29209262,9.730036,-1.1827357,0.0021305939,0.01384886,-0.0042611877,-0.076614454,-0.019153614,0.019153614
1570715620,0.40222588,9.619903,-1.1013328,0.0021305939,0.01065297,-0.0074570784,0.01436521,-0.110133275,0.04309563
1570715620,0.40701428,9.605537,-1.1444284,-0.005326485,0.012783563,-0.0063917814,0.019153614,-0.11492168,0.0
1570715620,0.45968673,9.691729,-1.1731589,-0.0042611877,0.015979454,-0.01384886,0.062249243,-0.05267244,-0.023942016
1570715620,0.4213795,9.629479,-1.1827357,-0.0042611877,0.012783563,-0.020240642,0.04309563,-0.10055647,-0.038307227
1570715620,0.49320555,9.701305,-1.13964,-0.0031958907,0.0085223755,-0.005326485,0.11492168,-0.02873042,0.0
1570715620,0.40701428,9.581595,-1.1300632,-0.0063917814,-0.0010652969,-0.0074570784,0.0047884034,-0.11492168,0.038307227
1570715620,0.33518824,9.677363,-1.1204864,-0.0031958907,0.0085223755,-0.0085223755,-0.01436521,0.0,0.047884032
1570715620,0.33518824,9.682152,-1.1300632,0.0,-0.0042611877,0.0031958907,-0.033518825,-0.047884032,0.0047884034
1570715620,0.272939,9.619903,-1.1492168,0.0021305939,-0.005326485,0.0074570784,-0.095768064,-0.110133275,-0.0047884034
1570715620,0.34955344,9.643845,-1.1444284,0.005326485,-0.028763017,0.005326485,-0.023942016,-0.08619126,0.0
1570715620,0.521936,9.677363,-1.043872,-0.0021305939,-0.025567126,0.0063917814,0.1436521,-0.05267244,0.095768064
1570715620,0.4261679,9.696517,-1.0965444,-0.009587673,-0.01384886,-0.009587673,0.05267244,-0.033518825,0.038307227
1570715620,0.37828386,9.615114,-1.115698,-0.014914157,-0.01065297,-0.0021305939,0.0047884034,-0.11492168,0.019153614
1570715620,0.35913026,9.605537,-1.0773908,-0.012783563,-0.011718267,-0.0021305939,-0.009576807,-0.12449849,0.05267244
1570715620,0.41180268,9.639056,-1.1252748,-0.0074570784,-0.012783563,-0.0085223755,0.038307227,-0.090979666,0.0
1570715620,0.320823,9.68694,-1.0773908,-0.01065297,0.005326485,-0.0074570784,-0.04309563,-0.04309563,0.047884032
1570715620,0.32561144,9.653421,-1.0582372,-0.019175345,-0.0085223755,-0.01065297,-0.038307227,-0.08140286,0.062249243
1570715620,0.34476504,9.610326,-1.13964,-0.01065297,0.0,-0.0085223755,-0.01436521,-0.12449849,-0.019153614
1570715620,0.36391866,9.706094,-1.0582372,-0.0074570784,-0.012783563,-0.0010652969,0.0,-0.02873042,0.05746084
1570715620,0.38307226,9.725247,-1.0726024,-0.01384886,-0.017044751,-0.0074570784,0.019153614,-0.009576807,0.038307227
1570715620,0.35913026,9.600749,-1.1013328,-0.01384886,-0.01065297,-0.005326485,0.0,-0.1340753,0.0047884034
1570715620,0.40222588,9.615114,-1.0390835,-0.01065297,-0.005326485,-0.0063917814,0.04309563,-0.11971009,0.06703765
1570715621,0.40222588,9.615114,-1.1061212,-0.0042611877,-0.0074570784,-0.0031958907,0.01436521,-0.08619126,0.05267244
1570715621,0.3878607,9.662998,-1.0582372,-0.005326485,-0.0042611877,0.0010652969,0.095768064,-0.076614454,-0.019153614
1570715621,0.36870706,9.662998,-1.0582372,-0.005326485,0.0,-0.0031958907,0.047884032,-0.062249243,0.033518825
1570715621,0.36391866,9.615114,-0.9959879,-0.005326485,0.0042611877,-0.0085223755,0.01436521,-0.08619126,0.06703765
1570715621,0.35434186,9.595961,-1.0582372,-0.0074570784,-0.0042611877,-0.0031958907,0.01436521,-0.12928689,0.05746084
1570715621,0.3878607,9.65821,-1.0390835,0.0,-0.0031958907,0.005326485,0.023942016,-0.090979666,0.05746084
1570715621,0.37828386,9.667787,-1.1061212,-0.0010652969,0.0010652969,0.005326485,0.038307227,-0.110133275,0.033518825
1570715621,0.31124622,9.653421,-1.0534488,0.0031958907,0.0063917814,-0.005326485,-0.04309563,-0.08140286,0.04309563
1570715621,0.30645782,9.672575,-1.0486604,-0.0031958907,0.005326485,-0.005326485,-0.01436521,-0.04309563,0.047884032
1570715621,0.29209262,9.634268,-1.0582372,-0.0042611877,-0.0042611877,-0.0031958907,-0.019153614,-0.019153614,0.06703765
1570715621,0.37349546,9.595961,-1.0534488,-0.0031958907,0.0,-0.0010652969,-0.009576807,-0.11492168,0.05746084
1570715621,0.32561144,9.615114,-1.0726024,-0.0010652969,-0.0010652969,-0.0042611877,0.009576807,-0.12928689,0.0
1570715621,0.35913026,9.648633,-1.0965444,0.0042611877,-0.0021305939,0.0021305939,-0.062249243,-0.090979666,0.009576807
1570715621,0.37828386,9.691729,-1.0965444,0.0031958907,-0.01065297,0.0074570784,0.019153614,-0.04309563,0.0
1570715621,0.39743748,9.624691,-1.067814,0.0042611877,-0.0085223755,0.0021305939,0.02873042,-0.10055647,0.08140286
1570715621,0.34955344,9.68694,-1.0582372,0.0031958907,-0.0042611877,0.0010652969,0.0047884034,-0.11492168,0.038307227
1570715621,0.33518824,9.701305,-1.1013328,0.0010652969,-0.0010652969,-0.0010652969,0.009576807,-0.062249243,0.009576807
1570715621,0.34476504,9.706094,-1.0630256,-0.0021305939,-0.0010652969,0.0,-0.023942016,-0.033518825,0.033518825
1570715621,0.320823,9.605537,-1.0534488,-0.005326485,-0.01384886,-0.005326485,-0.05267244,-0.10055647,0.06703765
1570715621,0.35913026,9.65821,-1.1013328,-0.005326485,-0.0074570784,0.0031958907,0.047884032,-0.10055647,0.0
1570715621,0.35434186,9.586384,-1.1204864,0.0042611877,-0.019175345,0.01065297,0.047884032,-0.110133275,0.04309563
1570715621,0.40222588,9.672575,-1.1252748,0.01065297,-0.015979454,0.015979454,0.04309563,-0.12928689,0.019153614
1570715621,0.39743748,9.634268,-1.0821792,0.01065297,0.0021305939,0.012783563,-0.009576807,-0.10534488,0.0047884034
1570715621,0.32561144,9.691729,-1.0726024,0.0063917814,-0.0042611877,0.0021305939,-0.038307227,-0.04309563,0.02873042
1570715621,0.2873042,9.677363,-1.1444284,-0.0021305939,-0.0042611877,-0.0031958907,-0.076614454,-0.05746084,-0.038307227
1570715621,0.32561144,9.615114,-1.0821792,-0.0010652969,-0.0063917814,-0.0021305939,-0.038307227,-0.11971009,0.019153614
1570715621,0.38307226,9.605537,-1.0199299,0.0021305939,-0.0042611877,0.0010652969,0.01436521,-0.12928689,0.08140286
1570715621,0.33997664,9.615114,-1.0773908,0.0063917814,-0.0063917814,0.0085223755,-0.023942016,-0.11971009,0.023942016
1570715621,0.35913026,9.629479,-1.115698,0.0031958907,-0.01384886,0.0063917814,-0.009576807,-0.10534488,-0.009576807
1570715621,0.34955344,9.619903,-1.1109096,0.009587673,-0.011718267,0.0042611877,-0.019153614,-0.11492168,0.0
1570715621,0.45489833,9.634268,-1.0342951,0.0074570784,-0.012783563,0.01065297,0.08140286,-0.10055647,0.07182605
1570715621,0.4213795,9.65821,-1.115698,0.0042611877,-0.0042611877,0.009587673,0.023942016,-0.06703765,-0.04309563
1570715621,0.4309563,9.643845,-1.1013328,0.0021305939,0.0085223755,0.005326485,0.05267244,-0.090979666,0.009576807
1570715621,0.39743748,9.648633,-1.1252748,0.0085223755,0.022371236,-0.0031958907,0.019153614,-0.08619126,-0.009576807
1570715622,0.48841715,9.581595,-1.13964,0.0010652969,0.0074570784,0.0,0.110133275,-0.15322891,-0.023942016
1570715622,0.4357447,9.581595,-1.1252748,0.0021305939,0.0074570784,0.01065297,0.05267244,-0.11971009,0.0
1570715622,0.44532153,9.643845,-1.0726024,0.01384886,0.0063917814,0.009587673,0.062249243,-0.090979666,0.038307227
1570715622,0.51235914,9.629479,-1.0869676,0.019175345,0.019175345,0.0085223755,0.11971009,-0.10534488,0.02873042
1570715622,0.40701428,9.730036,-1.0869676,0.0042611877,0.0085223755,0.01065297,0.06703765,-0.05267244,0.019153614
1570715622,0.41180268,9.624691,-1.091756,0.0031958907,0.0031958907,0.0042611877,-0.033518825,-0.04309563,0.047884032
1570715622,0.40701428,9.677363,-1.115698,0.0010652969,0.0085223755,0.0,-0.0047884034,-0.04309563,0.0047884034
1570715622,0.45010993,9.610326,-1.0869676,0.005326485,0.0042611877,-0.0042611877,-0.033518825,-0.076614454,0.0
1570715622,0.49320555,9.639056,-1.091756,0.0063917814,0.0063917814,0.0010652969,0.05746084,-0.076614454,0.033518825
1570715622,0.4261679,9.648633,-1.13964,0.0031958907,0.0021305939,0.005326485,0.01436521,-0.08140286,-0.009576807
1570715622,0.3878607,9.634268,-1.1348516,0.01065297,0.005326485,0.0031958907,0.023942016,-0.08619126,0.0
1570715622,0.3878607,9.591172,-1.1827357,0.012783563,0.0063917814,-0.0021305939,0.062249243,-0.12928689,0.062249243
1570715622,0.46447513,9.691729,-1.1204864,0.01384886,0.0085223755,-0.0042611877,0.06703765,-0.038307227,0.01436521
1570715622,0.47405192,9.763555,-1.0773908,0.0074570784,0.0074570784,0.0021305939,0.05267244,0.019153614,0.038307227
1570715622,0.35913026,9.682152,-1.1013328,-0.0042611877,0.023436533,-0.0074570784,-0.02873042,-0.076614454,0.0
1570715622,0.39743748,9.576807,-1.0965444,-0.0021305939,-0.0010652969,-0.0085223755,-0.019153614,-0.1388637,0.01436521
1570715622,0.4213795,9.677363,-1.1540052,0.0010652969,-0.0021305939,0.0,0.023942016,-0.05267244,-0.01436521
1570715622,0.4165911,9.600749,-1.0726024,0.0074570784,-0.005326485,-0.0010652969,0.05746084,-0.06703765,0.05267244
1570715622,0.48841715,9.619903,-1.1875241,0.0010652969,0.0010652969,-0.0010652969,0.110133275,-0.090979666,0.0047884034
1570715622,0.51714754,9.725247,-1.1109096,-0.0010652969,0.0063917814,0.0010652969,0.11971009,-0.0047884034,0.023942016
1570715622,0.40701428,9.629479,-1.115698,-0.0063917814,0.0031958907,-0.009587673,0.009576807,-0.10055647,-0.047884032
1570715622,0.40222588,9.639056,-1.1348516,-0.005326485,0.0074570784,-0.014914157,0.05267244,-0.110133275,-0.01436521
1570715622,0.47884035,9.634268,-1.0869676,-0.0085223755,0.0063917814,-0.01065297,0.090979666,-0.062249243,0.05267244
1570715622,0.35913026,9.572019,-1.115698,-0.0031958907,0.005326485,0.0031958907,0.0047884034,-0.17717093,0.019153614
1570715622,0.32561144,9.56723,-1.2162545,0.005326485,-0.01065297,0.01065297,-0.06703765,-0.16280572,-0.08140286
1570715622,0.36391866,9.605537,-1.1204864,0.009587673,-0.014914157,0.018110048,-0.033518825,-0.12449849,0.009576807
1570715622,0.3878607,9.662998,-1.13964,0.01065297,-0.028763017,0.018110048,-0.01436521,-0.06703765,0.0
1570715622,0.39743748,9.715671,-1.1348516,-0.015979454,-0.05219955,0.017044751,-0.0047884034,-0.01436521,0.0
1570715622,0.33997664,9.639056,-1.0582372,0.0042611877,-0.023436533,0.012783563,-0.06703765,-0.090979666,0.076614454
1570715622,0.32561144,9.624691,-1.0965444,0.019175345,-0.005326485,0.01384886,-0.08619126,-0.10534488,0.04309563
1570715622,0.48841715,9.65821,-1.1683705,0.0074570784,-0.02130594,0.012783563,0.07182605,-0.07182605,-0.023942016
1570715622,0.4309563,9.682152,-1.1348516,0.0042611877,-0.02450183,0.020240642,0.009576807,-0.047884032,0.009576807
1570715622,0.41180268,9.572019,-1.0773908,-0.0010652969,-0.0021305939,0.018110048,-0.009576807,-0.15801731,0.06703765
1570715623,0.40222588,9.682152,-1.091756,0.0063917814,0.0063917814,0.018110048,-0.023942016,-0.04309563,0.05267244
1570715623,0.35434186,9.605537,-1.0726024,-0.0021305939,-0.0074570784,0.023436533,-0.033518825,-0.12449849,0.05267244
1570715623,0.40222588,9.720459,-1.1492168,0.0,-0.009587673,0.03835069,-0.04309563,-0.0047884034,0.0
1570715623,0.34955344,9.701305,-1.0773908,-0.0042611877,-0.020240642,0.036220096,-0.05746084,-0.023942016,0.06703765
1570715623,0.51714754,9.667787,-1.163582,-0.0031958907,0.0010652969,0.017044751,0.05267244,-0.05746084,-0.019153614
1570715623,0.6560113,9.562442,-1.1731589,-0.0074570784,0.011718267,0.012783563,0.18674773,-0.16280572,-0.02873042
1570715623,0.6607997,9.595961,-1.2210429,0.0021305939,0.06285252,-0.0031958907,0.20590134,-0.12928689,-0.08140286
1570715623,0.7422025,9.586384,-1.2401965,0.0085223755,0.1054644,-0.01384886,0.272939,-0.1388637,-0.095768064
1570715623,0.7230489,9.720459,-1.1683705,-0.0021305939,0.15979454,-0.033024207,0.2777274,0.009576807,-0.10055647
1570715623,0.7038953,9.715671,-1.2449849,-0.01065297,0.21625528,-0.08735435,0.24899697,-0.01436521,-0.110133275
1570715623,0.6799533,9.586384,-1.1444284,-0.026632423,0.23649593,-0.09800732,0.23463176,-0.17238252,-0.038307227
1570715623,0.59855044,9.605537,-1.1779473,-0.039415985,0.21625528,-0.089484945,0.18195933,-0.12449849,-0.062249243
1570715623,0.521936,9.528923,-1.163582,-0.020240642,0.22264706,-0.08309316,0.10534488,-0.14844051,-0.062249243
1570715623,0.48841715,9.509769,-1.1731589,-0.0042611877,0.22371235,-0.07883197,0.11971009,-0.19632454,-0.038307227
1570715623,0.5650316,9.56723,-1.0965444,0.0063917814,0.2077329,-0.04793836,0.19153613,-0.15801731,0.009576807
1570715623,0.41180268,9.624691,-1.1252748,0.009587673,0.19175345,-0.03089361,0.05746084,-0.110133275,0.0
1570715623,0.21068975,9.758766,-1.067814,-0.0010652969,0.19601464,-0.036220096,-0.14844051,0.047884032,-0.062249243
1570715623,0.272939,9.710882,-1.0199299,-0.01065297,0.17151281,-0.058591332,-0.095768064,-0.05746084,0.062249243
1570715623,0.24899697,9.591172,-1.0151415,-0.0063917814,0.14807628,-0.064983115,-0.11492168,-0.1436521,0.076614454
1570715623,0.16280572,9.624691,-1.0821792,-0.009587673,0.10866029,-0.043677174,-0.17717093,-0.11492168,0.038307227
1570715623,0.272939,9.624691,-0.9768343,-0.0085223755,0.09374613,-0.011718267,-0.076614454,-0.07182605,0.1340753
1570715623,0.01436521,9.595961,-0.9768343,0.01065297,0.053264845,0.009587673,-0.272939,-0.11492168,0.1436521
1570715623,-0.095768064,9.595961,-0.9720459,0.031958908,0.033024207,0.02769772,-0.45489833,-0.1388637,0.06703765
1570715623,-0.1388637,9.672575,-0.93373865,0.03728539,-0.022371236,0.04900366,-0.45010993,-0.110133275,0.21547815
1570715623,-0.17717093,9.77792,-0.90500826,0.039415985,-0.08096257,0.07563608,-0.5602432,0.038307227,0.20590134
1570715623,0.24420857,9.720459,-0.9768343,0.03728539,-0.1747087,0.089484945,-0.21068975,-0.038307227,0.15322891
1570715623,0.24420857,9.720459,-0.9768343,0.03728539,-0.1747087,0.089484945,-0.21068975,-0.038307227,0.15322891
1570715623,0.49799395,9.68694,-1.043872,0.019175345,-0.16192514,0.08309316,0.06703765,-0.0047884034,0.08619126
1570715623,0.6368576,9.691729,-1.1492168,0.020240642,-0.13529271,0.04154658,0.18674773,-0.038307227,0.023942016
1570715623,0.81402856,9.706094,-1.2018893,0.020240642,-0.09055024,0.029828314,0.29688102,-0.095768064,-0.047884032
1570715623,0.6895301,9.600749,-1.1683705,0.0021305939,-0.057526033,0.029828314,0.23463176,-0.12449849,-0.0047884034
1570715623,0.63206923,9.619903,-1.2689269,-0.0031958907,-0.022371236,0.040481284,0.23463176,-0.1388637,-0.10534488
1570715623,0.7374141,9.600749,-1.3120226,-0.0042611877,-0.022371236,0.03728539,0.2633622,-0.12449849,-0.15322891
1570715624,0.6895301,9.452309,-1.1875241,0.0074570784,0.0010652969,0.0042611877,0.21068975,-0.272939,-0.02873042
1570715624,0.5315128,9.730036,-1.13964,0.02130594,0.015979454,0.01065297,0.05267244,0.0,0.019153614
1570715624,0.62249243,9.548077,-1.1492168,0.02130594,0.064983115,0.020240642,0.1340753,-0.17238252,0.019153614
1570715624,0.35913026,9.77792,-1.1300632,0.017044751,0.04154658,0.04261188,-0.090979666,0.08140286,0.047884032
1570715624,0.58418524,9.595961,-1.3120226,-0.029828314,0.01384886,0.045807768,0.062249243,-0.033518825,-0.19632454
1570715624,0.59376204,9.768343,-1.1492168,0.03089361,0.0031958907,0.01065297,0.05267244,0.009576807,0.08140286
1570715624,0.47884035,9.639056,-1.163582,0.029828314,0.01065297,0.005326485,-0.038307227,-0.08140286,0.01436521
1570715624,0.5554548,9.485827,-1.2114661,0.0010652969,0.015979454,0.012783563,0.10055647,-0.047884032,0.01436521
1570715624,0.6703765,9.873688,-1.3599066,0.03728539,0.02769772,0.0074570784,0.1436521,0.15322891,-0.16759412
1570715624,0.6655881,9.629479,-1.1923125,0.01065297,0.02450183,0.026632423,0.12928689,-0.08619126,0.0
1570715624,0.6751649,9.715671,-1.1827357,0.005326485,0.05646074,-0.005326485,0.090979666,-0.10534488,-0.06703765
1570715624,0.5267244,9.639056,-1.2162545,0.0010652969,0.045807768,-0.015979454,0.02873042,-0.023942016,-0.038307227
1570715624,0.6464345,9.56723,-1.2018893,0.0,0.05113425,-0.011718267,0.110133275,-0.14844051,-0.009576807
1570715624,0.59855044,9.619903,-1.1683705,0.005326485,0.043677174,-0.0074570784,0.06703765,-0.095768064,0.019153614
1570715624,0.60333884,9.634268,-1.163582,0.014914157,0.046873067,0.0,0.08140286,-0.076614454,0.01436521
1570715624,0.59376204,9.591172,-1.2066777,0.01384886,0.04261188,0.0010652969,0.08619126,-0.08140286,0.047884032
1570715624,0.5410896,9.605537,-1.1971009,0.0031958907,0.036220096,-0.0074570784,0.0,-0.16280572,0.019153614
1570715624,0.62249243,9.730036,-1.2545617,0.012783563,0.036220096,-0.0042611877,0.08619126,0.0047884034,-0.05746084
1570715624,0.61291564,9.591172,-1.2593501,-0.0031958907,0.020240642,-0.0010652969,0.038307227,-0.08619126,-0.0047884034
1570715624,0.5506664,9.495404,-1.2066777,0.0042611877,0.015979454,-0.005326485,0.0,-0.14844051,-0.0047884034
1570715624,0.5363012,9.586384,-1.2018893,0.015979454,0.02450183,-0.0021305939,0.0,-0.12928689,0.0
1570715624,0.60812724,9.639056,-1.1587936,0.0031958907,0.009587673,0.0010652969,0.095768064,-0.033518825,-0.019153614
1570715624,0.5793968,9.581595,-1.2449849,0.0031958907,0.0031958907,0.01065297,0.02873042,-0.07182605,-0.05267244
1570715624,0.5650316,9.552865,-1.2210429,0.0021305939,-0.0021305939,0.018110048,0.019153614,-0.16280572,-0.05267244
1570715624,0.6368576,9.730036,-1.1587936,0.0063917814,-0.0010652969,0.0085223755,0.06703765,0.0047884034,0.05746084
1570715624,0.6607997,9.691729,-1.2162545,0.0021305939,0.023436533,-0.01065297,0.08140286,0.01436521,-0.05746084
1570715624,0.6655881,9.557653,-1.2785037,-0.020240642,0.02130594,-0.02450183,0.11971009,-0.19153613,-0.05267244
1570715624,0.7230489,9.591172,-1.1875241,-0.014914157,0.040481284,-0.023436533,0.16759412,-0.21068975,-0.02873042
1570715624,0.641646,9.586384,-1.163582,-0.012783563,0.023436533,-0.02769772,0.10534488,-0.12928689,0.02873042
1570715624,0.82360536,9.289502,-1.2593501,0.046873067,-0.03089361,-0.05539544,0.23942018,-0.91458505,0.24899697
1570715624,0.58418524,9.89763,-1.1587936,0.028763017,-0.01384886,-0.039415985,0.062249243,0.17717093,0.047884032
1570715624,0.4357447,9.461885,-1.2354081,0.034089502,-0.03728539,-0.015979454,-0.18195933,-0.50278234,-0.01436521
1570715624,0.46926352,9.849746,-1.436521,0.060721926,-0.10866029,-0.03728539,-0.08140286,-0.24420857,0.090979666
1570715624,0.23463176,9.749189,-1.4652514,-0.0042611877,-0.07776668,-0.0021305939,-0.15322891,0.0047884034,-0.18195933
1570715625,0.44532153,9.476251,-1.115698,-0.0074570784,-0.043677174,0.036220096,-0.05267244,-0.23463176,0.11971009
1570715625,0.35434186,9.600749,-1.3455414,0.018110048,-0.1054644,0.031958908,-0.14844051,-0.110133275,-0.10055647
1570715625,0.45010993,9.509769,-1.3551182,0.0085223755,-0.07989727,0.03728539,-0.062249243,-0.20111294,-0.10055647
1570715625,0.49799395,9.749189,-1.1779473,0.0031958907,-0.07457078,0.04154658,-0.023942016,0.033518825,0.07182605
1570715625,0.5554548,9.56723,-1.2976574,-0.020240642,-0.119313255,0.029828314,0.05746084,-0.17238252,-0.033518825
1570715625,0.5554548,9.615114,-1.115698,-0.0074570784,-0.088419646,0.026632423,0.019153614,-0.095768064,0.12928689
1570715625,0.63206923,9.351752,-1.3120226,-0.0031958907,-0.10759499,0.0085223755,0.095768064,-0.35913026,-0.05746084
1570715625,0.6368576,9.409213,-1.316811,-0.01065297,-0.0021305939,-0.0042611877,0.10055647,-0.30166942,-0.06703765
1570715625,0.6799533,9.56723,-1.115698,0.02769772,-0.025567126,-0.03089361,0.15322891,-0.1436521,0.12928689
1570715625,0.6847417,9.509769,-1.2210429,0.0021305939,0.026632423,0.018110048,0.15801731,-0.20111294,0.033518825
1570715625,0.5506664,9.648633,-1.2593501,-0.0074570784,-0.034089502,0.017044751,0.08619126,-0.12928689,-0.095768064
1570715625,0.7134721,9.605537,-1.115698,0.063917816,-0.02769772,0.02130594,0.17717093,-0.10055647,0.1388637
1570715625,0.7517793,9.56723,-1.2258313,0.10759499,-0.08522376,-0.014914157,0.21547815,-0.1388637,0.062249243
1570715625,0.50757074,9.653421,-1.0199299,0.088419646,-0.11292148,-0.04154658,-0.009576807,-0.047884032,0.29209262
1570715625,0.40222588,9.801862,-1.316811,0.011718267,-0.19601464,-0.02450183,-0.05746084,0.1340753,-0.22505496
1570715625,0.46926352,9.950302,-1.3790601,0.0021305939,-0.30041373,0.017044751,-0.009576807,-0.02873042,0.12928689
1570715625,0.5554548,9.232041,-1.5705963,-0.011718267,-0.23969181,-0.15233746,0.12928689,-0.2873042,0.18674773
1570715625,0.272939,9.773131,-1.13964,0.12144385,-0.33663383,-0.10759499,-0.19632454,0.076614454,0.2873042
1570715625,0.2633622,9.423578,-1.4460979,0.092680834,-0.3419603,-0.08628905,-0.18674773,-0.19153613,0.023942016
1570715625,0.19632454,9.442732,-1.1875241,0.13316211,-0.34302562,-0.012783563,-0.14844051,-0.21068975,0.19632454
1570715625,0.51235914,9.648633,-1.5610195,0.068179004,-0.22371235,0.026632423,0.05267244,-0.20111294,-0.20111294
1570715625,0.2777274,9.500193,-1.6663644,0.1022685,-0.15979454,0.07457078,-0.023942016,0.08619126,-0.047884032
1570715625,0.48362875,9.471462,-1.5227122,0.15553336,-0.07563608,0.08735435,0.16759412,-0.21068975,0.095768064
1570715625,0.29688102,9.787497,-1.7429788,0.15979454,-0.03728539,0.02450183,0.019153614,0.033518825,-0.21547815
1570715625,0.29688102,9.648633,-1.532289,0.0692443,0.04900366,0.06285252,-0.1388637,0.038307227,-0.08140286
1570715625,0.076614454,8.796297,-0.37828386,0.17896989,-0.12677033,0.088419646,-0.047884032,0.10055647,0.5793968
1570715625,0.46926352,9.485827,-1.9201498,0.15020686,-0.23543063,0.059656627,0.038307227,-0.16759412,-0.25378537
1570715625,0.31124622,9.519346,-1.541866,0.09907261,-0.26419365,0.13103153,-0.047884032,-0.04309563,0.25378537
1570715625,0.01436521,9.485827,-2.5617957,0.13635801,-0.14168449,0.063917816,-0.36870706,0.038307227,-0.5602432
1570715625,0.04309563,8.987833,-2.695871,-0.035154797,0.25460598,0.019175345,-0.2681506,-0.5554548,-0.92895025
1570715625,0.60812724,10.726024,-1.7286136,0.0042611877,0.3472868,0.07883197,-0.090979666,1.5275006,0.2777274
1570715625,0.51235914,9.787497,-1.7812861,0.053264845,0.27165073,-0.05113425,-0.01436521,0.1436521,-0.062249243
1570715625,0.40701428,9.552865,-2.0207062,-0.064983115,0.29934844,-0.0063917814,0.0,-0.14844051,-0.23463176
1570715626,0.8331822,9.524135,-1.3311762,-0.0085223755,0.21838588,0.08309316,-0.023942016,0.110133275,0.34955344
1570715626,0.7565677,9.739613,-1.6998832,0.017044751,0.18749227,0.03835069,0.10055647,0.16280572,-0.033518825
1570715626,0.80445176,9.945514,-1.7525556,0.08096257,0.1395539,-0.0085223755,0.21068975,0.30166942,-0.05267244
1570715626,0.80924016,9.619903,-1.934515,0.009587673,0.15340276,-0.05219955,0.22026655,-0.01436521,-0.22505496
1570715626,0.61291564,10.654198,-2.030283,-0.12357444,0.18855755,-0.12463974,0.04309563,1.0055647,-0.34955344
1570715626,0.545878,10.601525,-1.6903064,-0.22797355,0.18216577,-0.044742472,0.0,0.94331545,-0.07182605
1570715626,0.50757074,10.462662,-1.7717092,-0.1384886,0.14594568,0.09800732,-0.05746084,0.79487497,-0.20590134
1570715626,0.47884035,9.835381,-1.8818425,-0.10652969,0.23543063,0.18855755,-0.1388637,0.16759412,-0.34955344
1570715626,0.7086837,9.323022,-1.7812861,-0.29082605,0.25247538,0.13635801,0.02873042,-0.34955344,-0.31603462
1570715626,0.6847417,9.940725,-1.4508862,-0.32278496,0.14381509,0.09374613,-0.023942016,0.25378537,-0.07182605
1570715626,1.4652514,10.821792,-1.283292,-0.4506206,0.22158176,0.1384886,0.7182605,1.1252748,-0.009576807
1570715626,1.0726024,10.6398325,-1.0821792,-0.25034478,0.11185618,0.25354066,0.34955344,0.9720459,-0.17717093
1570715626,0.92416185,10.371682,-1.5658079,-0.26845482,-0.113986775,0.31319728,0.033518825,0.6655881,-0.45010993
1570715626,1.3120226,10.405201,-1.7764976,-0.26738954,0.25673655,0.21518998,0.19632454,0.6991069,-0.7374141
1570715626,-0.15322891,9.533711,-0.8475474,-0.035154797,0.15446806,-0.05113425,-1.1348516,-0.17238252,0.1436521
1570715626,-0.272939,10.82658,-1.1348516,0.29828313,-0.035154797,-0.33024204,-1.1923125,1.1204864,-0.076614454
1570715626,2.054225,10.702082,-1.958457,-0.12783563,0.03728539,-0.58484805,1.3024458,0.9816227,-0.8858546
1570715626,1.4508862,10.491392,-0.4261679,-0.11185618,0.39415985,-0.54330146,0.842759,0.7565677,0.60333884
1570715626,-0.22984336,8.714894,-0.44532153,0.33237264,0.08309316,-0.46979594,0.24420857,-1.4221559,1.8004397
1570715626,0.023942016,9.160215,0.01436521,0.7414467,0.10972559,-0.99392205,-0.21547815,-0.5602432,1.2689269
1570715626,0.842759,11.089942,-1.0965444,1.0642316,0.017044751,-1.2890093,0.50278234,0.51235914,0.7134721
1570715626,1.8770541,12.411542,-3.9791632,0.3781804,-0.2865649,-1.5617253,2.432509,2.858677,-2.6623523
1570715626,3.4859576,11.707646,-1.043872,0.017044751,0.044742472,-1.1004517,4.429273,2.1021092,0.6943185
1570715626,3.6631286,12.200851,2.4899697,-0.37285393,-0.17683929,-0.33237264,4.333505,2.2840683,2.896984
1570715626,-0.1340753,12.119449,-0.40701428,-1.9942359,-1.3752984,0.03835069,1.3838485,2.1499932,1.5801731
1570715626,1.6567876,10.994174,0.22505496,-2.7676415,-0.07670138,-0.3100014,2.3894134,1.8195933,0.40701428
1570715626,0.6368576,10.371682,0.30166942,-2.5492556,-0.6359823,0.36433154,2.4277205,0.91458505,0.29688102
1570715626,-2.27928,8.930372,-0.06703765,-1.2815522,-0.9619631,0.37391922,-0.8619126,-0.80445176,-0.81881696
1570715626,-1.982399,10.242394,1.460463,-1.2868787,-1.1601083,-0.1033338,-0.9672575,0.5554548,0.31124622
1570715626,-2.054225,8.394072,-1.0390835,-1.5521376,-1.4637179,0.02450183,-0.90979666,-1.364695,-2.4947581
1570715626,-2.6479871,10.223241,0.51235914,-1.0141627,-0.9406572,-0.5156037,-1.8004397,0.10534488,-1.7381904
1570715626,-0.7661445,10.644621,-0.7422025,-1.0407951,-1.5723783,-0.5496932,-0.19153613,1.3120226,-3.1364043
1570715626,-0.34955344,10.127473,-2.2840683,-0.005326485,-1.3092499,0.14061919,0.6751649,0.45010993,-5.104438
1570715627,-1.6041151,9.313444,-0.34955344,0.67539823,-0.67646354,0.41226992,-0.7661445,-0.11492168,-2.906561
1570715627,-3.0358477,9.030929,1.6041151,1.550007,-1.6096637,0.07563608,-2.2361844,-0.7086837,-0.61770403
1570715627,-2.6862943,9.471462,0.7757214,2.138051,-2.3393922,-0.4836448,-2.255338,-0.1436521,-0.79008657
1570715627,-0.58418524,9.500193,-4.3957543,2.593998,-0.92041653,-0.7595567,-0.272939,-0.60333884,-5.5976434
1570715627,-0.15322891,10.778696,3.8546648,2.5652351,0.936396,-0.092680834,0.6655881,1.0103531,3.4955344
1570715627,-3.394978,8.049306,3.9025488,1.6192514,-0.40268224,0.47512242,-2.6527755,-1.7238252,4.1132383
1570715627,-4.951209,7.2065473,5.305551,0.32278496,-0.92041653,-0.2428877,-4.247314,-2.5617957,5.7748146
1570715627,-1.364695,6.8330517,0.1436521,-0.5443667,-0.24501829,-0.9726161,-0.4405331,-2.920926,0.46447513
1570715627,0.5650316,7.551312,0.7565677,0.07776668,-0.07137489,-0.57206446,1.7286136,-2.1787236,0.9959879
1570715627,-1.1827357,7.7428484,0.1436521,1.0003139,-0.4559471,0.09800732,0.0047884034,-1.9776106,0.56982
1570715627,-2.087744,8.394072,-0.5602432,0.43037996,-0.35793978,-0.2056023,-0.866701,-1.3120226,0.06703765
1570715627,0.5315128,8.470686,-0.07182605,0.44849002,0.30893612,-0.017044751,1.7956513,-1.2210429,0.6607997
1570715627,-0.5650316,8.829816,-0.89064306,0.13529271,-0.08202787,-0.18323107,0.7086837,-0.8571242,-0.06703765
1570715627,-1.4413095,9.639056,-0.39264908,-0.34089503,0.19921052,-0.1736434,-0.10055647,-0.04309563,0.37349546
1570715627,-2.681506,10.414778,0.94810385,-1.1206924,-0.6029581,-0.015979454,-1.3311762,0.7134721,1.4796166
1570715627,-3.9983168,10.151415,-0.545878,-1.912208,-2.077329,-0.5582156,-2.5905263,0.44532153,-0.5602432
1570715627,-2.360683,11.702858,-0.41180268,-2.0219336,-2.012346,-0.9790079,-1.3790601,2.528277,-1.6136919
1570715627,-2.2505496,9.940725,0.60333884,-2.0815902,-2.3947875,-0.8053645,-0.41180268,0.41180268,-0.81881696
1570715627,-1.115698,9.174581,2.0446482,-1.7108669,-1.7737194,-0.2056023,0.62728083,-0.01436521,0.2633622
1570715627,-0.36391866,8.39886,1.9009962,-1.6309696,-1.1814142,0.018110048,1.3838485,-0.89543146,-0.6799533
1570715627,-0.11492168,7.8146744,2.882619,-1.4935462,-0.7797974,-0.175774,1.6136919,-1.4030021,-0.25857377
1570715627,-1.1300632,6.861782,4.0701427,-1.0482522,-1.0972558,-0.2418224,0.5315128,-2.1739352,0.641646
1570715627,0.1340753,7.6710224,4.793192,-0.9704855,-0.74570787,-0.43251055,1.8818425,-1.2306197,1.043872
1570715627,0.090979666,7.6710224,3.394978,-0.6828553,-0.85756403,-0.42718408,1.7525556,-1.1827357,-0.5363012
1570715627,0.110133275,7.5848308,4.232949,-0.45914298,-0.56354207,-0.43570644,1.8722657,-1.1779473,0.0
1570715627,-0.2633622,7.589619,4.3239284,-0.22797355,-0.4516859,-0.3813763,1.5131354,-1.0582372,0.05746084
1570715627,-0.12449849,8.106767,4.31914,-0.10866029,0.01384886,-0.14594568,1.6950948,-0.63206923,-0.10534488
1570715627,-0.48841715,8.355764,4.31914,-0.07137489,0.31958908,0.13422741,1.460463,-0.22505496,-0.02873042
1570715627,-1.7142484,7.704541,3.667917,-0.04900366,0.5880439,0.175774,0.49799395,-0.91458505,-0.34476504
1570715627,-2.3415294,7.9631147,3.4284968,0.35687447,0.89591473,0.11292148,-0.545878,-0.9528923,-0.8619126
1570715627,-2.054225,9.083601,3.5625722,0.8362581,1.1132354,0.091615535,-0.2681506,0.25857377,-0.5506664
1570715627,-0.7469909,9.169792,6.133945,0.96835494,1.0631664,0.13209683,0.8379706,0.320823,1.4221559
1570715627,-5.2385135,9.203311,9.102755,-0.35793978,-0.0085223755,-0.13103153,-1.733402,0.44532153,5.415684
1570715627,-2.0685902,9.730036,2.432509,-1.1643696,-0.9033718,-0.4889713,0.019153614,0.7374141,-1.0007763
1570715628,-1.484405,9.217676,3.5769374,-0.3835069,-0.4889713,-0.10759499,0.33039984,0.59855044,-0.60812724
1570715628,-1.1923125,8.212111,3.8307228,-0.040481284,0.1054644,0.2791078,0.89064306,-0.44532153,-0.2681506
1570715628,-2.1308396,8.465898,4.6926355,0.18323107,0.36965802,0.23862651,0.038307227,-0.2825158,0.5746084
1570715628,-2.6527755,8.317456,4.5872903,0.089484945,0.13316211,0.07776668,-0.5602432,-0.4165911,0.6464345
1570715628,-2.4851813,8.346188,4.4005427,0.05113425,-0.113986775,-0.120378554,-0.5554548,-0.40222588,0.39743748
1570715628,-2.0207062,8.6095495,4.0318356,-0.08628905,-0.08415846,-0.117182665,0.023942016,-0.16280572,0.14844051
1570715628,-2.0973208,8.686164,3.9121256,-0.06285252,0.119313255,-0.0010652969,-0.04309563,0.062249243,-0.023942016
1570715628,-2.0398598,8.461109,3.940856,0.09800732,0.30467492,0.07989727,0.009576807,-0.25857377,-0.04309563
1570715628,-2.3702598,8.403648,4.5394063,0.2109288,0.3877681,-0.017044751,-0.25857377,-0.30645782,0.5650316
1570715628,-2.7246015,8.858546,4.0318356,0.24075711,0.33769912,-0.088419646,-0.58418524,0.08619126,0.19632454
1570715628,-2.2457612,9.006987,3.6535518,0.22158176,0.28976077,0.113986775,-0.15322891,0.37349546,-0.18195933
1570715628,-2.384625,8.48984,3.8402996,0.043677174,0.3483521,0.1395539,-0.18195933,-0.19632454,0.20111294
1570715628,-2.27928,8.42759,3.892972,0.070309594,0.33556855,0.08735435,-0.095768064,-0.5267244,0.22505496
1570715628,-2.6479871,8.6334915,3.6248214,0.08096257,0.35367858,0.07350549,-0.45968673,-0.21068975,0.0
1570715628,-3.3087866,8.513782,3.691859,0.07883197,0.16192514,-0.08628905,-1.091756,-0.33518824,0.10055647
1570715628,-2.585738,9.050082,3.6343982,0.1033338,0.012783563,-0.22797355,-0.31124622,0.19632454,0.06703765
1570715628,-2.4277205,9.11712,3.86903,-0.13529271,-0.07244019,-0.18855755,-0.10055647,0.2825158,0.29209262
1570715628,-2.6240451,8.671799,3.6535518,-0.2844343,-0.15020686,-0.15659864,-0.272939,-0.11492168,0.0
1570715628,-2.6288335,8.322245,3.3135753,-0.15659864,-0.11505207,-0.19814523,-0.24899697,-0.4261679,-0.41180268
1570715628,-2.456451,8.781932,4.0940847,0.06178722,-0.08202787,-0.26525894,-0.019153614,0.04309563,0.35434186
1570715628,-2.384625,8.963891,4.3047748,-0.16618632,-0.12570503,-0.122509144,0.08140286,0.24899697,0.5410896
1570715628,-2.6001031,8.6574335,4.050989,-0.22051647,-0.13209683,-0.035154797,-0.19632454,-0.023942016,0.21547815
1570715628,-2.7868507,8.379706,4.0078936,0.031958908,-0.09055024,-0.03089361,-0.32561144,-0.29209262,0.14844051
1570715628,-2.5330653,8.552089,3.916914,0.14914156,-0.04261188,-0.10013791,-0.062249243,-0.12928689,0.08140286
1570715628,-2.2936451,8.954314,3.8355112,0.1054644,0.10652969,-0.0010652969,0.19153613,0.25857377,0.033518825
1570715628,-2.5139117,8.585608,3.7732618,0.1043991,0.1725781,0.05539544,0.009576807,-0.04309563,0.08140286
1570715628,-2.6910827,8.595184,4.1180267,0.15233746,0.07563608,-0.014914157,-0.18674773,-0.1340753,0.4165911
1570715628,-2.6623523,8.6095495,3.9743748,0.07244019,0.0,-0.044742472,-0.14844051,-0.12449849,0.2873042
1570715628,-2.633622,8.384495,3.9552212,0.0042611877,-0.059656627,-0.07137489,-0.110133275,-0.320823,0.33518824
1570715628,-2.2888567,8.576031,4.146757,-0.009587673,-0.060721926,-0.057526033,0.24420857,-0.23942018,0.34955344
1570715628,-2.1691468,8.394072,3.6966474,-0.036220096,-0.03728539,0.033024207,0.272939,-0.17717093,0.05746084
1570715628,-2.873042,9.188946,3.8307228,0.20027582,0.3462215,-0.03728539,-0.33039984,0.45968673,0.1436521
1570715628,-3.083732,8.513782,4.817134,0.0085223755,-0.15872924,-0.053264845,-0.6847417,-0.10055647,1.2593501
1570715629,-2.7341783,8.42759,3.3901896,-0.2418224,-0.23330003,-0.08096257,-0.33039984,-0.32561144,-0.08140286
1570715629,-2.5905263,8.389283,3.7684734,0.05539544,-0.060721926,-0.094811425,-0.033518825,-0.33518824,-0.2825158
1570715629,-2.5905263,8.389283,3.7684734,0.05539544,-0.060721926,-0.094811425,-0.033518825,-0.33518824,-0.2825158
