time,ax,ay,az,gx,gy,gz,la_x,la_y,la_z,fox,foy,foz
1570715629,1.8154755,9.124603,-10.967651,-2.492096,-4.4155884,-0.5000305,-1.8394303,0.44681358,-7.106776
1570715629,2.2536163,8.763092,-6.1301575,-2.984253,-3.405716,-0.86968994,-1.3947768,0.2741413,-3.766185
1570715630,2.3170624,7.9083557,-4.9151,-1.4151154,-1.1697235,-1.1860657,0.20450544,-1.009263,-1.3001282
1570715630,2.1746063,10.004486,-3.8101807,0.11993408,0.2140503,-1.2521057,-0.29459667,0.3204584,-0.45587134
1570715630,3.8517456,12.993637,-6.45578,0.61846924,-1.1867676,-1.2276154,1.8340803,3.7633572,-2.5930264
1570715630,2.0608826,12.117355,-7.6445007,0.051757812,0.14587402,-0.65130615,0.74097764,3.147665,-4.388085
1570715630,2.3757172,12.897873,-5.2910004,-0.7503967,1.2676086,0.085861206,0.45715845,3.3157005,-2.5900722
1570715630,3.0293427,12.682388,-3.9227142,-1.7027435,1.3144684,0.35749817,1.5048493,3.4069443,-1.1241374
1570715630,3.5500793,10.965744,1.4043884,-2.3237915,-1.7971649,-0.31254578,2.2149053,1.4288769,3.91763
1570715630,0.33706665,10.6987915,-2.2479706,-1.5312347,-1.2837067,-0.93891907,-0.5822959,0.9214792,-0.06843603
1570715630,1.2660065,12.438187,0.27313232,-0.7109833,-0.35586548,-1.2947235,0.5041754,2.3636408,1.2761724
1570715630,-0.10346985,18.65593,-0.7420044,-1.9275055,-1.2549438,0.009155273,-1.1201353,6.388342,1.0226632
1570715630,0.939209,16.417343,6.1125946,-0.40312195,-0.044799805,1.5772247,-0.105944514,7.2471476,6.029889
1570715630,-1.6716766,13.136093,2.4051666,0.83792114,-1.052536,2.710678,-3.257444,3.243226,4.0990715
1570715630,3.1873627,8.362061,0.22764587,1.7306061,-0.48368835,2.6776428,-0.10886264,-0.26691246,1.4612674
1570715630,2.8820953,12.018005,-2.2503662,1.5388641,-0.5422821,1.5665741,-1.3081925,2.0180578,-0.46451044
1570715630,3.7045135,11.58226,-3.3911896,1.8041077,-0.7734375,1.2171631,0.4132557,2.7250748,-0.34119296
1570715630,2.3481903,10.23671,-2.2862701,1.5836029,-1.4264526,1.2640381,-0.2737143,2.1097097,1.081284
1570715630,2.1949615,10.125381,-0.81503296,1.078659,-2.641922,0.8858795,0.33049464,1.389121,1.9807007
1570715630,-0.6002655,6.213257,-7.005249,-1.4758301,-4.3676453,0.31489563,-3.6837125,-1.3285694,0.11463714
1570715630,1.6047974,4.890457,-8.482468,-3.2207336,-0.84588623,0.15403748,-1.7543516,-3.835721,-5.592103
1570715630,2.8030853,5.220871,-2.6597595,-2.4249878,0.2609253,-0.65982056,-0.2846861,-4.1462965,-0.08376145
1570715630,2.5457153,6.9159546,-22.06836,-1.5184479,-0.44960022,-0.523468,-0.0032503605,-2.2102718,-5.956067
1570715630,4.992584,8.964203,-3.1015015,-0.5224304,3.921173,-0.80895996,1.671653,-0.33030605,-3.3218746
1570715630,3.5740204,11.637329,-4.2842255,0.77719116,3.3395386,-0.46914673,0.50284886,1.6949034,-3.2495189
1570715630,3.809845,14.276932,-0.80426025,1.1851959,2.4308777,-0.52453613,1.0876417,4.201789,0.19153547
1570715630,3.6853485,15.526703,-1.6673737,1.3535004,1.1525574,0.093322754,0.48898125,5.480406,1.2307414
1570715630,-1.2490997,11.712738,2.3884125,-3.4263306,1.9855957,-0.53092957,-4.7026825,1.11907,2.810938
1570715630,1.6466827,13.544312,0.110321045,-1.2201691,-0.08314514,0.5652313,-0.9293859,4.1793404,2.2578268
1570715630,2.022583,11.074692,2.8636627,-0.4968567,1.3336487,1.2363434,-1.4416535,2.185134,2.1105814
1570715630,3.0460968,9.186859,-1.1059265,-0.22947693,0.55174255,1.246994,-0.76071644,0.17521763,-0.31225112
1570715630,3.0149689,6.5795746,-1.3848572,-0.26782227,1.6372528,1.0190277,-0.82332706,-2.242259,-2.2890787
1570715630,1.943573,5.653015,0.024139404,-0.30830383,1.6170044,0.014480591,-1.3157101,-3.7477264,-0.86856914
1570715630,0.5489502,7.565979,2.706833,0.09222412,1.6617432,-0.6811371,-2.947432,-2.933423,1.1782002
1570715630,1.165451,7.4809875,1.5336761,0.628067,0.27796936,-0.43824768,-2.4542382,-1.1996241,2.2522793
1570715631,-0.8169403,4.0919952,-2.7220154,0.39263916,0.47184753,-0.56288147,-3.518388,-5.503689,-3.3695283
1570715631,1.7520294,14.411011,4.9933014,-0.10697937,0.34614563,0.14550781,-3.0676777,1.8051376,1.9638151
1570715631,-0.5056915,12.006027,4.2786255,1.5473785,-1.8877106,1.3322144,-4.0672626,4.8477726,6.690935
1570715631,2.8713226,8.660141,0.49339294,2.23555,-2.502365,1.3503265,-1.3977637,-0.42438126,1.2407405
1570715631,2.5708466,10.885544,-5.846451,3.384964,-3.7220917,1.0456696,-1.7843933,2.0393867,-2.1181035
1570715631,5.3146057,11.224319,-9.132492,1.0413818,-0.9002075,0.8336792,0.8694525,2.6797762,-7.967046
1570715631,3.679367,5.2316437,-6.7179413,-1.4364166,0.38130188,-1.8529205,0.27071714,-2.6106014,-3.3008904
1570715631,7.276657,9.431061,-4.3824005,-1.0838165,0.33335876,-1.4534454,4.2085905,2.4672737,-2.9855473
1570715631,5.0368805,6.0145416,-10.263748,-0.55545044,1.1067505,-2.0563812,0.5856204,-3.3948278,-9.616704
1570715631,5.166168,8.336914,11.752136,-2.270523,2.3499146,-0.9634247,4.201784,1.0134125,5.5263877
1570715631,2.0991974,4.6701965,0.112716675,-0.724823,-0.48794556,-1.25531,-0.8503361,-4.407398,4.9839687
1570715631,1.2935486,8.885193,5.735504,-0.1410675,0.9363098,-1.8529205,0.15282536,-2.736864,3.7967515
1570715631,2.6163483,14.073425,2.5033264,1.0115509,-0.98542786,-1.6313477,0.00516212,2.39009,3.9958336
1570715631,-0.2746582,8.668518,-7.0160217,1.8552399,-2.9753418,-1.9498596,-0.3187325,-5.039666,-0.26816022
1570715631,0.8518219,19.161102,1.5205078,-1.5738373,0.22044373,-0.15382385,-4.0832424,6.502228,-11.892467
1570715631,0.21017456,13.136093,-4.1681213,-0.93148804,-1.176117,-1.5631714,1.2779696,3.983055,-1.9034296
1570715631,-4.9373627,12.802109,-1.7571564,-2.141632,1.3347168,-1.2574463,-2.748594,2.6140985,-4.0047207
1570715631,0.09764099,10.860413,7.2318726,0.2775879,0.9682617,-0.0014953613,0.38351488,0.98542404,8.924569
1570715631,-0.585907,9.827301,-2.9674225,0.091171265,0.29608154,0.107162476,-0.5156449,-0.5067568,-2.1419008
1570715631,-1.0312195,10.485718,-0.31105042,-0.040924072,0.47077942,0.023010254,-0.59645194,0.14351463,0.09415755
1570715631,-2.13974,0.82032776,-0.1769867,1.1361847,0.8287201,0.94766235,-8.86721,-8.50885,-0.007291019
1570715631,-1.8153229,4.655838,0.038497925,0.12312317,0.34188843,1.021164,-3.089251,-6.301962,-2.7756338
1570715631,-0.23036194,14.454102,0.35931396,0.7835846,0.2300415,1.2864075,-1.0355301,2.5400152,2.6595075
1570715631,6.7451477,9.452621,-8.136505,-0.37861633,0.1906128,-0.40948486,4.2494273,-0.38928127,-6.325322
1570715631,-6.1177063,8.175308,-0.19374084,-0.23054504,-0.15771484,-1.1317444,-6.388779,-1.959631,1.1678492
1570715631,-0.7702637,8.550003,2.8959808,0.37345886,1.0044861,1.0126343,-5.523983,-3.8615923,3.6748528
1570715631,2.0513153,11.905472,-4.905533,0.8549652,1.592514,-1.8475952,2.6588368,2.2275696,-5.2033777
1570715631,-6.574997,26.500534,-9.255798,-0.070755005,0.7573395,-6.435684,1.6573367,26.049349,-7.3614936
1570715631,-9.6719055,10.1493225,2.9103394,-0.29232788,1.369873,0.6664276,-9.872601,-0.034457207,4.250787
1570715631,-2.0355988,10.162491,-1.4399261,0.30316162,0.28862,0.09970093,0.67991483,0.37974548,0.42969787
1570715631,-2.0978394,10.75267,-1.443512,-0.07926941,-0.016036987,-0.21134949,-0.54649866,0.45412064,0.22313094
1570715631,-1.3867645,10.826889,-2.0001678,0.053878784,-0.020309448,0.023010254,0.35518825,0.7237139,-0.7555357
1570715631,-2.115799,9.872803,-1.0173492,0.044296265,-0.1342926,-0.010009766,-0.40999198,0.12881851,0.39713538
1570715631,-2.0475616,10.6150055,-1.8756714,-0.0057678223,-0.19819641,-0.024932861,-0.28079057,0.5361109,-0.6158066
1570715632,-1.143753,10.471344,-0.720459,-0.01322937,-0.08314514,-0.040908813,0.5914879,0.35308743,0.21660411
1570715632,-1.4154968,10.419876,-1.4375305,-0.012161255,-0.18222046,0.0070343018,0.38954806,0.49340248,-0.03224659
1570715632,-1.7997589,10.678452,-1.4447021,0.002746582,-0.23548889,-0.013214111,0.04812193,0.49500465,-0.12828016
1570715632,-1.9577789,10.5204315,-1.7296143,0.01020813,-0.040542603,-0.0014953613,-0.23520255,0.44338226,-0.37175882
1570715632,-1.7578583,10.576691,-1.3800659,-4.4250488E-4,-0.018173218,-0.0046844482,0.01625669,0.52656555,-0.12038946
1570715632,-1.9098969,10.406708,-1.4650574,-0.010040283,-0.04586792,0.011291504,-0.14031363,0.29618645,-0.20420313
1570715632,-1.9577789,10.527618,-1.601532,-0.010040283,-0.049057007,0.0070343018,-0.20403194,0.4269905,-0.24453104
1570715632,-1.9398193,10.41748,-1.6350555,0.008071899,-0.05545044,-0.0025634766,-0.22347152,0.37995338,-0.299757
1570715632,-1.8332825,10.404312,-1.451889,-4.4250488E-4,-0.07144165,6.4086914E-4,-0.1070739,0.26988506,-0.16626847
1570715632,-1.7506866,10.597046,-1.4614716,6.2561035E-4,-0.070373535,-0.007888794,0.018303514,0.43091202,-0.15306163
1570715632,-1.56633,10.564728,-1.5033722,0.0048828125,-0.058654785,-0.0068206787,0.15710187,0.47189713,-0.16396368
1570715632,-1.4514008,10.53479,-1.3657074,-0.01109314,-0.039474487,0.0027618408,0.30522943,0.3951931,-0.019444585
1570715632,-1.4394379,10.555145,-1.4255524,-0.028137207,-0.033081055,0.0070343018,0.27311885,0.3699751,-0.0946635
1570715632,-1.5052795,10.528809,-1.4650574,-0.010040283,0.004196167,0.0017089844,0.20013833,0.39649487,-0.13779855
1570715632,-1.5316162,10.429443,-1.4255524,-0.028137207,0.016983032,0.0017089844,0.24294281,0.21189117,-0.06785178
1570715632,-1.8488464,10.576691,-1.3381653,-0.030273438,0.0031280518,0.011291504,-0.09914434,0.38036537,-0.037852883
1570715632,-1.8919373,10.437836,-1.4626617,-0.028137207,0.028701782,-4.272461E-4,-0.20781732,0.27396202,-0.17073596
1570715632,-1.9003143,10.437836,-1.4064026,-0.03453064,0.016983032,-0.003616333,-0.17631114,0.21543407,-0.06654382
1570715632,-1.9338379,10.485718,-1.4399261,-0.02281189,-0.007522583,-0.0014953613,-0.2026025,0.27760506,-0.054510117
1570715632,-1.8620148,10.506058,-1.3968201,-0.037734985,-0.02243042,-0.007888794,-0.15092099,0.23325253,-0.11626387
1570715632,-1.8775787,10.507263,-1.2615509,-0.04624939,-0.030960083,-0.0057525635,-0.13930976,0.2526846,-0.04437828
1570715632,-1.8560333,10.540787,-1.1873322,-0.06542969,-0.058654785,0.0048980713,-0.06998479,0.26607227,0.033099055
1570715632,-1.8811646,10.652115,-1.2424011,-0.07608032,-0.029891968,0.008102417,-0.11388481,0.30225563,0.03925681
1570715632,-1.6034393,10.445007,-1.4506989,-0.049453735,-0.035217285,0.0059661865,0.11067331,0.23830128,-0.19302583
1570715632,-1.7698364,10.447403,-1.5021667,-0.040924072,-0.07144165,0.018753052,0.029609442,0.11631489,-0.282637
1570715632,-1.8656006,10.528809,-1.3860474,-0.05796814,-0.040542603,0.008102417,-0.14188302,0.1940155,-0.15599358
1570715632,-1.8177185,10.650909,-1.4602661,-0.06329346,-0.04373169,0.013427734,-0.0320915,0.2890892,-0.23837888
1570715632,-1.7614594,10.484512,-1.4662628,-0.07394409,-0.038406372,0.014480591,0.028777957,0.12330723,-0.30973756
1570715632,-1.9230652,10.412689,-1.3944244,-0.09951782,-0.044799805,0.013427734,-0.0704453,0.095541954,-0.24018538
1570715632,-1.8751831,10.556335,-1.3238068,-0.09098816,-0.04373169,0.0027618408,-0.14250016,0.13149357,-0.19679165
1570715632,-1.5842896,10.490509,-1.3309784,-0.07926941,-0.011779785,6.4086914E-4,0.15854573,0.14424801,-0.17700303
1570715632,-1.5435791,10.182846,-1.0700226,-0.06010437,-0.0043182373,-0.0014953613,0.224424,-0.15577793,0.021644473
1570715632,-1.5675201,10.429443,-0.9143982,-0.03453064,0.039352417,-0.033447266,0.16471899,0.0110731125,0.13537562
1570715633,-1.64534,10.825684,-0.79348755,-0.0057678223,0.02444458,-0.011077881,0.17332196,0.39217854,0.265535
1570715633,-2.0020752,10.573105,-0.70370483,-0.007904053,-0.08421326,0.02407837,-0.14018226,0.2524023,0.34076428
1570715633,-2.2486725,10.652115,-0.92396545,-0.053710938,-0.03414917,0.0070343018,-0.4670639,0.28157997,0.22636127
1570715633,-1.827301,10.5359955,-0.9215698,-0.07926941,0.04360962,-0.015335083,-0.17745268,0.20452309,0.06833625
1570715633,-1.6609039,10.37439,-0.98023987,-0.04838562,-0.042678833,0.012359619,0.0930562,-0.004652977,0.104770064
1570715633,-1.7434998,10.416275,-1.0975494,-0.02494812,-0.0597229,0.013427734,0.062922955,-9.059906E-4,-0.0889256
1570715633,-1.8141327,10.508453,-0.95269775,6.2561035E-4,-0.070373535,6.4086914E-4,-0.07641673,0.14036655,-0.006672621
1570715633,-1.8907471,10.6138,-0.93833923,-0.004714966,-0.089538574,0.019805908,-0.11690998,0.16292572,0.11131728
1570715633,-1.9924927,10.581482,-0.91200256,-0.016418457,-0.07144165,0.021942139,-0.24937463,0.2471714,0.05277729
1570715633,-1.8165283,10.488113,-0.9586792,-0.02281189,-0.04586792,-0.003616333,-0.11965644,0.050940514,0.046287656
1570715633,-1.6896362,10.567123,-1.028122,-0.029205322,-0.050125122,-0.0025634766,0.07345545,0.15546036,-0.062477052
1570715633,-1.6465302,10.5336,-0.9143982,-0.017486572,-0.038406372,0.008102417,0.10994589,0.1391058,0.033996284
1570715633,-1.7183533,10.527618,-0.8413696,-0.01109314,-0.033081055,0.0017089844,0.052617908,0.068434715,0.034145296
1570715633,-1.669281,10.569504,-0.8317871,-0.015365601,0.004196167,-0.0014953613,0.08233142,0.1340437,0.08297628
1570715633,-1.6812439,10.620987,-0.8018646,-0.004714966,0.019119263,-0.0025634766,0.053856015,0.19761944,0.13069165
1570715633,-1.6884308,10.522827,-0.9790344,0.011276245,0.014846802,-0.0025634766,0.06574893,0.09668255,0.0076633096
1570715633,-1.6812439,10.51445,-1.0041809,0.009140015,0.018051147,-0.0025634766,0.049644947,0.047802925,-0.05169946
1570715633,-1.8380737,10.546768,-0.9981842,6.2561035E-4,-6.1035156E-5,0.0027618408,-0.06343925,0.10001087,0.0167858
1570715633,-1.8835602,10.561127,-0.9072113,0.002746582,-0.014968872,0.008102417,-0.12815309,0.080311775,0.043496966
1570715633,-1.8045502,10.581482,-0.9981842,-0.0025787354,0.014846802,6.4086914E-4,-0.07614505,0.08409691,-0.029049277
1570715633,-1.7147675,10.567123,-0.9586792,-0.0025787354,0.013793945,-0.0014953613,0.019022703,0.0656929,-0.034150064
1570715633,-1.8201141,10.581482,-0.9790344,-0.007904053,-0.0053863525,0.009155273,-0.008475661,0.120999336,-0.022536457
1570715633,-1.7782135,10.570709,-1.0448761,-0.0015106201,0.035095215,-0.008956909,-0.065754175,0.04456711,-0.03625703
1570715633,-1.7901917,10.470154,-1.1262817,6.2561035E-4,0.02444458,-0.008956909,-0.0439651,-0.02117157,-0.19289064
1570715633,-1.8249054,10.427063,-1.0017853,0.02192688,0.028701782,-0.007888794,-0.08085668,-0.018266678,-0.082418144
1570715633,-1.8249054,10.556335,-0.9826355,0.027252197,0.0105896,-0.011077881,-0.02217865,0.08238506,-0.03577304
1570715633,-1.7830048,10.6150055,-1.0077667,0.0357666,-0.0021972656,-0.0057525635,-0.013700604,0.08823681,-0.015430212
1570715633,-1.8260956,10.47374,-1.0089722,0.0315094,0.0031280518,-0.013214111,-0.070593834,0.017083168,-0.024737954
1570715633,-1.8656006,10.59346,-0.96946716,0.018722534,-0.018173218,-0.010009766,-0.07057941,0.060954094,0.08247447
1570715633,-1.808136,10.551559,-0.92037964,0.017669678,-0.011779785,-0.008956909,-0.030105114,0.107224464,0.09928346
1570715633,-1.7542725,10.580292,-0.96347046,0.016601562,-0.027755737,-0.0025634766,0.06153488,0.08311272,0.042789817
1570715633,-1.7949677,10.521622,-0.88327026,0.014465332,-0.020309448,-0.0014953613,0.0059850216,0.038244247,0.08434093
1570715633,-1.7937775,10.570709,-0.9898071,0.013397217,-0.023498535,-0.007888794,-0.016691804,0.061748505,0.0022473335
1570715634,-1.7279358,10.503677,-1.0245209,0.014465332,-0.0053863525,-0.0046844482,-0.008751988,3.1089783E-4,0.0073884726
1570715634,-1.7698364,10.545563,-1.1143036,0.013397217,-0.011779785,-0.003616333,5.8436394E-4,0.032870293,-0.036874175
1570715634,-1.8847504,10.570709,-1.0137482,0.0059509277,0.009521484,-0.003616333,-0.047481894,0.04825592,-0.032630205
1570715634,-1.8883514,10.530014,-1.0161438,0.0048828125,-0.0011291504,-0.003616333,-0.048552513,0.03653145,-0.02364111
1570715634,-1.8644104,10.51445,-1.0867767,0.0048828125,-0.0043182373,-0.0025634766,-0.05986643,-0.007630348,-0.08046079
1570715634,-1.921875,10.489304,-1.1502228,0.007003784,-0.0021972656,-0.003616333,-0.09026921,0.014836311,-0.14789355
1570715634,-1.8907471,10.491699,-1.1095276,0.007003784,-0.018173218,-4.272461E-4,-0.07994485,-0.02371025,-0.012384772
1570715634,-1.8512421,10.538391,-1.1502228,0.007003784,-0.018173218,6.4086914E-4,-0.05856955,0.05499935,-0.027172327
1570715634,-1.7782135,10.557541,-1.131073,0.011276245,-0.03201294,6.4086914E-4,-0.020460606,0.056879044,-0.06579089
1570715634,-1.8751831,10.483322,-1.028122,-0.0036468506,-0.03201294,0.0048980713,-0.04633844,-0.03188038,-0.05342543
1570715634,-1.8548279,10.5755005,-1.0137482,-0.01322937,-0.029891968,0.0059661865,-0.025604129,0.05272484,0.035208106
1570715634,-1.7961731,10.483322,-1.1083221,0.0016784668,-0.025634766,0.003829956,-3.0338764E-4,-0.01037693,-0.054674864
1570715634,-1.8572235,10.448608,-1.1382446,-0.004714966,-0.033081055,-4.272461E-4,0.035497785,-0.114097595,-0.096113205
1570715634,-1.8165283,10.59346,-1.0664215,0.002746582,-0.014968872,-0.0046844482,-0.03953767,0.041659355,0.030190587
1570715634,-1.7494812,10.553955,-1.0245209,0.007003784,-0.026687622,0.009155273,0.061336398,0.049915314,0.037413716
1570715634,-1.9051056,10.510849,-1.0388947,0.011276245,-0.02243042,0.0027618408,-0.068780184,-0.02195549,-0.013289571
1570715634,-1.827301,10.588669,-0.96347046,-0.012161255,-0.016036987,-0.0046844482,0.010699034,0.08415413,0.068078995
1570715634,-1.8344727,10.570709,-0.9945984,-0.01109314,-0.02243042,0.010223389,0.014732599,0.05786419,0.01881051
1570715634,-1.8308868,10.491699,-1.0783997,-0.007904053,-0.023498535,0.0059661865,0.020629525,-0.0033931732,-0.030950904
1570715634,-1.7997589,10.466568,-1.1226959,-0.010040283,-0.019241333,0.0070343018,0.031140447,-0.04010296,-0.08805692
1570715634,-1.8751831,10.539581,-1.0975494,-0.004714966,-0.023498535,0.0070343018,-0.07703078,0.012124062,-0.0041018724
1570715634,-1.8440552,10.543182,-1.0532532,-0.0036468506,-0.016036987,-0.0014953613,-0.029929161,-0.003332138,-0.023426652
1570715634,-1.8141327,10.531204,-1.0329132,-0.01109314,-0.014968872,0.0048980713,0.03646159,0.016103745,-0.063687444
1570715634,-1.858429,10.550354,-1.0017853,-0.012161255,-0.02243042,0.0059661865,-0.031550407,0.014975548,0.0065824986
1570715634,-1.9015198,10.5359955,-0.9862213,-0.017486572,-0.021362305,0.0027618408,-0.019689202,0.009157181,0.017786741
1570715634,-1.8332825,10.472549,-1.0448761,-0.01322937,-0.026687622,6.4086914E-4,-5.9890747E-4,0.015464783,-0.042149544
1570715634,-1.7626495,10.4809265,-1.0436859,-0.0068359375,-0.03414917,0.003829956,0.04989505,-0.010246277,-0.015308738
1570715634,-1.8703918,10.544373,-0.9862213,-0.0015106201,-0.04373169,0.013427734,-0.0061787367,0.001042366,0.028567195
1570715634,-1.7279358,10.576691,-0.9586792,-0.0025787354,-0.013916016,0.0070343018,-0.0015642643,0.025770187,0.06220913
1570715634,-1.6393585,10.610214,-1.0269165,-0.021759033,0.042541504,0.0070343018,0.20450234,0.060626984,0.013527095
1570715634,-1.7207489,10.576691,-0.97784424,-0.02494812,0.089416504,-0.003616333,0.12981772,0.06955719,0.053305864
1570715634,-1.784195,10.507263,-0.91319275,-0.02494812,0.09048462,-0.003616333,0.021731973,0.03106308,0.08601016
1570715634,-1.7949677,10.532394,-1.0317078,-0.026016235,0.089416504,-4.272461E-4,0.008875728,0.009916306,-0.06502688
1570715634,-1.7099762,10.598236,-1.0891724,-0.031341553,0.0851593,-0.003616333,0.06890762,0.104338646,-0.12529105
1570715635,-1.7411041,10.456985,-1.0736084,-0.03453064,0.077697754,0.0059661865,0.021922827,-0.074207306,-0.10668701
1570715635,-2.0104523,10.530014,-1.0137482,-0.035598755,0.05000305,0.011291504,-0.19626164,-0.074297905,-0.06108427
1570715635,-1.9936981,10.525223,-1.0053711,-0.028137207,0.02444458,0.0017089844,-0.20964909,0.00961113,-0.07027888
1570715635,-1.9769287,10.429443,-0.8928528,-0.01109314,-0.009643555,-0.0046844482,-0.17768705,-0.061598778,0.03986287
1570715635,-1.7889862,10.477341,-0.8413696,-0.0057678223,-0.02243042,-0.0057525635,-6.585121E-4,-0.06568527,0.14667106
1570715635,-1.6920319,10.703583,-0.86291504,-0.0057678223,-0.028823853,0.0070343018,0.095846415,0.08932972,0.11071432
1570715635,-1.6549072,10.574295,-0.85095215,-4.4250488E-4,0.0020751953,-0.0025634766,0.1351515,0.033755302,0.10010612
1570715635,-1.5483704,10.513245,-0.7982788,-0.01322937,0.021240234,-0.0014953613,0.2644689,-0.046377182,0.08552909
1570715635,-1.6273804,10.610214,-0.81503296,-0.032409668,0.040420532,-0.0025634766,0.19904315,0.0763731,0.12947232
1570715635,-1.7231445,10.649719,-0.8593292,-0.030273438,0.05000305,-0.003616333,0.046952605,0.093577385,0.055029213
1570715635,-1.7147675,10.494095,-0.9539032,-0.039855957,0.07344055,-0.0046844482,0.04210174,-0.06684971,-0.015230775
1570715635,-1.7901917,10.582672,-0.93833923,-0.041992188,0.08302307,-0.0046844482,0.012614489,-0.03143406,-0.07343596
1570715635,-1.926651,10.512054,-0.9622803,-0.037734985,0.06918335,-0.007888794,-0.10557878,-0.020236015,-0.09037489
1570715635,-1.9362335,10.51445,-0.9479065,-0.035598755,0.0617218,-0.008956909,-0.16812253,-0.03422737,-0.054574013
1570715635,-2.0355988,10.490509,-0.9443207,-0.029205322,0.018051147,-0.007888794,-0.22762227,-0.07205582,-0.09575051
1570715635,-2.0308075,10.519226,-1.0317078,-0.030273438,-0.014968872,-0.015335083,-0.226089,-0.0013217926,-0.116930306
1570715635,-1.9781342,10.59584,-0.8892517,-0.02494812,-0.016036987,-0.008956909,-0.1570512,0.018865585,-0.062885165
1570715635,-1.9350433,10.489304,-0.7623596,-0.004714966,-0.05758667,-0.008956909,-0.07299614,-0.023975372,0.11871958
1570715635,-1.9122925,10.532394,-0.7803192,0.007003784,-0.060775757,-0.019607544,-0.07000232,-0.02848053,0.084784925
1570715635,-1.8931427,10.586273,-0.8820648,0.01234436,-0.042678833,-0.011077881,-0.022010088,0.03382206,-0.060322285
1570715635,-1.8045502,10.537186,-0.8868561,0.02192688,-0.023498535,0.0027618408,0.07151401,0.00374794,-0.010942996
1570715635,-1.7494812,10.509659,-0.91319275,0.020858765,-0.014968872,-0.0046844482,0.082244515,-0.013393402,-0.022824347
1570715635,-1.7063904,10.555145,-0.79467773,0.02192688,-0.029891968,-0.016403198,0.11705172,-0.011897087,0.073819995
1570715635,-1.772232,10.545563,-0.8413696,0.01979065,-0.04373169,-0.016403198,0.100853086,0.05793667,0.058963
1570715635,-1.7578583,10.547958,-0.8677063,0.038970947,-0.077819824,0.008102417,0.11421847,0.05165863,0.023107767
1570715635,-1.7423096,10.559937,-0.8569336,0.020858765,-0.051193237,0.0070343018,0.08820963,0.0014276505,0.014491439
1570715635,-1.7961731,10.662888,-0.8126373,0.0059509277,-0.028823853,-0.0046844482,0.032476902,0.102072716,0.03330469
1570715635,-1.7590637,10.494095,-0.878479,0.008071899,-0.016036987,-0.012145996,0.05891931,-0.030036926,0.039658606
1570715635,-1.6740723,10.4809265,-0.996994,0.013397217,-0.03414917,-0.0025634766,0.19728577,-0.078341484,-0.10664356
1570715635,-1.7387085,10.561127,-0.9072113,0.016601562,0.018051147,-0.0068206787,0.09009063,0.03720379,-0.03197819
1570715635,-1.7913818,10.558731,-0.8856659,0.007003784,0.02017212,0.0059661865,-0.0036096573,0.025258064,0.003609538
1570715635,-2.029602,10.500076,-1.0412903,0.011276245,0.029769897,6.4086914E-4,-0.17437077,-0.03690052,-0.10866958
1570715635,-2.0116577,10.45578,-0.97424316,-0.0057678223,0.035095215,-0.010009766,-0.17596996,-0.10000229,-0.059300184
1570715636,-2.0284119,10.488113,-0.8976288,0.009140015,0.018051147,-0.003616333,-0.15681827,-0.019320488,-0.05801159
1570715636,-2.0751038,10.598236,-0.9000244,0.022994995,-0.006454468,-0.0057525635,-0.16864812,0.039569855,0.0384084
1570715636,-2.0798798,10.565918,-0.9323578,0.024047852,-0.009643555,-0.0046844482,-0.19527507,0.043920517,0.036783874
1570715636,-2.0798798,10.565918,-0.9323578,0.024047852,-0.009643555,-0.0046844482,-0.19527507,0.043920517,0.036783874
1570715636,-2.0798798,10.565918,-0.9323578,0.024047852,-0.009643555,-0.0046844482,-0.19527507,0.043920517,0.036783874
1570715636,-2.0798798,10.565918,-0.9323578,0.024047852,-0.009643555,-0.0046844482,-0.19527507,0.043920517,0.036783874
1570715636,-2.0798798,10.565918,-0.9323578,0.024047852,-0.009643555,-0.0046844482,-0.19527507,0.043920517,0.036783874
1570715636,-2.0798798,10.565918,-0.9323578,0.024047852,-0.009643555,-0.0046844482,-0.19527507,0.043920517,0.036783874
1570715636,-2.0798798,10.565918,-0.9323578,0.024047852,-0.009643555,-0.0046844482,-0.19527507,0.043920517,0.036783874
1570715636,-2.0798798,10.565918,-0.9323578,0.024047852,-0.009643555,-0.0046844482,-0.19527507,0.043920517,0.036783874
1570715636,-2.0798798,10.565918,-0.9323578,0.024047852,-0.009643555,-0.0046844482,-0.19527507,0.043920517,0.036783874
1570715636,-2.0798798,10.565918,-0.9323578,0.024047852,-0.009643555,-0.0046844482,-0.19527507,0.043920517,0.036783874
1570715636,-1.7710266,10.537186,-1.0113525,0.049621582,0.0105896,-0.003616333,0.025144935,0.007306099,-0.012254596
1570715657,-1.7710266,10.537186,-1.0113525,0.049621582,0.0105896,-0.003616333,0.025144935,0.007306099,-0.012254596
1570715657,-1.7710266,10.537186,-1.0113525,0.049621582,0.0105896,-0.003616333,0.025144935,0.007306099,-0.012254596
1570715657,-1.7710266,10.537186,-1.0113525,0.049621582,0.0105896,-0.003616333,0.025144935,0.007306099,-0.012254596
1570715657,-1.7710266,10.537186,-1.0113525,0.049621582,0.0105896,-0.003616333,0.025144935,0.007306099,-0.012254596
1570715657,-1.7710266,10.537186,-1.0113525,0.049621582,0.0105896,-0.003616333,0.025144935,0.007306099,-0.012254596
1570715657,-1.7710266,10.537186,-1.0113525,0.049621582,0.0105896,-0.003616333,0.025144935,0.007306099,-0.012254596
1570715657,-1.7710266,10.537186,-1.0113525,0.049621582,0.0105896,-0.003616333,0.025144935,0.007306099,-0.012254596
1570715657,-1.7710266,10.537186,-1.0113525,0.049621582,0.0105896,-0.003616333,0.025144935,0.007306099,-0.012254596
1570715657,-1.7710266,10.537186,-1.0113525,0.049621582,0.0105896,-0.003616333,0.025144935,0.007306099,-0.012254596
1570715657,-1.7710266,10.537186,-1.0113525,0.049621582,0.0105896,-0.003616333,0.025144935,0.007306099,-0.012254596
1570715657,-1.7710266,10.537186,-1.0113525,0.049621582,0.0105896,-0.003616333,0.025144935,0.007306099,-0.012254596
1570715657,-1.7710266,10.537186,-1.0113525,0.049621582,0.0105896,-0.003616333,0.025144935,0.007306099,-0.012254596
1570715657,-1.7710266,10.537186,-1.0113525,0.049621582,0.0105896,-0.003616333,0.025144935,0.007306099,-0.012254596
1570715657,-1.7710266,10.537186,-1.0113525,0.049621582,0.0105896,-0.003616333,0.025144935,0.007306099,-0.012254596
1570715657,-1.7710266,10.537186,-1.0113525,0.049621582,0.0105896,-0.003616333,0.025144935,0.007306099,-0.012254596
1570715657,-1.7710266,10.537186,-1.0113525,0.049621582,0.0105896,-0.003616333,0.025144935,0.007306099,-0.012254596
1570715657,-1.7710266,10.537186,-1.0113525,0.049621582,0.0105896,-0.003616333,0.025144935,0.007306099,-0.012254596
1570715657,-1.7710266,10.537186,-1.0113525,0.049621582,0.0105896,-0.003616333,0.025144935,0.007306099,-0.012254596
1570715657,-1.7710266,10.537186,-1.0113525,0.049621582,0.0105896,-0.003616333,0.025144935,0.007306099,-0.012254596
1570715657,-1.7710266,10.537186,-1.0113525,0.049621582,0.0105896,-0.003616333,0.025144935,0.007306099,-0.012254596
1570715657,-1.7710266,10.537186,-1.0113525,0.049621582,0.0105896,-0.003616333,0.025144935,0.007306099,-0.012254596
1570715657,-1.7710266,10.537186,-1.0113525,0.049621582,0.0105896,-0.003616333,0.025144935,0.007306099,-0.012254596
1570715657,-1.7710266,10.537186,-1.0113525,0.049621582,0.0105896,-0.003616333,0.025144935,0.007306099,-0.012254596
1570715657,-1.7710266,10.537186,-1.0113525,0.049621582,0.0105896,-0.003616333,0.025144935,0.007306099,-0.012254596
1570715657,-1.7710266,10.537186,-1.0113525,0.049621582,0.0105896,-0.003616333,0.025144935,0.007306099,-0.012254596
1570715657,-1.7710266,10.537186,-1.0113525,0.049621582,0.0105896,-0.003616333,0.025144935,0.007306099,-0.012254596
1570715657,-1.7710266,10.537186,-1.0113525,0.049621582,0.0105896,-0.003616333,0.025144935,0.007306099,-0.012254596
1570715657,-1.7710266,10.537186,-1.0113525,0.049621582,0.0105896,-0.003616333,0.025144935,0.007306099,-0.012254596
1570715657,-1.7710266,10.537186,-1.0113525,0.049621582,0.0105896,-0.003616333,0.025144935,0.007306099,-0.012254596
1570715657,-1.7710266,10.537186,-1.0113525,0.049621582,0.0105896,-0.003616333,0.025144935,0.007306099,-0.012254596
1570715657,-1.7710266,10.537186,-1.0113525,0.049621582,0.0105896,-0.003616333,0.025144935,0.007306099,-0.012254596
1570715657,-1.7710266,10.537186,-1.0113525,0.049621582,0.0105896,-0.003616333,0.025144935,0.007306099,-0.012254596
1570715657,-1.7710266,10.537186,-1.0113525,0.049621582,0.0105896,-0.003616333,0.025144935,0.007306099,-0.012254596
1570715657,-1.7710266,10.537186,-1.0113525,0.049621582,0.0105896,-0.003616333,0.025144935,0.007306099,-0.012254596
1570715657,-1.7710266,10.537186,-1.0113525,0.049621582,0.0105896,-0.003616333,0.025144935,0.007306099,-0.012254596
1570715657,-1.7710266,10.537186,-1.0113525,0.049621582,0.0105896,-0.003616333,0.025144935,0.007306099,-0.012254596
1570715657,-1.7710266,10.537186,-1.0113525,0.049621582,0.0105896,-0.003616333,0.025144935,0.007306099,-0.012254596
1570715657,-1.7710266,10.537186,-1.0113525,0.049621582,0.0105896,-0.003616333,0.025144935,0.007306099,-0.012254596
1570715657,-1.7710266,10.537186,-1.0113525,0.049621582,0.0105896,-0.003616333,0.025144935,0.007306099,-0.012254596
1570715657,-1.7710266,10.537186,-1.0113525,0.049621582,0.0105896,-0.003616333,0.025144935,0.007306099,-0.012254596
1570715657,-1.7710266,10.537186,-1.0113525,0.049621582,0.0105896,-0.003616333,0.025144935,0.007306099,-0.012254596
1570715657,-1.7710266,10.537186,-1.0113525,0.049621582,0.0105896,-0.003616333,0.025144935,0.007306099,-0.012254596
1570715657,-1.7710266,10.537186,-1.0113525,0.049621582,0.0105896,-0.003616333,0.025144935,0.007306099,-0.012254596
1570715657,-1.7710266,10.537186,-1.0113525,0.049621582,0.0105896,-0.003616333,0.025144935,0.007306099,-0.012254596
1570715657,-1.7710266,10.537186,-1.0113525,0.049621582,0.0105896,-0.003616333,0.025144935,0.007306099,-0.012254596
1570715657,-1.7710266,10.537186,-1.0113525,0.049621582,0.0105896,-0.003616333,0.025144935,0.007306099,-0.012254596
1570715657,-1.7710266,10.537186,-1.0113525,0.049621582,0.0105896,-0.003616333,0.025144935,0.007306099,-0.012254596
1570715657,-1.7710266,10.537186,-1.0113525,0.049621582,0.0105896,-0.003616333,0.025144935,0.007306099,-0.012254596
1570715657,-1.7710266,10.537186,-1.0113525,0.049621582,0.0105896,-0.003616333,0.025144935,0.007306099,-0.012254596
1570715657,-1.7710266,10.537186,-1.0113525,0.049621582,0.0105896,-0.003616333,0.025144935,0.007306099,-0.012254596
1570715657,-1.7710266,10.537186,-1.0113525,0.049621582,0.0105896,-0.003616333,0.025144935,0.007306099,-0.012254596
1570715657,-1.7710266,10.537186,-1.0113525,0.049621582,0.0105896,-0.003616333,0.025144935,0.007306099,-0.012254596
1570715657,-1.7710266,10.537186,-1.0113525,0.049621582,0.0105896,-0.003616333,0.025144935,0.007306099,-0.012254596
1570715657,-1.7710266,10.537186,-1.0113525,0.049621582,0.0105896,-0.003616333,0.025144935,0.007306099,-0.012254596
1570715657,-1.7710266,10.537186,-1.0113525,0.049621582,0.0105896,-0.003616333,0.025144935,0.007306099,-0.012254596
1570715657,-1.7710266,10.537186,-1.0113525,0.049621582,0.0105896,-0.003616333,0.025144935,0.007306099,-0.012254596
1570715657,-1.7710266,10.537186,-1.0113525,0.049621582,0.0105896,-0.003616333,0.025144935,0.007306099,-0.012254596
1570715657,-1.7710266,10.537186,-1.0113525,0.049621582,0.0105896,-0.003616333,0.025144935,0.007306099,-0.012254596
1570715657,-1.7710266,10.537186,-1.0113525,0.049621582,0.0105896,-0.003616333,0.025144935,0.007306099,-0.012254596
1570715657,-1.7710266,10.537186,-1.0113525,0.049621582,0.0105896,-0.003616333,0.025144935,0.007306099,-0.012254596
1570715657,-1.7710266,10.537186,-1.0113525,0.049621582,0.0105896,-0.003616333,0.025144935,0.007306099,-0.012254596
1570715657,-1.7710266,10.537186,-1.0113525,0.049621582,0.0105896,-0.003616333,0.025144935,0.007306099,-0.012254596
1570715657,-1.7710266,10.537186,-1.0113525,0.049621582,0.0105896,-0.003616333,0.025144935,0.007306099,-0.012254596
1570715657,-1.7710266,10.537186,-1.0113525,0.049621582,0.0105896,-0.003616333,0.025144935,0.007306099,-0.012254596
1570715657,-1.7710266,10.537186,-1.0113525,0.049621582,0.0105896,-0.003616333,0.025144935,0.007306099,-0.012254596
1570715657,-1.7710266,10.537186,-1.0113525,0.049621582,0.0105896,-0.003616333,0.025144935,0.007306099,-0.012254596
1570715657,-1.7710266,10.537186,-1.0113525,0.049621582,0.0105896,-0.003616333,0.025144935,0.007306099,-0.012254596
1570715657,-1.7710266,10.537186,-1.0113525,0.049621582,0.0105896,-0.003616333,0.025144935,0.007306099,-0.012254596
1570715657,-1.7710266,10.537186,-1.0113525,0.049621582,0.0105896,-0.003616333,0.025144935,0.007306099,-0.012254596
1570715657,-1.7710266,10.537186,-1.0113525,0.049621582,0.0105896,-0.003616333,0.025144935,0.007306099,-0.012254596
1570715657,-1.7710266,10.537186,-1.0113525,0.049621582,0.0105896,-0.003616333,0.025144935,0.007306099,-0.012254596
1570715657,-1.7710266,10.537186,-1.0113525,0.049621582,0.0105896,-0.003616333,0.025144935,0.007306099,-0.012254596
1570715657,-1.7710266,10.537186,-1.0113525,0.049621582,0.0105896,-0.003616333,0.025144935,0.007306099,-0.012254596
1570715657,-1.7710266,10.537186,-1.0113525,0.049621582,0.0105896,-0.003616333,0.025144935,0.007306099,-0.012254596
1570715657,-1.7710266,10.537186,-1.0113525,0.049621582,0.0105896,-0.003616333,0.025144935,0.007306099,-0.012254596
1570715657,-1.7710266,10.537186,-1.0113525,0.049621582,0.0105896,-0.003616333,0.025144935,0.007306099,-0.012254596
1570715657,-1.7710266,10.537186,-1.0113525,0.049621582,0.0105896,-0.003616333,0.025144935,0.007306099,-0.012254596
1570715657,-1.7710266,10.537186,-1.0113525,0.049621582,0.0105896,-0.003616333,0.025144935,0.007306099,-0.012254596
1570715657,-1.7710266,10.537186,-1.0113525,0.049621582,0.0105896,-0.003616333,0.025144935,0.007306099,-0.012254596
1570715657,-1.7710266,10.537186,-1.0113525,0.049621582,0.0105896,-0.003616333,0.025144935,0.007306099,-0.012254596
1570715657,-1.7710266,10.537186,-1.0113525,0.049621582,0.0105896,-0.003616333,0.025144935,0.007306099,-0.012254596
1570715657,-1.7710266,10.537186,-1.0113525,0.049621582,0.0105896,-0.003616333,0.025144935,0.007306099,-0.012254596
1570715657,-1.7710266,10.537186,-1.0113525,0.049621582,0.0105896,-0.003616333,0.025144935,0.007306099,-0.012254596
1570715657,-1.7710266,10.537186,-1.0113525,0.049621582,0.0105896,-0.003616333,0.025144935,0.007306099,-0.012254596
1570715657,-1.7710266,10.537186,-1.0113525,0.049621582,0.0105896,-0.003616333,0.025144935,0.007306099,-0.012254596
1570715657,-1.7710266,10.537186,-1.0113525,0.049621582,0.0105896,-0.003616333,0.025144935,0.007306099,-0.012254596
1570715657,-1.7710266,10.537186,-1.0113525,0.049621582,0.0105896,-0.003616333,0.025144935,0.007306099,-0.012254596
1570715657,-1.7710266,10.537186,-1.0113525,0.049621582,0.0105896,-0.003616333,0.025144935,0.007306099,-0.012254596
1570715657,-1.7710266,10.537186,-1.0113525,0.049621582,0.0105896,-0.003616333,0.025144935,0.007306099,-0.012254596
1570715657,-1.7710266,10.537186,-1.0113525,0.049621582,0.0105896,-0.003616333,0.025144935,0.007306099,-0.012254596
1570715657,-1.7710266,10.537186,-1.0113525,0.049621582,0.0105896,-0.003616333,0.025144935,0.007306099,-0.012254596
1570715657,-1.7710266,10.537186,-1.0113525,0.049621582,0.0105896,-0.003616333,0.025144935,0.007306099,-0.012254596
1570715657,-1.7710266,10.537186,-1.0113525,0.049621582,0.0105896,-0.003616333,0.025144935,0.007306099,-0.012254596
1570715657,-1.7710266,10.537186,-1.0113525,0.049621582,0.0105896,-0.003616333,0.025144935,0.007306099,-0.012254596
1570715657,-1.7710266,10.537186,-1.0113525,0.049621582,0.0105896,-0.003616333,0.025144935,0.007306099,-0.012254596
1570715657,-1.7710266,10.537186,-1.0113525,0.049621582,0.0105896,-0.003616333,0.025144935,0.007306099,-0.012254596
1570715657,-1.7710266,10.537186,-1.0113525,0.049621582,0.0105896,-0.003616333,0.025144935,0.007306099,-0.012254596
1570715657,-1.7710266,10.537186,-1.0113525,0.049621582,0.0105896,-0.003616333,0.025144935,0.007306099,-0.012254596
1570715657,-1.7710266,10.537186,-1.0113525,0.049621582,0.0105896,-0.003616333,0.025144935,0.007306099,-0.012254596
1570715657,-1.7710266,10.537186,-1.0113525,0.049621582,0.0105896,-0.003616333,0.025144935,0.007306099,-0.012254596
1570715657,-1.7710266,10.537186,-1.0113525,0.049621582,0.0105896,-0.003616333,0.025144935,0.007306099,-0.012254596
1570715657,-1.7710266,10.537186,-1.0113525,0.049621582,0.0105896,-0.003616333,0.025144935,0.007306099,-0.012254596
1570715657,-1.7710266,10.537186,-1.0113525,0.049621582,0.0105896,-0.003616333,0.025144935,0.007306099,-0.012254596
1570715657,-1.7710266,10.537186,-1.0113525,0.049621582,0.0105896,-0.003616333,0.025144935,0.007306099,-0.012254596
1570715657,-1.7710266,10.537186,-1.0113525,0.049621582,0.0105896,-0.003616333,0.025144935,0.007306099,-0.012254596
1570715657,-1.7710266,10.537186,-1.0113525,0.049621582,0.0105896,-0.003616333,0.025144935,0.007306099,-0.012254596
1570715657,-1.7710266,10.537186,-1.0113525,0.049621582,0.0105896,-0.003616333,0.025144935,0.007306099,-0.012254596
1570715657,-1.7710266,10.537186,-1.0113525,0.049621582,0.0105896,-0.003616333,0.025144935,0.007306099,-0.012254596
1570715657,-1.7710266,10.537186,-1.0113525,0.049621582,0.0105896,-0.003616333,0.025144935,0.007306099,-0.012254596
1570715657,-1.7710266,10.537186,-1.0113525,0.049621582,0.0105896,-0.003616333,0.025144935,0.007306099,-0.012254596
1570715657,-1.7710266,10.537186,-1.0113525,0.049621582,0.0105896,-0.003616333,0.025144935,0.007306099,-0.012254596
1570715657,-1.7710266,10.537186,-1.0113525,0.049621582,0.0105896,-0.003616333,0.025144935,0.007306099,-0.012254596
1570715657,-1.7710266,10.537186,-1.0113525,0.049621582,0.0105896,-0.003616333,0.025144935,0.007306099,-0.012254596
1570715657,-1.7710266,10.537186,-1.0113525,0.049621582,0.0105896,-0.003616333,0.025144935,0.007306099,-0.012254596
1570715657,-1.7710266,10.537186,-1.0113525,0.049621582,0.0105896,-0.003616333,0.025144935,0.007306099,-0.012254596
1570715657,-1.7710266,10.537186,-1.0113525,0.049621582,0.0105896,-0.003616333,0.025144935,0.007306099,-0.012254596
1570715657,-1.7710266,10.537186,-1.0113525,0.049621582,0.0105896,-0.003616333,0.025144935,0.007306099,-0.012254596
1570715657,-1.7710266,10.537186,-1.0113525,0.049621582,0.0105896,-0.003616333,0.025144935,0.007306099,-0.012254596
1570715657,-1.7710266,10.537186,-1.0113525,0.049621582,0.0105896,-0.003616333,0.025144935,0.007306099,-0.012254596
1570715657,-1.7710266,10.537186,-1.0113525,0.049621582,0.0105896,-0.003616333,0.025144935,0.007306099,-0.012254596
1570715657,-1.7710266,10.537186,-1.0113525,0.049621582,0.0105896,-0.003616333,0.025144935,0.007306099,-0.012254596
1570715657,-1.7710266,10.537186,-1.0113525,0.049621582,0.0105896,-0.003616333,0.025144935,0.007306099,-0.012254596
1570715657,-1.7710266,10.537186,-1.0113525,0.049621582,0.0105896,-0.003616333,0.025144935,0.007306099,-0.012254596
1570715657,-1.7710266,10.537186,-1.0113525,0.049621582,0.0105896,-0.003616333,0.025144935,0.007306099,-0.012254596
1570715657,-1.7710266,10.537186,-1.0113525,0.049621582,0.0105896,-0.003616333,0.025144935,0.007306099,-0.012254596
1570715657,-1.7710266,10.537186,-1.0113525,0.049621582,0.0105896,-0.003616333,0.025144935,0.007306099,-0.012254596
1570715657,-1.7710266,10.537186,-1.0113525,0.049621582,0.0105896,-0.003616333,0.025144935,0.007306099,-0.012254596
1570715657,-1.7710266,10.537186,-1.0113525,0.049621582,0.0105896,-0.003616333,0.025144935,0.007306099,-0.012254596
1570715657,-1.7710266,10.537186,-1.0113525,0.049621582,0.0105896,-0.003616333,0.025144935,0.007306099,-0.012254596
1570715657,-1.7710266,10.537186,-1.0113525,0.049621582,0.0105896,-0.003616333,0.025144935,0.007306099,-0.012254596
1570715657,-1.7710266,10.537186,-1.0113525,0.049621582,0.0105896,-0.003616333,0.025144935,0.007306099,-0.012254596
1570715657,-1.7710266,10.537186,-1.0113525,0.049621582,0.0105896,-0.003616333,0.025144935,0.007306099,-0.012254596
1570715657,-1.7710266,10.537186,-1.0113525,0.049621582,0.0105896,-0.003616333,0.025144935,0.007306099,-0.012254596
1570715657,-1.7710266,10.537186,-1.0113525,0.049621582,0.0105896,-0.003616333,0.025144935,0.007306099,-0.012254596
1570715657,-1.7710266,10.537186,-1.0113525,0.049621582,0.0105896,-0.003616333,0.025144935,0.007306099,-0.012254596
1570715657,-1.7710266,10.537186,-1.0113525,0.049621582,0.0105896,-0.003616333,0.025144935,0.007306099,-0.012254596
1570715657,-1.7710266,10.537186,-1.0113525,0.049621582,0.0105896,-0.003616333,0.025144935,0.007306099,-0.012254596
1570715657,-1.7710266,10.537186,-1.0113525,0.049621582,0.0105896,-0.003616333,0.025144935,0.007306099,-0.012254596
1570715657,-1.7710266,10.537186,-1.0113525,0.049621582,0.0105896,-0.003616333,0.025144935,0.007306099,-0.012254596
1570715657,-1.7710266,10.537186,-1.0113525,0.049621582,0.0105896,-0.003616333,0.025144935,0.007306099,-0.012254596
1570715657,-1.7710266,10.537186,-1.0113525,0.049621582,0.0105896,-0.003616333,0.025144935,0.007306099,-0.012254596
1570715657,-1.7710266,10.537186,-1.0113525,0.049621582,0.0105896,-0.003616333,0.025144935,0.007306099,-0.012254596
1570715657,-1.7710266,10.537186,-1.0113525,0.049621582,0.0105896,-0.003616333,0.025144935,0.007306099,-0.012254596
1570715657,-1.7710266,10.537186,-1.0113525,0.049621582,0.0105896,-0.003616333,0.025144935,0.007306099,-0.012254596
1570715657,-1.7710266,10.537186,-1.0113525,0.049621582,0.0105896,-0.003616333,0.025144935,0.007306099,-0.012254596
1570715657,-1.7710266,10.537186,-1.0113525,0.049621582,0.0105896,-0.003616333,0.025144935,0.007306099,-0.012254596
1570715657,-1.7710266,10.537186,-1.0113525,0.049621582,0.0105896,-0.003616333,0.025144935,0.007306099,-0.012254596
1570715657,-1.7710266,10.537186,-1.0113525,0.049621582,0.0105896,-0.003616333,0.025144935,0.007306099,-0.012254596
1570715657,-1.7710266,10.537186,-1.0113525,0.049621582,0.0105896,-0.003616333,0.025144935,0.007306099,-0.012254596
1570715657,-1.7710266,10.537186,-1.0113525,0.049621582,0.0105896,-0.003616333,0.025144935,0.007306099,-0.012254596
1570715657,-1.7710266,10.537186,-1.0113525,0.049621582,0.0105896,-0.003616333,0.025144935,0.007306099,-0.012254596
1570715657,-1.7710266,10.537186,-1.0113525,0.049621582,0.0105896,-0.003616333,0.025144935,0.007306099,-0.012254596
1570715657,-1.7710266,10.537186,-1.0113525,0.049621582,0.0105896,-0.003616333,0.025144935,0.007306099,-0.012254596
1570715657,-1.7710266,10.537186,-1.0113525,0.049621582,0.0105896,-0.003616333,0.025144935,0.007306099,-0.012254596
1570715657,-1.7710266,10.537186,-1.0113525,0.049621582,0.0105896,-0.003616333,0.025144935,0.007306099,-0.012254596
1570715657,-1.7710266,10.537186,-1.0113525,0.049621582,0.0105896,-0.003616333,0.025144935,0.007306099,-0.012254596
1570715657,-1.7710266,10.537186,-1.0113525,0.049621582,0.0105896,-0.003616333,0.025144935,0.007306099,-0.012254596
1570715657,-1.7710266,10.537186,-1.0113525,0.049621582,0.0105896,-0.003616333,0.025144935,0.007306099,-0.012254596
1570715657,-1.7710266,10.537186,-1.0113525,0.049621582,0.0105896,-0.003616333,0.025144935,0.007306099,-0.012254596
1570715657,-1.7710266,10.537186,-1.0113525,0.049621582,0.0105896,-0.003616333,0.025144935,0.007306099,-0.012254596
1570715657,-1.7710266,10.537186,-1.0113525,0.049621582,0.0105896,-0.003616333,0.025144935,0.007306099,-0.012254596
1570715657,-1.7710266,10.537186,-1.0113525,0.049621582,0.0105896,-0.003616333,0.025144935,0.007306099,-0.012254596
1570715657,-1.7710266,10.537186,-1.0113525,0.049621582,0.0105896,-0.003616333,0.025144935,0.007306099,-0.012254596
1570715657,-1.7710266,10.537186,-1.0113525,0.049621582,0.0105896,-0.003616333,0.025144935,0.007306099,-0.012254596
1570715657,-1.7710266,10.537186,-1.0113525,0.049621582,0.0105896,-0.003616333,0.025144935,0.007306099,-0.012254596
1570715657,-1.7710266,10.537186,-1.0113525,0.049621582,0.0105896,-0.003616333,0.025144935,0.007306099,-0.012254596
1570715657,-1.7710266,10.537186,-1.0113525,0.049621582,0.0105896,-0.003616333,0.025144935,0.007306099,-0.012254596
1570715657,-1.7710266,10.537186,-1.0113525,0.049621582,0.0105896,-0.003616333,0.025144935,0.007306099,-0.012254596
1570715657,-1.7710266,10.537186,-1.0113525,0.049621582,0.0105896,-0.003616333,0.025144935,0.007306099,-0.012254596
1570715657,-1.7710266,10.537186,-1.0113525,0.049621582,0.0105896,-0.003616333,0.025144935,0.007306099,-0.012254596
1570715657,-1.7710266,10.537186,-1.0113525,0.049621582,0.0105896,-0.003616333,0.025144935,0.007306099,-0.012254596
1570715657,-1.7710266,10.537186,-1.0113525,0.049621582,0.0105896,-0.003616333,0.025144935,0.007306099,-0.012254596
1570715657,-1.7710266,10.537186,-1.0113525,0.049621582,0.0105896,-0.003616333,0.025144935,0.007306099,-0.012254596
1570715657,-1.7710266,10.537186,-1.0113525,0.049621582,0.0105896,-0.003616333,0.025144935,0.007306099,-0.012254596
1570715657,-1.7710266,10.537186,-1.0113525,0.049621582,0.0105896,-0.003616333,0.025144935,0.007306099,-0.012254596
1570715657,-1.7710266,10.537186,-1.0113525,0.049621582,0.0105896,-0.003616333,0.025144935,0.007306099,-0.012254596
1570715657,-1.7710266,10.537186,-1.0113525,0.049621582,0.0105896,-0.003616333,0.025144935,0.007306099,-0.012254596
1570715657,-1.7710266,10.537186,-1.0113525,0.049621582,0.0105896,-0.003616333,0.025144935,0.007306099,-0.012254596
1570715657,-1.7710266,10.537186,-1.0113525,0.049621582,0.0105896,-0.003616333,0.025144935,0.007306099,-0.012254596
1570715657,-1.7710266,10.537186,-1.0113525,0.049621582,0.0105896,-0.003616333,0.025144935,0.007306099,-0.012254596
1570715657,-1.7710266,10.537186,-1.0113525,0.049621582,0.0105896,-0.003616333,0.025144935,0.007306099,-0.012254596
1570715657,-1.7710266,10.537186,-1.0113525,0.049621582,0.0105896,-0.003616333,0.025144935,0.007306099,-0.012254596
1570715657,-1.7710266,10.537186,-1.0113525,0.049621582,0.0105896,-0.003616333,0.025144935,0.007306099,-0.012254596
1570715657,-1.7710266,10.537186,-1.0113525,0.049621582,0.0105896,-0.003616333,0.025144935,0.007306099,-0.012254596
1570715657,-1.7710266,10.537186,-1.0113525,0.049621582,0.0105896,-0.003616333,0.025144935,0.007306099,-0.012254596
1570715657,-1.7710266,10.537186,-1.0113525,0.049621582,0.0105896,-0.003616333,0.025144935,0.007306099,-0.012254596
1570715657,-1.7710266,10.537186,-1.0113525,0.049621582,0.0105896,-0.003616333,0.025144935,0.007306099,-0.012254596
1570715657,-1.7710266,10.537186,-1.0113525,0.049621582,0.0105896,-0.003616333,0.025144935,0.007306099,-0.012254596
1570715657,-1.7710266,10.537186,-1.0113525,0.049621582,0.0105896,-0.003616333,0.025144935,0.007306099,-0.012254596
1570715657,-1.7710266,10.537186,-1.0113525,0.049621582,0.0105896,-0.003616333,0.025144935,0.007306099,-0.012254596
1570715657,-1.7710266,10.537186,-1.0113525,0.049621582,0.0105896,-0.003616333,0.025144935,0.007306099,-0.012254596
1570715657,-1.7710266,10.537186,-1.0113525,0.049621582,0.0105896,-0.003616333,0.025144935,0.007306099,-0.012254596
1570715657,-1.7710266,10.537186,-1.0113525,0.049621582,0.0105896,-0.003616333,0.025144935,0.007306099,-0.012254596
1570715657,-1.7710266,10.537186,-1.0113525,0.049621582,0.0105896,-0.003616333,0.025144935,0.007306099,-0.012254596
1570715657,-1.7710266,10.537186,-1.0113525,0.049621582,0.0105896,-0.003616333,0.025144935,0.007306099,-0.012254596
1570715657,-1.7710266,10.537186,-1.0113525,0.049621582,0.0105896,-0.003616333,0.025144935,0.007306099,-0.012254596
1570715657,-1.7710266,10.537186,-1.0113525,0.049621582,0.0105896,-0.003616333,0.025144935,0.007306099,-0.012254596
1570715657,-1.7710266,10.537186,-1.0113525,0.049621582,0.0105896,-0.003616333,0.025144935,0.007306099,-0.012254596
1570715657,-1.7710266,10.537186,-1.0113525,0.049621582,0.0105896,-0.003616333,0.025144935,0.007306099,-0.012254596
1570715657,-1.7710266,10.537186,-1.0113525,0.049621582,0.0105896,-0.003616333,0.025144935,0.007306099,-0.012254596
1570715657,-1.7710266,10.537186,-1.0113525,0.049621582,0.0105896,-0.003616333,0.025144935,0.007306099,-0.012254596
1570715657,-1.7710266,10.537186,-1.0113525,0.049621582,0.0105896,-0.003616333,0.025144935,0.007306099,-0.012254596
1570715657,-1.7710266,10.537186,-1.0113525,0.049621582,0.0105896,-0.003616333,0.025144935,0.007306099,-0.012254596
1570715657,-1.7710266,10.537186,-1.0113525,0.049621582,0.0105896,-0.003616333,0.025144935,0.007306099,-0.012254596
1570715657,-1.7710266,10.537186,-1.0113525,0.049621582,0.0105896,-0.003616333,0.025144935,0.007306099,-0.012254596
1570715657,-1.7710266,10.537186,-1.0113525,0.049621582,0.0105896,-0.003616333,0.025144935,0.007306099,-0.012254596
1570715657,-1.7710266,10.537186,-1.0113525,0.049621582,0.0105896,-0.003616333,0.025144935,0.007306099,-0.012254596
1570715657,-1.7710266,10.537186,-1.0113525,0.049621582,0.0105896,-0.003616333,0.025144935,0.007306099,-0.012254596
1570715657,-1.7710266,10.537186,-1.0113525,0.049621582,0.0105896,-0.003616333,0.025144935,0.007306099,-0.012254596
1570715657,-1.7710266,10.537186,-1.0113525,0.049621582,0.0105896,-0.003616333,0.025144935,0.007306099,-0.012254596
1570715657,-1.7710266,10.537186,-1.0113525,0.049621582,0.0105896,-0.003616333,0.025144935,0.007306099,-0.012254596
1570715657,-1.7710266,10.537186,-1.0113525,0.049621582,0.0105896,-0.003616333,0.025144935,0.007306099,-0.012254596
1570715657,-1.7710266,10.537186,-1.0113525,0.049621582,0.0105896,-0.003616333,0.025144935,0.007306099,-0.012254596
1570715657,-1.7710266,10.537186,-1.0113525,0.049621582,0.0105896,-0.003616333,0.025144935,0.007306099,-0.012254596
1570715657,-1.7710266,10.537186,-1.0113525,0.049621582,0.0105896,-0.003616333,0.025144935,0.007306099,-0.012254596
1570715657,-1.7710266,10.537186,-1.0113525,0.049621582,0.0105896,-0.003616333,0.025144935,0.007306099,-0.012254596
1570715657,-1.7710266,10.537186,-1.0113525,0.049621582,0.0105896,-0.003616333,0.025144935,0.007306099,-0.012254596
1570715657,-1.7710266,10.537186,-1.0113525,0.049621582,0.0105896,-0.003616333,0.025144935,0.007306099,-0.012254596
1570715657,-1.7710266,10.537186,-1.0113525,0.049621582,0.0105896,-0.003616333,0.025144935,0.007306099,-0.012254596
1570715657,-1.7710266,10.537186,-1.0113525,0.049621582,0.0105896,-0.003616333,0.025144935,0.007306099,-0.012254596
1570715657,-1.7710266,10.537186,-1.0113525,0.049621582,0.0105896,-0.003616333,0.025144935,0.007306099,-0.012254596
1570715657,-1.7710266,10.537186,-1.0113525,0.049621582,0.0105896,-0.003616333,0.025144935,0.007306099,-0.012254596
1570715657,-1.7710266,10.537186,-1.0113525,0.049621582,0.0105896,-0.003616333,0.025144935,0.007306099,-0.012254596
1570715657,-1.7710266,10.537186,-1.0113525,0.049621582,0.0105896,-0.003616333,0.025144935,0.007306099,-0.012254596
1570715657,-1.7710266,10.537186,-1.0113525,0.049621582,0.0105896,-0.003616333,0.025144935,0.007306099,-0.012254596
1570715657,-1.7710266,10.537186,-1.0113525,0.049621582,0.0105896,-0.003616333,0.025144935,0.007306099,-0.012254596
1570715657,-1.7710266,10.537186,-1.0113525,0.049621582,0.0105896,-0.003616333,0.025144935,0.007306099,-0.012254596
1570715657,-1.7710266,10.537186,-1.0113525,0.049621582,0.0105896,-0.003616333,0.025144935,0.007306099,-0.012254596
1570715657,-1.7710266,10.537186,-1.0113525,0.049621582,0.0105896,-0.003616333,0.025144935,0.007306099,-0.012254596
1570715657,-1.7710266,10.537186,-1.0113525,0.049621582,0.0105896,-0.003616333,0.025144935,0.007306099,-0.012254596
1570715657,-1.7710266,10.537186,-1.0113525,0.049621582,0.0105896,-0.003616333,0.025144935,0.007306099,-0.012254596
1570715657,-1.7710266,10.537186,-1.0113525,0.049621582,0.0105896,-0.003616333,0.025144935,0.007306099,-0.012254596
1570715657,-1.7710266,10.537186,-1.0113525,0.049621582,0.0105896,-0.003616333,0.025144935,0.007306099,-0.012254596
1570715657,-1.7710266,10.537186,-1.0113525,0.049621582,0.0105896,-0.003616333,0.025144935,0.007306099,-0.012254596
1570715657,-1.7710266,10.537186,-1.0113525,0.049621582,0.0105896,-0.003616333,0.025144935,0.007306099,-0.012254596
1570715657,-1.7710266,10.537186,-1.0113525,0.049621582,0.0105896,-0.003616333,0.025144935,0.007306099,-0.012254596
1570715657,-1.7710266,10.537186,-1.0113525,0.049621582,0.0105896,-0.003616333,0.025144935,0.007306099,-0.012254596
1570715657,-1.7710266,10.537186,-1.0113525,0.049621582,0.0105896,-0.003616333,0.025144935,0.007306099,-0.012254596
1570715657,-1.7710266,10.537186,-1.0113525,0.049621582,0.0105896,-0.003616333,0.025144935,0.007306099,-0.012254596
1570715657,-1.7710266,10.537186,-1.0113525,0.049621582,0.0105896,-0.003616333,0.025144935,0.007306099,-0.012254596
1570715657,-1.7710266,10.537186,-1.0113525,0.049621582,0.0105896,-0.003616333,0.025144935,0.007306099,-0.012254596
1570715657,-1.7710266,10.537186,-1.0113525,0.049621582,0.0105896,-0.003616333,0.025144935,0.007306099,-0.012254596
1570715657,-1.7710266,10.537186,-1.0113525,0.049621582,0.0105896,-0.003616333,0.025144935,0.007306099,-0.012254596
1570715657,-1.7710266,10.537186,-1.0113525,0.049621582,0.0105896,-0.003616333,0.025144935,0.007306099,-0.012254596
1570715657,-1.7710266,10.537186,-1.0113525,0.049621582,0.0105896,-0.003616333,0.025144935,0.007306099,-0.012254596
1570715657,-1.7710266,10.537186,-1.0113525,0.049621582,0.0105896,-0.003616333,0.025144935,0.007306099,-0.012254596
1570715657,-1.7710266,10.537186,-1.0113525,0.049621582,0.0105896,-0.003616333,0.025144935,0.007306099,-0.012254596
1570715657,-1.7710266,10.537186,-1.0113525,0.049621582,0.0105896,-0.003616333,0.025144935,0.007306099,-0.012254596
1570715657,-1.7710266,10.537186,-1.0113525,0.049621582,0.0105896,-0.003616333,0.025144935,0.007306099,-0.012254596
1570715657,-1.7710266,10.537186,-1.0113525,0.049621582,0.0105896,-0.003616333,0.025144935,0.007306099,-0.012254596
1570715657,-1.7710266,10.537186,-1.0113525,0.049621582,0.0105896,-0.003616333,0.025144935,0.007306099,-0.012254596
1570715657,-1.7710266,10.537186,-1.0113525,0.049621582,0.0105896,-0.003616333,0.025144935,0.007306099,-0.012254596
1570715657,-1.7710266,10.537186,-1.0113525,0.049621582,0.0105896,-0.003616333,0.025144935,0.007306099,-0.012254596
1570715657,-1.7710266,10.537186,-1.0113525,0.049621582,0.0105896,-0.003616333,0.025144935,0.007306099,-0.012254596
1570715657,-1.7710266,10.537186,-1.0113525,0.049621582,0.0105896,-0.003616333,0.025144935,0.007306099,-0.012254596
1570715657,-1.7710266,10.537186,-1.0113525,0.049621582,0.0105896,-0.003616333,0.025144935,0.007306099,-0.012254596
1570715657,-1.7710266,10.537186,-1.0113525,0.049621582,0.0105896,-0.003616333,0.025144935,0.007306099,-0.012254596
1570715657,-1.7710266,10.537186,-1.0113525,0.049621582,0.0105896,-0.003616333,0.025144935,0.007306099,-0.012254596
1570715657,-1.7710266,10.537186,-1.0113525,0.049621582,0.0105896,-0.003616333,0.025144935,0.007306099,-0.012254596
1570715657,-1.7710266,10.537186,-1.0113525,0.049621582,0.0105896,-0.003616333,0.025144935,0.007306099,-0.012254596
1570715657,-1.7710266,10.537186,-1.0113525,0.049621582,0.0105896,-0.003616333,0.025144935,0.007306099,-0.012254596
1570715657,-1.7710266,10.537186,-1.0113525,0.049621582,0.0105896,-0.003616333,0.025144935,0.007306099,-0.012254596
1570715657,-1.7710266,10.537186,-1.0113525,0.049621582,0.0105896,-0.003616333,0.025144935,0.007306099,-0.012254596
1570715657,-1.7710266,10.537186,-1.0113525,0.049621582,0.0105896,-0.003616333,0.025144935,0.007306099,-0.012254596
1570715657,-1.7710266,10.537186,-1.0113525,0.049621582,0.0105896,-0.003616333,0.025144935,0.007306099,-0.012254596
1570715657,-1.7710266,10.537186,-1.0113525,0.049621582,0.0105896,-0.003616333,0.025144935,0.007306099,-0.012254596
1570715657,-1.7710266,10.537186,-1.0113525,0.049621582,0.0105896,-0.003616333,0.025144935,0.007306099,-0.012254596
1570715657,-1.7710266,10.537186,-1.0113525,0.049621582,0.0105896,-0.003616333,0.025144935,0.007306099,-0.012254596
1570715657,-1.7710266,10.537186,-1.0113525,0.049621582,0.0105896,-0.003616333,0.025144935,0.007306099,-0.012254596
1570715657,-1.7710266,10.537186,-1.0113525,0.049621582,0.0105896,-0.003616333,0.025144935,0.007306099,-0.012254596
1570715657,-1.7710266,10.537186,-1.0113525,0.049621582,0.0105896,-0.003616333,0.025144935,0.007306099,-0.012254596
1570715657,-1.7710266,10.537186,-1.0113525,0.049621582,0.0105896,-0.003616333,0.025144935,0.007306099,-0.012254596
1570715657,-1.7710266,10.537186,-1.0113525,0.049621582,0.0105896,-0.003616333,0.025144935,0.007306099,-0.012254596
1570715657,-1.7710266,10.537186,-1.0113525,0.049621582,0.0105896,-0.003616333,0.025144935,0.007306099,-0.012254596
1570715657,-1.7710266,10.537186,-1.0113525,0.049621582,0.0105896,-0.003616333,0.025144935,0.007306099,-0.012254596
1570715657,-1.7710266,10.537186,-1.0113525,0.049621582,0.0105896,-0.003616333,0.025144935,0.007306099,-0.012254596
1570715657,-1.7710266,10.537186,-1.0113525,0.049621582,0.0105896,-0.003616333,0.025144935,0.007306099,-0.012254596
1570715657,-1.7710266,10.537186,-1.0113525,0.049621582,0.0105896,-0.003616333,0.025144935,0.007306099,-0.012254596
1570715657,-1.7710266,10.537186,-1.0113525,0.049621582,0.0105896,-0.003616333,0.025144935,0.007306099,-0.012254596
1570715657,-1.7710266,10.537186,-1.0113525,0.049621582,0.0105896,-0.003616333,0.025144935,0.007306099,-0.012254596
1570715657,-1.7710266,10.537186,-1.0113525,0.049621582,0.0105896,-0.003616333,0.025144935,0.007306099,-0.012254596
1570715657,-1.7710266,10.537186,-1.0113525,0.049621582,0.0105896,-0.003616333,0.025144935,0.007306099,-0.012254596
1570715657,-1.7710266,10.537186,-1.0113525,0.049621582,0.0105896,-0.003616333,0.025144935,0.007306099,-0.012254596
1570715657,-1.7710266,10.537186,-1.0113525,0.049621582,0.0105896,-0.003616333,0.025144935,0.007306099,-0.012254596
1570715657,-1.7710266,10.537186,-1.0113525,0.049621582,0.0105896,-0.003616333,0.025144935,0.007306099,-0.012254596
1570715657,-1.7710266,10.537186,-1.0113525,0.049621582,0.0105896,-0.003616333,0.025144935,0.007306099,-0.012254596
1570715657,-1.7710266,10.537186,-1.0113525,0.049621582,0.0105896,-0.003616333,0.025144935,0.007306099,-0.012254596
1570715657,-1.7710266,10.537186,-1.0113525,0.049621582,0.0105896,-0.003616333,0.025144935,0.007306099,-0.012254596
1570715657,-1.7710266,10.537186,-1.0113525,0.049621582,0.0105896,-0.003616333,0.025144935,0.007306099,-0.012254596
1570715657,-1.7710266,10.537186,-1.0113525,0.049621582,0.0105896,-0.003616333,0.025144935,0.007306099,-0.012254596
1570715657,-1.7710266,10.537186,-1.0113525,0.049621582,0.0105896,-0.003616333,0.025144935,0.007306099,-0.012254596
1570715657,-1.7710266,10.537186,-1.0113525,0.049621582,0.0105896,-0.003616333,0.025144935,0.007306099,-0.012254596
1570715657,-1.7710266,10.537186,-1.0113525,0.049621582,0.0105896,-0.003616333,0.025144935,0.007306099,-0.012254596
1570715657,-1.7710266,10.537186,-1.0113525,0.049621582,0.0105896,-0.003616333,0.025144935,0.007306099,-0.012254596
1570715657,-1.7710266,10.537186,-1.0113525,0.049621582,0.0105896,-0.003616333,0.025144935,0.007306099,-0.012254596
1570715657,-1.7710266,10.537186,-1.0113525,0.049621582,0.0105896,-0.003616333,0.025144935,0.007306099,-0.012254596
1570715657,-1.7710266,10.537186,-1.0113525,0.049621582,0.0105896,-0.003616333,0.025144935,0.007306099,-0.012254596
1570715657,-1.7710266,10.537186,-1.0113525,0.049621582,0.0105896,-0.003616333,0.025144935,0.007306099,-0.012254596
1570715657,-1.7710266,10.537186,-1.0113525,0.049621582,0.0105896,-0.003616333,0.025144935,0.007306099,-0.012254596
1570715657,-1.7710266,10.537186,-1.0113525,0.049621582,0.0105896,-0.003616333,0.025144935,0.007306099,-0.012254596
1570715657,-1.7710266,10.537186,-1.0113525,0.049621582,0.0105896,-0.003616333,0.025144935,0.007306099,-0.012254596
1570715657,-1.7710266,10.537186,-1.0113525,0.049621582,0.0105896,-0.003616333,0.025144935,0.007306099,-0.012254596
1570715657,-1.7710266,10.537186,-1.0113525,0.049621582,0.0105896,-0.003616333,0.025144935,0.007306099,-0.012254596
1570715657,-1.7710266,10.537186,-1.0113525,0.049621582,0.0105896,-0.003616333,0.025144935,0.007306099,-0.012254596
1570715657,-1.7710266,10.537186,-1.0113525,0.049621582,0.0105896,-0.003616333,0.025144935,0.007306099,-0.012254596
1570715657,-1.7710266,10.537186,-1.0113525,0.049621582,0.0105896,-0.003616333,0.025144935,0.007306099,-0.012254596
1570715657,-1.7710266,10.537186,-1.0113525,0.049621582,0.0105896,-0.003616333,0.025144935,0.007306099,-0.012254596
1570715657,-1.7710266,10.537186,-1.0113525,0.049621582,0.0105896,-0.003616333,0.025144935,0.007306099,-0.012254596
1570715657,-1.7710266,10.537186,-1.0113525,0.049621582,0.0105896,-0.003616333,0.025144935,0.007306099,-0.012254596
1570715657,-1.7710266,10.537186,-1.0113525,0.049621582,0.0105896,-0.003616333,0.025144935,0.007306099,-0.012254596
1570715657,-1.7710266,10.537186,-1.0113525,0.049621582,0.0105896,-0.003616333,0.025144935,0.007306099,-0.012254596
1570715657,-1.7710266,10.537186,-1.0113525,0.049621582,0.0105896,-0.003616333,0.025144935,0.007306099,-0.012254596
1570715657,-1.7710266,10.537186,-1.0113525,0.049621582,0.0105896,-0.003616333,0.025144935,0.007306099,-0.012254596
1570715657,-1.7710266,10.537186,-1.0113525,0.049621582,0.0105896,-0.003616333,0.025144935,0.007306099,-0.012254596
1570715657,-1.7710266,10.537186,-1.0113525,0.049621582,0.0105896,-0.003616333,0.025144935,0.007306099,-0.012254596
1570715657,-1.7710266,10.537186,-1.0113525,0.049621582,0.0105896,-0.003616333,0.025144935,0.007306099,-0.012254596
1570715657,-1.7710266,10.537186,-1.0113525,0.049621582,0.0105896,-0.003616333,0.025144935,0.007306099,-0.012254596
1570715657,-1.7710266,10.537186,-1.0113525,0.049621582,0.0105896,-0.003616333,0.025144935,0.007306099,-0.012254596
1570715657,-1.7710266,10.537186,-1.0113525,0.049621582,0.0105896,-0.003616333,0.025144935,0.007306099,-0.012254596
1570715657,-1.7710266,10.537186,-1.0113525,0.049621582,0.0105896,-0.003616333,0.025144935,0.007306099,-0.012254596
1570715657,-1.7710266,10.537186,-1.0113525,0.049621582,0.0105896,-0.003616333,0.025144935,0.007306099,-0.012254596
1570715657,-1.7710266,10.537186,-1.0113525,0.049621582,0.0105896,-0.003616333,0.025144935,0.007306099,-0.012254596
1570715657,-1.7710266,10.537186,-1.0113525,0.049621582,0.0105896,-0.003616333,0.025144935,0.007306099,-0.012254596
1570715657,-1.7710266,10.537186,-1.0113525,0.049621582,0.0105896,-0.003616333,0.025144935,0.007306099,-0.012254596
1570715657,-1.7710266,10.537186,-1.0113525,0.049621582,0.0105896,-0.003616333,0.025144935,0.007306099,-0.012254596
1570715657,-1.7710266,10.537186,-1.0113525,0.049621582,0.0105896,-0.003616333,0.025144935,0.007306099,-0.012254596
1570715657,-1.7710266,10.537186,-1.0113525,0.049621582,0.0105896,-0.003616333,0.025144935,0.007306099,-0.012254596
1570715657,-1.7710266,10.537186,-1.0113525,0.049621582,0.0105896,-0.003616333,0.025144935,0.007306099,-0.012254596
1570715657,-1.7710266,10.537186,-1.0113525,0.049621582,0.0105896,-0.003616333,0.025144935,0.007306099,-0.012254596
1570715657,-1.7710266,10.537186,-1.0113525,0.049621582,0.0105896,-0.003616333,0.025144935,0.007306099,-0.012254596
1570715657,-1.7710266,10.537186,-1.0113525,0.049621582,0.0105896,-0.003616333,0.025144935,0.007306099,-0.012254596
1570715657,-1.7710266,10.537186,-1.0113525,0.049621582,0.0105896,-0.003616333,0.025144935,0.007306099,-0.012254596
1570715657,-1.7710266,10.537186,-1.0113525,0.049621582,0.0105896,-0.003616333,0.025144935,0.007306099,-0.012254596
1570715657,-1.7710266,10.537186,-1.0113525,0.049621582,0.0105896,-0.003616333,0.025144935,0.007306099,-0.012254596
1570715657,-1.7710266,10.537186,-1.0113525,0.049621582,0.0105896,-0.003616333,0.025144935,0.007306099,-0.012254596
1570715657,-1.7710266,10.537186,-1.0113525,0.049621582,0.0105896,-0.003616333,0.025144935,0.007306099,-0.012254596
1570715657,-1.7710266,10.537186,-1.0113525,0.049621582,0.0105896,-0.003616333,0.025144935,0.007306099,-0.012254596
1570715657,-1.7710266,10.537186,-1.0113525,0.049621582,0.0105896,-0.003616333,0.025144935,0.007306099,-0.012254596
1570715657,-1.7710266,10.537186,-1.0113525,0.049621582,0.0105896,-0.003616333,0.025144935,0.007306099,-0.012254596
1570715657,-1.7710266,10.537186,-1.0113525,0.049621582,0.0105896,-0.003616333,0.025144935,0.007306099,-0.012254596
1570715657,-1.7710266,10.537186,-1.0113525,0.049621582,0.0105896,-0.003616333,0.025144935,0.007306099,-0.012254596
1570715657,-1.7710266,10.537186,-1.0113525,0.049621582,0.0105896,-0.003616333,0.025144935,0.007306099,-0.012254596
1570715657,-1.7710266,10.537186,-1.0113525,0.049621582,0.0105896,-0.003616333,0.025144935,0.007306099,-0.012254596
1570715657,-1.7710266,10.537186,-1.0113525,0.049621582,0.0105896,-0.003616333,0.025144935,0.007306099,-0.012254596
1570715657,-1.7710266,10.537186,-1.0113525,0.049621582,0.0105896,-0.003616333,0.025144935,0.007306099,-0.012254596
1570715657,-1.7710266,10.537186,-1.0113525,0.049621582,0.0105896,-0.003616333,0.025144935,0.007306099,-0.012254596
1570715657,-1.7710266,10.537186,-1.0113525,0.049621582,0.0105896,-0.003616333,0.025144935,0.007306099,-0.012254596
1570715657,-1.7710266,10.537186,-1.0113525,0.049621582,0.0105896,-0.003616333,0.025144935,0.007306099,-0.012254596
1570715657,-1.7710266,10.537186,-1.0113525,0.049621582,0.0105896,-0.003616333,0.025144935,0.007306099,-0.012254596
1570715657,-1.7710266,10.537186,-1.0113525,0.049621582,0.0105896,-0.003616333,0.025144935,0.007306099,-0.012254596
1570715657,-1.7710266,10.537186,-1.0113525,0.049621582,0.0105896,-0.003616333,0.025144935,0.007306099,-0.012254596
1570715657,-1.7710266,10.537186,-1.0113525,0.049621582,0.0105896,-0.003616333,0.025144935,0.007306099,-0.012254596
1570715657,-1.7710266,10.537186,-1.0113525,0.049621582,0.0105896,-0.003616333,0.025144935,0.007306099,-0.012254596
1570715657,-1.7710266,10.537186,-1.0113525,0.049621582,0.0105896,-0.003616333,0.025144935,0.007306099,-0.012254596
1570715657,-1.7710266,10.537186,-1.0113525,0.049621582,0.0105896,-0.003616333,0.025144935,0.007306099,-0.012254596
1570715657,-1.7710266,10.537186,-1.0113525,0.049621582,0.0105896,-0.003616333,0.025144935,0.007306099,-0.012254596
1570715657,-1.7710266,10.537186,-1.0113525,0.049621582,0.0105896,-0.003616333,0.025144935,0.007306099,-0.012254596
1570715657,-1.7710266,10.537186,-1.0113525,0.049621582,0.0105896,-0.003616333,0.025144935,0.007306099,-0.012254596
1570715657,-1.7710266,10.537186,-1.0113525,0.049621582,0.0105896,-0.003616333,0.025144935,0.007306099,-0.012254596
1570715657,-1.7710266,10.537186,-1.0113525,0.049621582,0.0105896,-0.003616333,0.025144935,0.007306099,-0.012254596
1570715657,-1.7710266,10.537186,-1.0113525,0.049621582,0.0105896,-0.003616333,0.025144935,0.007306099,-0.012254596
1570715657,-1.7710266,10.537186,-1.0113525,0.049621582,0.0105896,-0.003616333,0.025144935,0.007306099,-0.012254596
1570715657,-1.7710266,10.537186,-1.0113525,0.049621582,0.0105896,-0.003616333,0.025144935,0.007306099,-0.012254596
1570715657,-1.7710266,10.537186,-1.0113525,0.049621582,0.0105896,-0.003616333,0.025144935,0.007306099,-0.012254596
1570715657,-1.7710266,10.537186,-1.0113525,0.049621582,0.0105896,-0.003616333,0.025144935,0.007306099,-0.012254596
1570715657,-1.7710266,10.537186,-1.0113525,0.049621582,0.0105896,-0.003616333,0.025144935,0.007306099,-0.012254596
1570715657,-1.7710266,10.537186,-1.0113525,0.049621582,0.0105896,-0.003616333,0.025144935,0.007306099,-0.012254596
1570715657,-1.7710266,10.537186,-1.0113525,0.049621582,0.0105896,-0.003616333,0.025144935,0.007306099,-0.012254596
1570715657,-1.7710266,10.537186,-1.0113525,0.049621582,0.0105896,-0.003616333,0.025144935,0.007306099,-0.012254596
1570715657,-1.7710266,10.537186,-1.0113525,0.049621582,0.0105896,-0.003616333,0.025144935,0.007306099,-0.012254596
1570715657,-1.7710266,10.537186,-1.0113525,0.049621582,0.0105896,-0.003616333,0.025144935,0.007306099,-0.012254596
1570715657,-1.7710266,10.537186,-1.0113525,0.049621582,0.0105896,-0.003616333,0.025144935,0.007306099,-0.012254596
1570715657,-1.7710266,10.537186,-1.0113525,0.049621582,0.0105896,-0.003616333,0.025144935,0.007306099,-0.012254596
1570715657,-1.7710266,10.537186,-1.0113525,0.049621582,0.0105896,-0.003616333,0.025144935,0.007306099,-0.012254596
1570715657,-1.7710266,10.537186,-1.0113525,0.049621582,0.0105896,-0.003616333,0.025144935,0.007306099,-0.012254596
1570715657,-1.7710266,10.537186,-1.0113525,0.049621582,0.0105896,-0.003616333,0.025144935,0.007306099,-0.012254596
1570715657,-1.7710266,10.537186,-1.0113525,0.049621582,0.0105896,-0.003616333,0.025144935,0.007306099,-0.012254596
1570715657,-1.7710266,10.537186,-1.0113525,0.049621582,0.0105896,-0.003616333,0.025144935,0.007306099,-0.012254596
1570715657,-1.7710266,10.537186,-1.0113525,0.049621582,0.0105896,-0.003616333,0.025144935,0.007306099,-0.012254596
1570715657,-1.7710266,10.537186,-1.0113525,0.049621582,0.0105896,-0.003616333,0.025144935,0.007306099,-0.012254596
1570715657,-1.7710266,10.537186,-1.0113525,0.049621582,0.0105896,-0.003616333,0.025144935,0.007306099,-0.012254596
1570715657,-1.7710266,10.537186,-1.0113525,0.049621582,0.0105896,-0.003616333,0.025144935,0.007306099,-0.012254596
1570715657,-1.7710266,10.537186,-1.0113525,0.049621582,0.0105896,-0.003616333,0.025144935,0.007306099,-0.012254596
1570715657,-1.7710266,10.537186,-1.0113525,0.049621582,0.0105896,-0.003616333,0.025144935,0.007306099,-0.012254596
1570715657,-1.7710266,10.537186,-1.0113525,0.049621582,0.0105896,-0.003616333,0.025144935,0.007306099,-0.012254596
1570715657,-1.7710266,10.537186,-1.0113525,0.049621582,0.0105896,-0.003616333,0.025144935,0.007306099,-0.012254596
1570715657,-1.7710266,10.537186,-1.0113525,0.049621582,0.0105896,-0.003616333,0.025144935,0.007306099,-0.012254596
1570715657,-1.7710266,10.537186,-1.0113525,0.049621582,0.0105896,-0.003616333,0.025144935,0.007306099,-0.012254596
1570715657,-1.7710266,10.537186,-1.0113525,0.049621582,0.0105896,-0.003616333,0.025144935,0.007306099,-0.012254596
1570715657,-1.7710266,10.537186,-1.0113525,0.049621582,0.0105896,-0.003616333,0.025144935,0.007306099,-0.012254596
1570715657,-1.7710266,10.537186,-1.0113525,0.049621582,0.0105896,-0.003616333,0.025144935,0.007306099,-0.012254596
1570715657,-1.7710266,10.537186,-1.0113525,0.049621582,0.0105896,-0.003616333,0.025144935,0.007306099,-0.012254596
1570715657,-1.7710266,10.537186,-1.0113525,0.049621582,0.0105896,-0.003616333,0.025144935,0.007306099,-0.012254596
1570715657,-1.7710266,10.537186,-1.0113525,0.049621582,0.0105896,-0.003616333,0.025144935,0.007306099,-0.012254596
1570715657,-1.7710266,10.537186,-1.0113525,0.049621582,0.0105896,-0.003616333,0.025144935,0.007306099,-0.012254596
1570715657,-1.7710266,10.537186,-1.0113525,0.049621582,0.0105896,-0.003616333,0.025144935,0.007306099,-0.012254596
1570715657,-1.7710266,10.537186,-1.0113525,0.049621582,0.0105896,-0.003616333,0.025144935,0.007306099,-0.012254596
1570715657,-1.7710266,10.537186,-1.0113525,0.049621582,0.0105896,-0.003616333,0.025144935,0.007306099,-0.012254596
1570715657,-1.7710266,10.537186,-1.0113525,0.049621582,0.0105896,-0.003616333,0.025144935,0.007306099,-0.012254596
1570715657,-1.7710266,10.537186,-1.0113525,0.049621582,0.0105896,-0.003616333,0.025144935,0.007306099,-0.012254596
1570715657,-1.7710266,10.537186,-1.0113525,0.049621582,0.0105896,-0.003616333,0.025144935,0.007306099,-0.012254596
1570715657,-1.7710266,10.537186,-1.0113525,0.049621582,0.0105896,-0.003616333,0.025144935,0.007306099,-0.012254596
1570715657,-1.7710266,10.537186,-1.0113525,0.049621582,0.0105896,-0.003616333,0.025144935,0.007306099,-0.012254596
1570715657,-1.7710266,10.537186,-1.0113525,0.049621582,0.0105896,-0.003616333,0.025144935,0.007306099,-0.012254596
1570715657,-1.7710266,10.537186,-1.0113525,0.049621582,0.0105896,-0.003616333,0.025144935,0.007306099,-0.012254596
1570715657,-1.7710266,10.537186,-1.0113525,0.049621582,0.0105896,-0.003616333,0.025144935,0.007306099,-0.012254596
1570715657,-1.7710266,10.537186,-1.0113525,0.049621582,0.0105896,-0.003616333,0.025144935,0.007306099,-0.012254596
1570715657,-1.7710266,10.537186,-1.0113525,0.049621582,0.0105896,-0.003616333,0.025144935,0.007306099,-0.012254596
1570715657,-1.7710266,10.537186,-1.0113525,0.049621582,0.0105896,-0.003616333,0.025144935,0.007306099,-0.012254596
1570715657,-1.7710266,10.537186,-1.0113525,0.049621582,0.0105896,-0.003616333,0.025144935,0.007306099,-0.012254596
1570715657,-1.7710266,10.537186,-1.0113525,0.049621582,0.0105896,-0.003616333,0.025144935,0.007306099,-0.012254596
1570715657,-1.7710266,10.537186,-1.0113525,0.049621582,0.0105896,-0.003616333,0.025144935,0.007306099,-0.012254596
1570715657,-1.7710266,10.537186,-1.0113525,0.049621582,0.0105896,-0.003616333,0.025144935,0.007306099,-0.012254596
1570715657,-1.7710266,10.537186,-1.0113525,0.049621582,0.0105896,-0.003616333,0.025144935,0.007306099,-0.012254596
1570715657,-1.7710266,10.537186,-1.0113525,0.049621582,0.0105896,-0.003616333,0.025144935,0.007306099,-0.012254596
1570715657,-1.7710266,10.537186,-1.0113525,0.049621582,0.0105896,-0.003616333,0.025144935,0.007306099,-0.012254596
1570715657,-1.7710266,10.537186,-1.0113525,0.049621582,0.0105896,-0.003616333,0.025144935,0.007306099,-0.012254596
1570715657,-1.7710266,10.537186,-1.0113525,0.049621582,0.0105896,-0.003616333,0.025144935,0.007306099,-0.012254596
1570715657,-1.7710266,10.537186,-1.0113525,0.049621582,0.0105896,-0.003616333,0.025144935,0.007306099,-0.012254596
1570715657,-1.7710266,10.537186,-1.0113525,0.049621582,0.0105896,-0.003616333,0.025144935,0.007306099,-0.012254596
1570715657,-1.7710266,10.537186,-1.0113525,0.049621582,0.0105896,-0.003616333,0.025144935,0.007306099,-0.012254596
1570715657,-1.7710266,10.537186,-1.0113525,0.049621582,0.0105896,-0.003616333,0.025144935,0.007306099,-0.012254596
1570715657,-1.7710266,10.537186,-1.0113525,0.049621582,0.0105896,-0.003616333,0.025144935,0.007306099,-0.012254596
1570715657,-1.7710266,10.537186,-1.0113525,0.049621582,0.0105896,-0.003616333,0.025144935,0.007306099,-0.012254596
1570715657,-1.7710266,10.537186,-1.0113525,0.049621582,0.0105896,-0.003616333,0.025144935,0.007306099,-0.012254596
1570715657,-1.7710266,10.537186,-1.0113525,0.049621582,0.0105896,-0.003616333,0.025144935,0.007306099,-0.012254596
1570715657,-1.7710266,10.537186,-1.0113525,0.049621582,0.0105896,-0.003616333,0.025144935,0.007306099,-0.012254596
1570715657,-1.7710266,10.537186,-1.0113525,0.049621582,0.0105896,-0.003616333,0.025144935,0.007306099,-0.012254596
1570715657,-1.7710266,10.537186,-1.0113525,0.049621582,0.0105896,-0.003616333,0.025144935,0.007306099,-0.012254596
1570715657,-1.7710266,10.537186,-1.0113525,0.049621582,0.0105896,-0.003616333,0.025144935,0.007306099,-0.012254596
1570715657,-1.7710266,10.537186,-1.0113525,0.049621582,0.0105896,-0.003616333,0.025144935,0.007306099,-0.012254596
1570715657,-1.7710266,10.537186,-1.0113525,0.049621582,0.0105896,-0.003616333,0.025144935,0.007306099,-0.012254596
1570715657,-1.7710266,10.537186,-1.0113525,0.049621582,0.0105896,-0.003616333,0.025144935,0.007306099,-0.012254596
1570715657,-1.7710266,10.537186,-1.0113525,0.049621582,0.0105896,-0.003616333,0.025144935,0.007306099,-0.012254596
1570715657,-1.7710266,10.537186,-1.0113525,0.049621582,0.0105896,-0.003616333,0.025144935,0.007306099,-0.012254596
1570715657,-1.7710266,10.537186,-1.0113525,0.049621582,0.0105896,-0.003616333,0.025144935,0.007306099,-0.012254596
1570715657,-1.7710266,10.537186,-1.0113525,0.049621582,0.0105896,-0.003616333,0.025144935,0.007306099,-0.012254596
1570715657,-1.7710266,10.537186,-1.0113525,0.049621582,0.0105896,-0.003616333,0.025144935,0.007306099,-0.012254596
1570715657,-1.7710266,10.537186,-1.0113525,0.049621582,0.0105896,-0.003616333,0.025144935,0.007306099,-0.012254596
1570715657,-1.7710266,10.537186,-1.0113525,0.049621582,0.0105896,-0.003616333,0.025144935,0.007306099,-0.012254596
1570715657,-1.7710266,10.537186,-1.0113525,0.049621582,0.0105896,-0.003616333,0.025144935,0.007306099,-0.012254596
1570715657,-1.7710266,10.537186,-1.0113525,0.049621582,0.0105896,-0.003616333,0.025144935,0.007306099,-0.012254596
1570715657,-1.7710266,10.537186,-1.0113525,0.049621582,0.0105896,-0.003616333,0.025144935,0.007306099,-0.012254596
1570715657,-1.7710266,10.537186,-1.0113525,0.049621582,0.0105896,-0.003616333,0.025144935,0.007306099,-0.012254596
1570715657,-1.7710266,10.537186,-1.0113525,0.049621582,0.0105896,-0.003616333,0.025144935,0.007306099,-0.012254596
1570715657,-1.7710266,10.537186,-1.0113525,0.049621582,0.0105896,-0.003616333,0.025144935,0.007306099,-0.012254596
1570715657,-1.7710266,10.537186,-1.0113525,0.049621582,0.0105896,-0.003616333,0.025144935,0.007306099,-0.012254596
1570715657,-1.7710266,10.537186,-1.0113525,0.049621582,0.0105896,-0.003616333,0.025144935,0.007306099,-0.012254596
1570715657,-1.7710266,10.537186,-1.0113525,0.049621582,0.0105896,-0.003616333,0.025144935,0.007306099,-0.012254596
1570715657,-1.7710266,10.537186,-1.0113525,0.049621582,0.0105896,-0.003616333,0.025144935,0.007306099,-0.012254596
1570715657,-1.7710266,10.537186,-1.0113525,0.049621582,0.0105896,-0.003616333,0.025144935,0.007306099,-0.012254596
1570715657,-1.7710266,10.537186,-1.0113525,0.049621582,0.0105896,-0.003616333,0.025144935,0.007306099,-0.012254596
1570715657,-1.7710266,10.537186,-1.0113525,0.049621582,0.0105896,-0.003616333,0.025144935,0.007306099,-0.012254596
1570715657,-1.7710266,10.537186,-1.0113525,0.049621582,0.0105896,-0.003616333,0.025144935,0.007306099,-0.012254596
1570715657,-1.7710266,10.537186,-1.0113525,0.049621582,0.0105896,-0.003616333,0.025144935,0.007306099,-0.012254596
1570715657,-1.7710266,10.537186,-1.0113525,0.049621582,0.0105896,-0.003616333,0.025144935,0.007306099,-0.012254596
1570715657,-1.7710266,10.537186,-1.0113525,0.049621582,0.0105896,-0.003616333,0.025144935,0.007306099,-0.012254596
1570715657,-1.7710266,10.537186,-1.0113525,0.049621582,0.0105896,-0.003616333,0.025144935,0.007306099,-0.012254596
1570715657,-1.7710266,10.537186,-1.0113525,0.049621582,0.0105896,-0.003616333,0.025144935,0.007306099,-0.012254596
1570715657,-1.7710266,10.537186,-1.0113525,0.049621582,0.0105896,-0.003616333,0.025144935,0.007306099,-0.012254596
1570715657,-1.7710266,10.537186,-1.0113525,0.049621582,0.0105896,-0.003616333,0.025144935,0.007306099,-0.012254596
1570715657,-1.7710266,10.537186,-1.0113525,0.049621582,0.0105896,-0.003616333,0.025144935,0.007306099,-0.012254596
1570715657,-1.7710266,10.537186,-1.0113525,0.049621582,0.0105896,-0.003616333,0.025144935,0.007306099,-0.012254596
1570715657,-1.7710266,10.537186,-1.0113525,0.049621582,0.0105896,-0.003616333,0.025144935,0.007306099,-0.012254596
1570715657,-1.7710266,10.537186,-1.0113525,0.049621582,0.0105896,-0.003616333,0.025144935,0.007306099,-0.012254596
1570715657,-1.7710266,10.537186,-1.0113525,0.049621582,0.0105896,-0.003616333,0.025144935,0.007306099,-0.012254596
1570715657,-1.7710266,10.537186,-1.0113525,0.049621582,0.0105896,-0.003616333,0.025144935,0.007306099,-0.012254596
1570715657,-1.7710266,10.537186,-1.0113525,0.049621582,0.0105896,-0.003616333,0.025144935,0.007306099,-0.012254596
1570715657,-1.7710266,10.537186,-1.0113525,0.049621582,0.0105896,-0.003616333,0.025144935,0.007306099,-0.012254596
1570715657,-1.7710266,10.537186,-1.0113525,0.049621582,0.0105896,-0.003616333,0.025144935,0.007306099,-0.012254596
1570715657,-1.7710266,10.537186,-1.0113525,0.049621582,0.0105896,-0.003616333,0.025144935,0.007306099,-0.012254596
1570715657,-1.7710266,10.537186,-1.0113525,0.049621582,0.0105896,-0.003616333,0.025144935,0.007306099,-0.012254596
1570715657,-1.7710266,10.537186,-1.0113525,0.049621582,0.0105896,-0.003616333,0.025144935,0.007306099,-0.012254596
1570715657,-1.7710266,10.537186,-1.0113525,0.049621582,0.0105896,-0.003616333,0.025144935,0.007306099,-0.012254596
1570715657,-1.7710266,10.537186,-1.0113525,0.049621582,0.0105896,-0.003616333,0.025144935,0.007306099,-0.012254596
1570715657,-1.7710266,10.537186,-1.0113525,0.049621582,0.0105896,-0.003616333,0.025144935,0.007306099,-0.012254596
1570715657,-1.7710266,10.537186,-1.0113525,0.049621582,0.0105896,-0.003616333,0.025144935,0.007306099,-0.012254596
1570715657,-1.7710266,10.537186,-1.0113525,0.049621582,0.0105896,-0.003616333,0.025144935,0.007306099,-0.012254596
1570715657,-1.7710266,10.537186,-1.0113525,0.049621582,0.0105896,-0.003616333,0.025144935,0.007306099,-0.012254596
1570715657,-1.7710266,10.537186,-1.0113525,0.049621582,0.0105896,-0.003616333,0.025144935,0.007306099,-0.012254596
1570715657,-1.7710266,10.537186,-1.0113525,0.049621582,0.0105896,-0.003616333,0.025144935,0.007306099,-0.012254596
1570715657,-1.7710266,10.537186,-1.0113525,0.049621582,0.0105896,-0.003616333,0.025144935,0.007306099,-0.012254596
1570715657,-1.7710266,10.537186,-1.0113525,0.049621582,0.0105896,-0.003616333,0.025144935,0.007306099,-0.012254596
1570715657,-1.7710266,10.537186,-1.0113525,0.049621582,0.0105896,-0.003616333,0.025144935,0.007306099,-0.012254596
1570715657,-1.7710266,10.537186,-1.0113525,0.049621582,0.0105896,-0.003616333,0.025144935,0.007306099,-0.012254596
1570715657,-1.7710266,10.537186,-1.0113525,0.049621582,0.0105896,-0.003616333,0.025144935,0.007306099,-0.012254596
1570715657,-1.7710266,10.537186,-1.0113525,0.049621582,0.0105896,-0.003616333,0.025144935,0.007306099,-0.012254596
1570715657,-1.7710266,10.537186,-1.0113525,0.049621582,0.0105896,-0.003616333,0.025144935,0.007306099,-0.012254596
1570715657,-1.7710266,10.537186,-1.0113525,0.049621582,0.0105896,-0.003616333,0.025144935,0.007306099,-0.012254596
1570715657,-1.7710266,10.537186,-1.0113525,0.049621582,0.0105896,-0.003616333,0.025144935,0.007306099,-0.012254596
1570715657,-1.7710266,10.537186,-1.0113525,0.049621582,0.0105896,-0.003616333,0.025144935,0.007306099,-0.012254596
1570715657,-1.7710266,10.537186,-1.0113525,0.049621582,0.0105896,-0.003616333,0.025144935,0.007306099,-0.012254596
1570715657,-1.7710266,10.537186,-1.0113525,0.049621582,0.0105896,-0.003616333,0.025144935,0.007306099,-0.012254596
1570715657,-1.7710266,10.537186,-1.0113525,0.049621582,0.0105896,-0.003616333,0.025144935,0.007306099,-0.012254596
1570715657,-1.7710266,10.537186,-1.0113525,0.049621582,0.0105896,-0.003616333,0.025144935,0.007306099,-0.012254596
1570715657,-1.7710266,10.537186,-1.0113525,0.049621582,0.0105896,-0.003616333,0.025144935,0.007306099,-0.012254596
1570715657,-1.7710266,10.537186,-1.0113525,0.049621582,0.0105896,-0.003616333,0.025144935,0.007306099,-0.012254596
1570715657,-1.7710266,10.537186,-1.0113525,0.049621582,0.0105896,-0.003616333,0.025144935,0.007306099,-0.012254596
1570715657,-1.7710266,10.537186,-1.0113525,0.049621582,0.0105896,-0.003616333,0.025144935,0.007306099,-0.012254596
1570715657,-1.7710266,10.537186,-1.0113525,0.049621582,0.0105896,-0.003616333,0.025144935,0.007306099,-0.012254596
1570715657,-1.7710266,10.537186,-1.0113525,0.049621582,0.0105896,-0.003616333,0.025144935,0.007306099,-0.012254596
1570715657,-1.7710266,10.537186,-1.0113525,0.049621582,0.0105896,-0.003616333,0.025144935,0.007306099,-0.012254596
1570715657,-1.7710266,10.537186,-1.0113525,0.049621582,0.0105896,-0.003616333,0.025144935,0.007306099,-0.012254596
1570715657,-1.7710266,10.537186,-1.0113525,0.049621582,0.0105896,-0.003616333,0.025144935,0.007306099,-0.012254596
1570715657,-1.7710266,10.537186,-1.0113525,0.049621582,0.0105896,-0.003616333,0.025144935,0.007306099,-0.012254596
1570715657,-1.7710266,10.537186,-1.0113525,0.049621582,0.0105896,-0.003616333,0.025144935,0.007306099,-0.012254596
1570715657,-1.7710266,10.537186,-1.0113525,0.049621582,0.0105896,-0.003616333,0.025144935,0.007306099,-0.012254596
1570715657,-1.7710266,10.537186,-1.0113525,0.049621582,0.0105896,-0.003616333,0.025144935,0.007306099,-0.012254596
1570715657,-1.7710266,10.537186,-1.0113525,0.049621582,0.0105896,-0.003616333,0.025144935,0.007306099,-0.012254596
1570715657,-1.7710266,10.537186,-1.0113525,0.049621582,0.0105896,-0.003616333,0.025144935,0.007306099,-0.012254596
1570715657,-1.7710266,10.537186,-1.0113525,0.049621582,0.0105896,-0.003616333,0.025144935,0.007306099,-0.012254596
1570715657,-1.7710266,10.537186,-1.0113525,0.049621582,0.0105896,-0.003616333,0.025144935,0.007306099,-0.012254596
1570715657,-1.7710266,10.537186,-1.0113525,0.049621582,0.0105896,-0.003616333,0.025144935,0.007306099,-0.012254596
1570715657,-1.7710266,10.537186,-1.0113525,0.049621582,0.0105896,-0.003616333,0.025144935,0.007306099,-0.012254596
1570715657,-1.7710266,10.537186,-1.0113525,0.049621582,0.0105896,-0.003616333,0.025144935,0.007306099,-0.012254596
1570715657,-1.7710266,10.537186,-1.0113525,0.049621582,0.0105896,-0.003616333,0.025144935,0.007306099,-0.012254596
1570715657,-1.7710266,10.537186,-1.0113525,0.049621582,0.0105896,-0.003616333,0.025144935,0.007306099,-0.012254596
1570715657,-1.7710266,10.537186,-1.0113525,0.049621582,0.0105896,-0.003616333,0.025144935,0.007306099,-0.012254596
1570715657,-1.7710266,10.537186,-1.0113525,0.049621582,0.0105896,-0.003616333,0.025144935,0.007306099,-0.012254596
1570715657,-1.7710266,10.537186,-1.0113525,0.049621582,0.0105896,-0.003616333,0.025144935,0.007306099,-0.012254596
1570715657,-1.7710266,10.537186,-1.0113525,0.049621582,0.0105896,-0.003616333,0.025144935,0.007306099,-0.012254596
1570715657,-1.7710266,10.537186,-1.0113525,0.049621582,0.0105896,-0.003616333,0.025144935,0.007306099,-0.012254596
1570715657,-1.7710266,10.537186,-1.0113525,0.049621582,0.0105896,-0.003616333,0.025144935,0.007306099,-0.012254596
1570715657,-1.7710266,10.537186,-1.0113525,0.049621582,0.0105896,-0.003616333,0.025144935,0.007306099,-0.012254596
1570715657,-1.7710266,10.537186,-1.0113525,0.049621582,0.0105896,-0.003616333,0.025144935,0.007306099,-0.012254596
1570715657,-1.7710266,10.537186,-1.0113525,0.049621582,0.0105896,-0.003616333,0.025144935,0.007306099,-0.012254596
1570715657,-1.7710266,10.537186,-1.0113525,0.049621582,0.0105896,-0.003616333,0.025144935,0.007306099,-0.012254596
1570715657,-1.7710266,10.537186,-1.0113525,0.049621582,0.0105896,-0.003616333,0.025144935,0.007306099,-0.012254596
1570715657,-1.7710266,10.537186,-1.0113525,0.049621582,0.0105896,-0.003616333,0.025144935,0.007306099,-0.012254596
1570715657,-1.7710266,10.537186,-1.0113525,0.049621582,0.0105896,-0.003616333,0.025144935,0.007306099,-0.012254596
1570715657,-1.7710266,10.537186,-1.0113525,0.049621582,0.0105896,-0.003616333,0.025144935,0.007306099,-0.012254596
1570715657,-1.7710266,10.537186,-1.0113525,0.049621582,0.0105896,-0.003616333,0.025144935,0.007306099,-0.012254596
1570715657,-1.7710266,10.537186,-1.0113525,0.049621582,0.0105896,-0.003616333,0.025144935,0.007306099,-0.012254596
1570715657,-1.7710266,10.537186,-1.0113525,0.049621582,0.0105896,-0.003616333,0.025144935,0.007306099,-0.012254596
1570715657,-1.7710266,10.537186,-1.0113525,0.049621582,0.0105896,-0.003616333,0.025144935,0.007306099,-0.012254596
1570715657,-1.7710266,10.537186,-1.0113525,0.049621582,0.0105896,-0.003616333,0.025144935,0.007306099,-0.012254596
1570715657,-1.7710266,10.537186,-1.0113525,0.049621582,0.0105896,-0.003616333,0.025144935,0.007306099,-0.012254596
1570715657,-1.7710266,10.537186,-1.0113525,0.049621582,0.0105896,-0.003616333,0.025144935,0.007306099,-0.012254596
1570715657,-1.7710266,10.537186,-1.0113525,0.049621582,0.0105896,-0.003616333,0.025144935,0.007306099,-0.012254596
1570715657,-1.7710266,10.537186,-1.0113525,0.049621582,0.0105896,-0.003616333,0.025144935,0.007306099,-0.012254596
1570715657,-1.7710266,10.537186,-1.0113525,0.049621582,0.0105896,-0.003616333,0.025144935,0.007306099,-0.012254596
1570715657,-1.7710266,10.537186,-1.0113525,0.049621582,0.0105896,-0.003616333,0.025144935,0.007306099,-0.012254596
1570715657,-1.7710266,10.537186,-1.0113525,0.049621582,0.0105896,-0.003616333,0.025144935,0.007306099,-0.012254596
1570715657,-1.7710266,10.537186,-1.0113525,0.049621582,0.0105896,-0.003616333,0.025144935,0.007306099,-0.012254596
1570715657,-1.7710266,10.537186,-1.0113525,0.049621582,0.0105896,-0.003616333,0.025144935,0.007306099,-0.012254596
1570715657,-1.7710266,10.537186,-1.0113525,0.049621582,0.0105896,-0.003616333,0.025144935,0.007306099,-0.012254596
1570715657,-1.7710266,10.537186,-1.0113525,0.049621582,0.0105896,-0.003616333,0.025144935,0.007306099,-0.012254596
1570715657,-1.7710266,10.537186,-1.0113525,0.049621582,0.0105896,-0.003616333,0.025144935,0.007306099,-0.012254596
1570715657,-1.7710266,10.537186,-1.0113525,0.049621582,0.0105896,-0.003616333,0.025144935,0.007306099,-0.012254596
1570715657,-1.7710266,10.537186,-1.0113525,0.049621582,0.0105896,-0.003616333,0.025144935,0.007306099,-0.012254596
1570715657,-1.7710266,10.537186,-1.0113525,0.049621582,0.0105896,-0.003616333,0.025144935,0.007306099,-0.012254596
1570715657,-1.7710266,10.537186,-1.0113525,0.049621582,0.0105896,-0.003616333,0.025144935,0.007306099,-0.012254596
1570715657,-1.7710266,10.537186,-1.0113525,0.049621582,0.0105896,-0.003616333,0.025144935,0.007306099,-0.012254596
1570715657,-1.7710266,10.537186,-1.0113525,0.049621582,0.0105896,-0.003616333,0.025144935,0.007306099,-0.012254596
1570715657,-1.7710266,10.537186,-1.0113525,0.049621582,0.0105896,-0.003616333,0.025144935,0.007306099,-0.012254596
1570715657,-1.7710266,10.537186,-1.0113525,0.049621582,0.0105896,-0.003616333,0.025144935,0.007306099,-0.012254596
1570715657,-1.7710266,10.537186,-1.0113525,0.049621582,0.0105896,-0.003616333,0.025144935,0.007306099,-0.012254596
1570715657,-1.7710266,10.537186,-1.0113525,0.049621582,0.0105896,-0.003616333,0.025144935,0.007306099,-0.012254596
1570715657,-1.7710266,10.537186,-1.0113525,0.049621582,0.0105896,-0.003616333,0.025144935,0.007306099,-0.012254596
1570715657,-1.7710266,10.537186,-1.0113525,0.049621582,0.0105896,-0.003616333,0.025144935,0.007306099,-0.012254596
1570715657,-1.7710266,10.537186,-1.0113525,0.049621582,0.0105896,-0.003616333,0.025144935,0.007306099,-0.012254596
1570715657,-1.7710266,10.537186,-1.0113525,0.049621582,0.0105896,-0.003616333,0.025144935,0.007306099,-0.012254596
1570715657,-1.7710266,10.537186,-1.0113525,0.049621582,0.0105896,-0.003616333,0.025144935,0.007306099,-0.012254596
1570715657,-1.7710266,10.537186,-1.0113525,0.049621582,0.0105896,-0.003616333,0.025144935,0.007306099,-0.012254596
1570715657,-1.7710266,10.537186,-1.0113525,0.049621582,0.0105896,-0.003616333,0.025144935,0.007306099,-0.012254596
1570715657,-1.7710266,10.537186,-1.0113525,0.049621582,0.0105896,-0.003616333,0.025144935,0.007306099,-0.012254596
1570715657,-1.7710266,10.537186,-1.0113525,0.049621582,0.0105896,-0.003616333,0.025144935,0.007306099,-0.012254596
1570715657,-1.7710266,10.537186,-1.0113525,0.049621582,0.0105896,-0.003616333,0.025144935,0.007306099,-0.012254596
1570715657,-1.7710266,10.537186,-1.0113525,0.049621582,0.0105896,-0.003616333,0.025144935,0.007306099,-0.012254596
1570715657,-1.7710266,10.537186,-1.0113525,0.049621582,0.0105896,-0.003616333,0.025144935,0.007306099,-0.012254596
1570715657,-1.7710266,10.537186,-1.0113525,0.049621582,0.0105896,-0.003616333,0.025144935,0.007306099,-0.012254596
1570715657,-1.7710266,10.537186,-1.0113525,0.049621582,0.0105896,-0.003616333,0.025144935,0.007306099,-0.012254596
1570715657,-1.7710266,10.537186,-1.0113525,0.049621582,0.0105896,-0.003616333,0.025144935,0.007306099,-0.012254596
1570715657,-1.7710266,10.537186,-1.0113525,0.049621582,0.0105896,-0.003616333,0.025144935,0.007306099,-0.012254596
1570715657,-1.7710266,10.537186,-1.0113525,0.049621582,0.0105896,-0.003616333,0.025144935,0.007306099,-0.012254596
1570715657,-1.7710266,10.537186,-1.0113525,0.049621582,0.0105896,-0.003616333,0.025144935,0.007306099,-0.012254596
1570715657,-1.7710266,10.537186,-1.0113525,0.049621582,0.0105896,-0.003616333,0.025144935,0.007306099,-0.012254596
1570715657,-1.7710266,10.537186,-1.0113525,0.049621582,0.0105896,-0.003616333,0.025144935,0.007306099,-0.012254596
1570715657,-1.7710266,10.537186,-1.0113525,0.049621582,0.0105896,-0.003616333,0.025144935,0.007306099,-0.012254596
1570715657,-1.7710266,10.537186,-1.0113525,0.049621582,0.0105896,-0.003616333,0.025144935,0.007306099,-0.012254596
1570715657,-1.7710266,10.537186,-1.0113525,0.049621582,0.0105896,-0.003616333,0.025144935,0.007306099,-0.012254596
1570715657,-1.7710266,10.537186,-1.0113525,0.049621582,0.0105896,-0.003616333,0.025144935,0.007306099,-0.012254596
1570715657,-1.7710266,10.537186,-1.0113525,0.049621582,0.0105896,-0.003616333,0.025144935,0.007306099,-0.012254596
1570715657,-1.7710266,10.537186,-1.0113525,0.049621582,0.0105896,-0.003616333,0.025144935,0.007306099,-0.012254596
1570715657,-1.7710266,10.537186,-1.0113525,0.049621582,0.0105896,-0.003616333,0.025144935,0.007306099,-0.012254596
1570715657,-1.7710266,10.537186,-1.0113525,0.049621582,0.0105896,-0.003616333,0.025144935,0.007306099,-0.012254596
1570715657,-1.7710266,10.537186,-1.0113525,0.049621582,0.0105896,-0.003616333,0.025144935,0.007306099,-0.012254596
1570715657,-1.7710266,10.537186,-1.0113525,0.049621582,0.0105896,-0.003616333,0.025144935,0.007306099,-0.012254596
1570715657,-1.7710266,10.537186,-1.0113525,0.049621582,0.0105896,-0.003616333,0.025144935,0.007306099,-0.012254596
1570715657,-1.7710266,10.537186,-1.0113525,0.049621582,0.0105896,-0.003616333,0.025144935,0.007306099,-0.012254596
1570715657,-1.7710266,10.537186,-1.0113525,0.049621582,0.0105896,-0.003616333,0.025144935,0.007306099,-0.012254596
1570715657,-1.7710266,10.537186,-1.0113525,0.049621582,0.0105896,-0.003616333,0.025144935,0.007306099,-0.012254596
1570715657,-1.7710266,10.537186,-1.0113525,0.049621582,0.0105896,-0.003616333,0.025144935,0.007306099,-0.012254596
1570715657,-1.7710266,10.537186,-1.0113525,0.049621582,0.0105896,-0.003616333,0.025144935,0.007306099,-0.012254596
1570715657,-1.7710266,10.537186,-1.0113525,0.049621582,0.0105896,-0.003616333,0.025144935,0.007306099,-0.012254596
1570715657,-1.7710266,10.537186,-1.0113525,0.049621582,0.0105896,-0.003616333,0.025144935,0.007306099,-0.012254596
1570715657,-1.7710266,10.537186,-1.0113525,0.049621582,0.0105896,-0.003616333,0.025144935,0.007306099,-0.012254596
1570715657,-1.7710266,10.537186,-1.0113525,0.049621582,0.0105896,-0.003616333,0.025144935,0.007306099,-0.012254596
1570715657,-1.7710266,10.537186,-1.0113525,0.049621582,0.0105896,-0.003616333,0.025144935,0.007306099,-0.012254596
1570715657,-1.7710266,10.537186,-1.0113525,0.049621582,0.0105896,-0.003616333,0.025144935,0.007306099,-0.012254596
1570715657,-1.7710266,10.537186,-1.0113525,0.049621582,0.0105896,-0.003616333,0.025144935,0.007306099,-0.012254596
1570715657,-1.7710266,10.537186,-1.0113525,0.049621582,0.0105896,-0.003616333,0.025144935,0.007306099,-0.012254596
1570715657,-1.7710266,10.537186,-1.0113525,0.049621582,0.0105896,-0.003616333,0.025144935,0.007306099,-0.012254596
1570715657,-1.7710266,10.537186,-1.0113525,0.049621582,0.0105896,-0.003616333,0.025144935,0.007306099,-0.012254596
1570715657,-1.7710266,10.537186,-1.0113525,0.049621582,0.0105896,-0.003616333,0.025144935,0.007306099,-0.012254596
1570715657,-1.7710266,10.537186,-1.0113525,0.049621582,0.0105896,-0.003616333,0.025144935,0.007306099,-0.012254596
1570715657,-1.7710266,10.537186,-1.0113525,0.049621582,0.0105896,-0.003616333,0.025144935,0.007306099,-0.012254596
1570715657,-1.7710266,10.537186,-1.0113525,0.049621582,0.0105896,-0.003616333,0.025144935,0.007306099,-0.012254596
1570715657,-1.7710266,10.537186,-1.0113525,0.049621582,0.0105896,-0.003616333,0.025144935,0.007306099,-0.012254596
1570715657,-1.7710266,10.537186,-1.0113525,0.049621582,0.0105896,-0.003616333,0.025144935,0.007306099,-0.012254596
1570715657,-1.7710266,10.537186,-1.0113525,0.049621582,0.0105896,-0.003616333,0.025144935,0.007306099,-0.012254596
1570715657,-1.7710266,10.537186,-1.0113525,0.049621582,0.0105896,-0.003616333,0.025144935,0.007306099,-0.012254596
1570715657,-1.7710266,10.537186,-1.0113525,0.049621582,0.0105896,-0.003616333,0.025144935,0.007306099,-0.012254596
1570715657,-1.7710266,10.537186,-1.0113525,0.049621582,0.0105896,-0.003616333,0.025144935,0.007306099,-0.012254596
1570715657,-1.7710266,10.537186,-1.0113525,0.049621582,0.0105896,-0.003616333,0.025144935,0.007306099,-0.012254596
1570715657,-1.7710266,10.537186,-1.0113525,0.049621582,0.0105896,-0.003616333,0.025144935,0.007306099,-0.012254596
1570715657,-1.7710266,10.537186,-1.0113525,0.049621582,0.0105896,-0.003616333,0.025144935,0.007306099,-0.012254596
1570715657,-1.7710266,10.537186,-1.0113525,0.049621582,0.0105896,-0.003616333,0.025144935,0.007306099,-0.012254596
1570715657,-1.7710266,10.537186,-1.0113525,0.049621582,0.0105896,-0.003616333,0.025144935,0.007306099,-0.012254596
1570715657,-1.7710266,10.537186,-1.0113525,0.049621582,0.0105896,-0.003616333,0.025144935,0.007306099,-0.012254596
1570715657,-1.7710266,10.537186,-1.0113525,0.049621582,0.0105896,-0.003616333,0.025144935,0.007306099,-0.012254596
1570715657,-1.7710266,10.537186,-1.0113525,0.049621582,0.0105896,-0.003616333,0.025144935,0.007306099,-0.012254596
1570715657,-1.7710266,10.537186,-1.0113525,0.049621582,0.0105896,-0.003616333,0.025144935,0.007306099,-0.012254596
1570715657,-1.7710266,10.537186,-1.0113525,0.049621582,0.0105896,-0.003616333,0.025144935,0.007306099,-0.012254596
1570715657,-1.7710266,10.537186,-1.0113525,0.049621582,0.0105896,-0.003616333,0.025144935,0.007306099,-0.012254596
1570715657,-1.7710266,10.537186,-1.0113525,0.049621582,0.0105896,-0.003616333,0.025144935,0.007306099,-0.012254596
1570715657,-1.7710266,10.537186,-1.0113525,0.049621582,0.0105896,-0.003616333,0.025144935,0.007306099,-0.012254596
1570715657,-1.7710266,10.537186,-1.0113525,0.049621582,0.0105896,-0.003616333,0.025144935,0.007306099,-0.012254596
1570715657,-1.7710266,10.537186,-1.0113525,0.049621582,0.0105896,-0.003616333,0.025144935,0.007306099,-0.012254596
1570715657,-1.7710266,10.537186,-1.0113525,0.049621582,0.0105896,-0.003616333,0.025144935,0.007306099,-0.012254596
1570715657,-1.7710266,10.537186,-1.0113525,0.049621582,0.0105896,-0.003616333,0.025144935,0.007306099,-0.012254596
1570715657,-1.7710266,10.537186,-1.0113525,0.049621582,0.0105896,-0.003616333,0.025144935,0.007306099,-0.012254596
1570715657,-1.7710266,10.537186,-1.0113525,0.049621582,0.0105896,-0.003616333,0.025144935,0.007306099,-0.012254596
1570715657,-1.7710266,10.537186,-1.0113525,0.049621582,0.0105896,-0.003616333,0.025144935,0.007306099,-0.012254596
1570715657,-1.7710266,10.537186,-1.0113525,0.049621582,0.0105896,-0.003616333,0.025144935,0.007306099,-0.012254596
1570715657,-1.7710266,10.537186,-1.0113525,0.049621582,0.0105896,-0.003616333,0.025144935,0.007306099,-0.012254596
1570715657,-1.7710266,10.537186,-1.0113525,0.049621582,0.0105896,-0.003616333,0.025144935,0.007306099,-0.012254596
1570715657,-1.7710266,10.537186,-1.0113525,0.049621582,0.0105896,-0.003616333,0.025144935,0.007306099,-0.012254596
1570715657,-1.7710266,10.537186,-1.0113525,0.049621582,0.0105896,-0.003616333,0.025144935,0.007306099,-0.012254596
1570715657,-1.7710266,10.537186,-1.0113525,0.049621582,0.0105896,-0.003616333,0.025144935,0.007306099,-0.012254596
1570715657,-1.7710266,10.537186,-1.0113525,0.049621582,0.0105896,-0.003616333,0.025144935,0.007306099,-0.012254596
1570715657,-1.7710266,10.537186,-1.0113525,0.049621582,0.0105896,-0.003616333,0.025144935,0.007306099,-0.012254596
1570715657,-1.7710266,10.537186,-1.0113525,0.049621582,0.0105896,-0.003616333,0.025144935,0.007306099,-0.012254596
1570715657,-1.7710266,10.537186,-1.0113525,0.049621582,0.0105896,-0.003616333,0.025144935,0.007306099,-0.012254596
1570715657,-1.7710266,10.537186,-1.0113525,0.049621582,0.0105896,-0.003616333,0.025144935,0.007306099,-0.012254596
1570715657,-1.7710266,10.537186,-1.0113525,0.049621582,0.0105896,-0.003616333,0.025144935,0.007306099,-0.012254596
1570715657,-1.7710266,10.537186,-1.0113525,0.049621582,0.0105896,-0.003616333,0.025144935,0.007306099,-0.012254596
1570715657,-1.7710266,10.537186,-1.0113525,0.049621582,0.0105896,-0.003616333,0.025144935,0.007306099,-0.012254596
1570715657,-1.7710266,10.537186,-1.0113525,0.049621582,0.0105896,-0.003616333,0.025144935,0.007306099,-0.012254596
1570715657,-1.7710266,10.537186,-1.0113525,0.049621582,0.0105896,-0.003616333,0.025144935,0.007306099,-0.012254596
1570715657,-1.7710266,10.537186,-1.0113525,0.049621582,0.0105896,-0.003616333,0.025144935,0.007306099,-0.012254596
1570715657,-1.7710266,10.537186,-1.0113525,0.049621582,0.0105896,-0.003616333,0.025144935,0.007306099,-0.012254596
1570715657,-1.7710266,10.537186,-1.0113525,0.049621582,0.0105896,-0.003616333,0.025144935,0.007306099,-0.012254596
1570715657,-1.7710266,10.537186,-1.0113525,0.049621582,0.0105896,-0.003616333,0.025144935,0.007306099,-0.012254596
1570715657,-1.7710266,10.537186,-1.0113525,0.049621582,0.0105896,-0.003616333,0.025144935,0.007306099,-0.012254596
1570715657,-1.7710266,10.537186,-1.0113525,0.049621582,0.0105896,-0.003616333,0.025144935,0.007306099,-0.012254596
1570715657,-1.7710266,10.537186,-1.0113525,0.049621582,0.0105896,-0.003616333,0.025144935,0.007306099,-0.012254596
1570715657,-1.7710266,10.537186,-1.0113525,0.049621582,0.0105896,-0.003616333,0.025144935,0.007306099,-0.012254596
1570715657,-1.7710266,10.537186,-1.0113525,0.049621582,0.0105896,-0.003616333,0.025144935,0.007306099,-0.012254596
1570715657,-1.7710266,10.537186,-1.0113525,0.049621582,0.0105896,-0.003616333,0.025144935,0.007306099,-0.012254596
1570715657,-1.7710266,10.537186,-1.0113525,0.049621582,0.0105896,-0.003616333,0.025144935,0.007306099,-0.012254596
1570715657,-1.7710266,10.537186,-1.0113525,0.049621582,0.0105896,-0.003616333,0.025144935,0.007306099,-0.012254596
1570715657,-1.7710266,10.537186,-1.0113525,0.049621582,0.0105896,-0.003616333,0.025144935,0.007306099,-0.012254596
1570715657,-1.7710266,10.537186,-1.0113525,0.049621582,0.0105896,-0.003616333,0.025144935,0.007306099,-0.012254596
1570715657,-1.7710266,10.537186,-1.0113525,0.049621582,0.0105896,-0.003616333,0.025144935,0.007306099,-0.012254596
1570715657,-1.7710266,10.537186,-1.0113525,0.049621582,0.0105896,-0.003616333,0.025144935,0.007306099,-0.012254596
1570715657,-1.7710266,10.537186,-1.0113525,0.049621582,0.0105896,-0.003616333,0.025144935,0.007306099,-0.012254596
1570715657,-1.7710266,10.537186,-1.0113525,0.049621582,0.0105896,-0.003616333,0.025144935,0.007306099,-0.012254596
1570715657,-1.7710266,10.537186,-1.0113525,0.049621582,0.0105896,-0.003616333,0.025144935,0.007306099,-0.012254596
1570715657,-1.7710266,10.537186,-1.0113525,0.049621582,0.0105896,-0.003616333,0.025144935,0.007306099,-0.012254596
1570715657,-1.7710266,10.537186,-1.0113525,0.049621582,0.0105896,-0.003616333,0.025144935,0.007306099,-0.012254596
1570715657,-1.7710266,10.537186,-1.0113525,0.049621582,0.0105896,-0.003616333,0.025144935,0.007306099,-0.012254596
1570715657,-1.7710266,10.537186,-1.0113525,0.049621582,0.0105896,-0.003616333,0.025144935,0.007306099,-0.012254596
1570715657,-1.7710266,10.537186,-1.0113525,0.049621582,0.0105896,-0.003616333,0.025144935,0.007306099,-0.012254596
1570715657,-1.7710266,10.537186,-1.0113525,0.049621582,0.0105896,-0.003616333,0.025144935,0.007306099,-0.012254596
1570715657,-1.7710266,10.537186,-1.0113525,0.049621582,0.0105896,-0.003616333,0.025144935,0.007306099,-0.012254596
1570715657,-1.7710266,10.537186,-1.0113525,0.049621582,0.0105896,-0.003616333,0.025144935,0.007306099,-0.012254596
1570715657,-1.7710266,10.537186,-1.0113525,0.049621582,0.0105896,-0.003616333,0.025144935,0.007306099,-0.012254596
1570715657,-1.7710266,10.537186,-1.0113525,0.049621582,0.0105896,-0.003616333,0.025144935,0.007306099,-0.012254596
1570715657,-1.7710266,10.537186,-1.0113525,0.049621582,0.0105896,-0.003616333,0.025144935,0.007306099,-0.012254596
1570715657,-1.7710266,10.537186,-1.0113525,0.049621582,0.0105896,-0.003616333,0.025144935,0.007306099,-0.012254596
1570715657,-1.7710266,10.537186,-1.0113525,0.049621582,0.0105896,-0.003616333,0.025144935,0.007306099,-0.012254596
1570715657,-1.7710266,10.537186,-1.0113525,0.049621582,0.0105896,-0.003616333,0.025144935,0.007306099,-0.012254596
1570715657,-1.7710266,10.537186,-1.0113525,0.049621582,0.0105896,-0.003616333,0.025144935,0.007306099,-0.012254596
1570715657,-1.7710266,10.537186,-1.0113525,0.049621582,0.0105896,-0.003616333,0.025144935,0.007306099,-0.012254596
1570715657,-1.7710266,10.537186,-1.0113525,0.049621582,0.0105896,-0.003616333,0.025144935,0.007306099,-0.012254596
1570715657,-1.7710266,10.537186,-1.0113525,0.049621582,0.0105896,-0.003616333,0.025144935,0.007306099,-0.012254596
1570715657,-1.7710266,10.537186,-1.0113525,0.049621582,0.0105896,-0.003616333,0.025144935,0.007306099,-0.012254596
1570715657,-1.7710266,10.537186,-1.0113525,0.049621582,0.0105896,-0.003616333,0.025144935,0.007306099,-0.012254596
1570715657,-1.7710266,10.537186,-1.0113525,0.049621582,0.0105896,-0.003616333,0.025144935,0.007306099,-0.012254596
1570715657,-1.7710266,10.537186,-1.0113525,0.049621582,0.0105896,-0.003616333,0.025144935,0.007306099,-0.012254596
1570715657,-1.7710266,10.537186,-1.0113525,0.049621582,0.0105896,-0.003616333,0.025144935,0.007306099,-0.012254596
1570715657,-1.7710266,10.537186,-1.0113525,0.049621582,0.0105896,-0.003616333,0.025144935,0.007306099,-0.012254596
1570715657,-1.7710266,10.537186,-1.0113525,0.049621582,0.0105896,-0.003616333,0.025144935,0.007306099,-0.012254596
1570715657,-1.7710266,10.537186,-1.0113525,0.049621582,0.0105896,-0.003616333,0.025144935,0.007306099,-0.012254596
1570715657,-1.7710266,10.537186,-1.0113525,0.049621582,0.0105896,-0.003616333,0.025144935,0.007306099,-0.012254596
1570715657,-1.7710266,10.537186,-1.0113525,0.049621582,0.0105896,-0.003616333,0.025144935,0.007306099,-0.012254596
1570715657,-1.7710266,10.537186,-1.0113525,0.049621582,0.0105896,-0.003616333,0.025144935,0.007306099,-0.012254596
1570715657,-1.7710266,10.537186,-1.0113525,0.049621582,0.0105896,-0.003616333,0.025144935,0.007306099,-0.012254596
1570715657,-1.7710266,10.537186,-1.0113525,0.049621582,0.0105896,-0.003616333,0.025144935,0.007306099,-0.012254596
1570715657,-1.7710266,10.537186,-1.0113525,0.049621582,0.0105896,-0.003616333,0.025144935,0.007306099,-0.012254596
1570715657,-1.7710266,10.537186,-1.0113525,0.049621582,0.0105896,-0.003616333,0.025144935,0.007306099,-0.012254596
1570715657,-1.7710266,10.537186,-1.0113525,0.049621582,0.0105896,-0.003616333,0.025144935,0.007306099,-0.012254596
1570715657,-1.7710266,10.537186,-1.0113525,0.049621582,0.0105896,-0.003616333,0.025144935,0.007306099,-0.012254596
1570715657,-1.2610626,10.585068,-1.1921234,0.049621582,0.0105896,-0.003616333,-0.13812435,-0.048924446,-0.0044333935
1570715657,-1.2610626,10.585068,-1.1921234,0.049621582,0.0105896,-0.003616333,-0.13812435,-0.048924446,-0.0044333935
1570715657,-1.2610626,10.585068,-1.1921234,0.049621582,0.0105896,-0.003616333,-0.13812435,-0.048924446,-0.0044333935
1570715657,-1.2610626,10.585068,-1.1921234,0.049621582,0.0105896,-0.003616333,-0.13812435,-0.048924446,-0.0044333935
1570715657,-1.2610626,10.585068,-1.1921234,0.049621582,0.0105896,-0.003616333,-0.13812435,-0.048924446,-0.0044333935
1570715657,-1.9338379,10.43544,-0.8868561,0.049621582,0.0105896,-0.003616333,-0.009010673,-0.06384754,-0.038672745
1570715657,-2.3276825,10.344452,-1.0963593,0.024047852,-0.14920044,0.03366089,0.24466538,0.013874054,0.23611349
1570715657,-2.3276825,10.344452,-1.0963593,0.024047852,-0.14920044,0.03366089,0.24466538,0.013874054,0.23611349
1570715657,-2.3276825,10.344452,-1.0963593,0.024047852,-0.14920044,0.03366089,0.24466538,0.013874054,0.23611349
1570715657,-2.3276825,10.344452,-1.0963593,0.024047852,-0.14920044,0.03366089,0.24466538,0.013874054,0.23611349
1570715657,-2.3276825,10.344452,-1.0963593,0.024047852,-0.14920044,0.03366089,0.24466538,0.013874054,0.23611349
1570715657,-2.3276825,10.344452,-1.0963593,0.024047852,-0.14920044,0.03366089,0.24466538,0.013874054,0.23611349
1570715657,-2.3276825,10.344452,-1.0963593,0.024047852,-0.14920044,0.03366089,0.24466538,0.013874054,0.23611349
1570715657,-2.3276825,10.344452,-1.0963593,0.024047852,-0.14920044,0.03366089,0.24466538,0.013874054,0.23611349
1570715657,-2.3276825,10.344452,-1.0963593,0.024047852,-0.14920044,0.03366089,0.24466538,0.013874054,0.23611349
1570715657,-2.3276825,10.344452,-1.0963593,-0.012161255,-0.041610718,-0.02279663,0.24466538,0.013874054,0.23611349
1570715658,-2.0008698,10.506058,-0.779129,-0.0057678223,-0.025634766,-0.0068206787,0.12659144,0.0063266754,0.1051743
1570715658,-2.0008698,10.506058,-0.779129,-0.0057678223,-0.025634766,-0.0068206787,0.12659144,0.0063266754,0.1051743
1570715658,-2.0008698,10.506058,-0.779129,-0.0057678223,-0.025634766,-0.0068206787,0.12659144,0.0063266754,0.1051743
1570715658,-2.0008698,10.506058,-0.779129,-0.0057678223,-0.025634766,-0.0068206787,0.12659144,0.0063266754,0.1051743
1570715658,-1.9829254,10.45459,-0.98023987,0.009140015,-0.025634766,0.017684937,0.060739756,-0.07540512,-0.008581936
1570715658,-1.9829254,10.45459,-0.98023987,0.009140015,-0.025634766,0.017684937,0.060739756,-0.07540512,-0.008581936
1570715658,-1.9829254,10.45459,-0.98023987,0.009140015,-0.025634766,0.017684937,0.060739756,-0.07540512,-0.008581936
1570715658,-2.0751038,10.545563,-1.0353088,0.01234436,-0.029891968,0.015548706,-0.029976606,0.019265175,-0.047346294
1570715658,-2.0810852,10.510849,-0.91200256,-0.01322937,-0.028823853,0.014480591,-0.061475992,0.0410738,0.04523474
1570715658,-2.0224304,10.451004,-0.9359436,-0.021759033,-0.026687622,0.009155273,-0.024806261,-0.028310776,0.041972578
1570715658,-2.0643158,10.503677,-0.97784424,-0.015365601,-0.04586792,0.011291504,-0.0428524,-0.015339851,-0.045132756
1570715658,-2.0559387,10.451004,-0.9215698,6.2561035E-4,-0.06504822,0.012359619,-0.058105707,0.01889038,0.010966539
1570715658,-2.0284119,10.5359955,-0.87249756,-0.0068359375,-0.07888794,0.021942139,0.04658985,-0.022054672,0.04109341
1570715658,-2.0104523,10.582672,-0.81503296,-0.0057678223,-0.049057007,0.0070343018,6.930828E-4,0.052070618,0.10549474
1570715658,-1.9075012,10.577896,-0.8066559,-0.007904053,-0.052261353,0.0017089844,0.09059906,0.064819336,0.13810277
1570715658,-2.014038,10.51445,-0.7851105,-0.01109314,-0.04373169,0.008102417,-0.011492491,-0.026333809,0.17797083
1570715658,-1.8943329,10.587463,-0.80784607,-0.01109314,-0.039474487,0.0059661865,0.09557629,0.09554863,0.108297765
1570715658,-1.8021545,10.531204,-0.9215698,-0.0068359375,-0.035217285,0.019805908,0.2174344,0.037229538,0.0155406
1570715658,-2.045166,10.531204,-0.80545044,-0.010040283,-0.016036987,0.009155273,-0.06286168,-0.036673546,0.06915265
1570715658,-1.8931427,10.495285,-0.8701019,-0.007904053,-0.0032653809,0.0017089844,0.03558314,-0.0113630295,0.043967664
1570715658,-1.9673615,10.5204315,-0.91319275,-0.0015106201,-0.016036987,0.011291504,0.030016303,0.0065021515,-0.0066690445
1570715658,-1.9494019,10.4964905,-0.8174286,0.0038146973,0.0010070801,0.0059661865,0.010369539,-0.03584671,-0.0044261217
1570715658,-1.9398193,10.5336,-0.90960693,0.0016784668,-0.02243042,0.010223389,0.049771667,0.005996704,0.006138861
1570715658,-1.9889069,10.556335,-0.8497467,-0.0036468506,-6.1035156E-5,0.0048980713,-0.04656446,0.041021347,0.023976386
1570715658,-1.921875,10.506058,-0.878479,-0.010040283,0.004196167,0.0017089844,0.021683693,-0.005150795,0.01109302
1570715658,-1.9338379,10.484512,-0.9395294,-0.018554688,-6.1035156E-5,0.0070343018,0.068748474,5.2547455E-4,-0.078706086
1570715658,-1.9517975,10.484512,-0.7982788,-0.021759033,0.013793945,0.0070343018,0.03656447,-0.026595116,0.030063152
1570715658,-2.0116577,10.555145,-0.917984,-0.017486572,0.0105896,0.0048980713,-0.005636096,0.058903694,-0.025940537
1570715658,-1.9541931,10.504868,-0.8473511,-0.014297485,0.040420532,0.0017089844,0.01755333,-0.007923126,-3.3831596E-4
1570715658,-1.9170837,10.490509,-0.88327026,-0.007904053,0.016983032,0.009155273,0.04382229,0.014850616,0.04077053
1570715658,-1.9924927,10.506058,-0.77194214,-0.010040283,0.03189087,0.0027618408,-0.03940332,-0.059500694,0.06741965
1570715658,-1.985321,10.59465,-0.78990173,-0.01109314,0.02444458,0.0070343018,-0.013013601,0.088290215,0.051377237
1570715658,-2.0236206,10.446213,-0.9167938,0.0038146973,0.026565552,-0.0068206787,-0.08025873,-0.059868813,-0.02967763
1570715658,-1.98172,10.443817,-0.89164734,-4.4250488E-4,0.02444458,-0.010009766,-0.049405336,-0.059350967,-0.019440114
1570715659,-1.9517975,10.556335,-0.838974,0.015533447,0.0105896,6.4086914E-4,-0.0012356043,0.017658234,0.03197801
1570715659,-2.0020752,10.501282,-0.8748932,0.027252197,-0.0053863525,0.003829956,-0.01808536,-0.018946648,0.003636241
1570715659,-2.0403748,10.4964905,-0.74679565,0.022994995,0.011657715,-0.007888794,-0.05927801,0.006503105,0.04482329
1570715659,-2.0116577,10.51445,-0.8246155,0.020858765,0.0063323975,-0.0025634766,-0.040466428,0.048101425,0.011025786
1570715659,-1.8919373,10.474945,-0.81503296,0.02192688,-6.1035156E-5,-0.0068206787,0.04583335,-0.025289536,0.11515546
1570715659,-1.8991241,10.525223,-0.8760834,0.018722534,0.018051147,-0.007888794,0.055054307,0.0012149811,0.00353235
1570715659,-2.0068665,10.607819,-0.8210144,0.007003784,0.030838013,-0.0057525635,0.006117463,0.070155144,0.03580916
1570715659,-1.9326477,10.576691,-0.8377838,0.0048828125,0.029769897,-0.016403198,0.021804214,0.0646286,0.06450039
1570715659,-1.8943329,10.492889,-0.9048157,6.2561035E-4,0.048934937,-0.015335083,0.0916183,0.007789612,-0.050719082
1570715659,-1.966156,10.486908,-0.8868561,-0.0036468506,0.041488647,-0.007888794,0.058264613,0.014381409,-0.04842943
1570715659,-1.9637604,10.459381,-0.9431305,-0.004714966,0.035095215,-0.0068206787,-0.052563548,-0.037597656,-0.036346555
1570715659,-2.0319977,10.549164,-1.0197449,0.007003784,0.023376465,-0.010009766,-0.033120036,0.0039043427,-0.10101038
1570715659,-2.0236206,10.464172,-0.9323578,0.009140015,0.023376465,-0.015335083,-0.03651464,-0.07774639,-0.0070852637
1570715659,-1.9481964,10.446213,-0.973053,0.01020813,0.0031280518,-0.0025634766,0.019725084,-0.02665615,-0.02218759
1570715659,-2.0619354,10.526413,-1.0185394,0.014465332,-0.006454468,-0.007888794,-0.08781648,0.025175095,-0.08288884
1570715659,-1.9996796,10.510849,-0.9359436,0.01234436,0.0031280518,-0.010009766,0.02852118,0.0031833649,0.0030273795
1570715659,-2.0738983,10.442612,-1.0771942,0.022994995,-0.006454468,-0.0025634766,-0.037733674,-0.04945469,-0.1238389
1570715659,-2.0798798,10.507263,-1.0077667,0.027252197,0.0031280518,-0.013214111,-0.0697304,-0.02038002,-0.05416292
1570715659,-1.9589844,10.521622,-0.89164734,0.018722534,-0.009643555,-0.007888794,0.03731513,-0.024760246,0.0539698
1570715659,-2.052353,10.580292,-0.88087463,0.009140015,-0.007522583,6.4086914E-4,-0.029533625,0.100512505,0.039025307
1570715659,-2.0942535,10.452194,-0.95988464,0.01234436,-0.01071167,-0.0057525635,-0.09196353,-4.9591064E-4,-0.022441864
1570715659,-1.9134827,10.466568,-0.99580383,0.0038146973,-0.007522583,-0.013214111,0.081591606,-0.06499386,-0.026476502
1570715659,-1.9757385,10.5336,-0.8748932,0.013397217,-6.1035156E-5,0.0017089844,0.07406592,0.04066658,0.05550319
1570715659,-2.06073,10.501282,-0.8868561,0.02192688,-0.0032653809,0.0017089844,-0.036140203,0.024133682,0.035488248
1570715659,-2.0499573,10.518036,-0.97184753,0.007003784,0.008453369,-0.0025634766,-0.001420021,0.021548271,-0.029550135
1570715659,-2.0631256,10.5336,-0.9479065,-0.008972168,0.0105896,0.0059661865,-0.032656908,0.04667473,0.04250002
1570715659,-2.0798798,10.500076,-0.97424316,-0.012161255,0.011657715,0.0048980713,-0.086633205,0.012671471,-0.0024696589
1570715659,-2.005661,10.387558,-1.1166992,-0.0036468506,0.0010070801,0.003829956,0.0043148994,-0.07132149,-0.14175934
1570715659,-2.0463715,10.430649,-1.0568542,0.002746582,0.0031280518,0.0070343018,-0.060337543,-0.07843971,-0.13126057
1570715659,-2.0858765,10.510849,-0.91319275,0.008071899,-0.021362305,0.012359619,-0.11128664,0.03546524,0.022233546
1570715659,-2.091858,10.5336,-0.9562988,0.0016784668,-0.02456665,0.010223389,-0.11128664,0.03546524,0.022233546
1570715668,-2.091858,10.5336,-0.9562988,0.0016784668,-0.02456665,0.010223389,0.07083297,0.0053482056,0.04165697
1570715668,-2.091858,10.5336,-0.9562988,0.0016784668,-0.02456665,0.010223389,0.07083297,0.0053482056,0.04165697
1570715668,-2.091858,10.5336,-0.9562988,0.0016784668,-0.02456665,0.010223389,0.07083297,0.0053482056,0.04165697
1570715668,-2.091858,10.5336,-0.9562988,0.0016784668,-0.02456665,0.010223389,0.07083297,0.0053482056,0.04165697
1570715668,-2.091858,10.5336,-0.9562988,0.0016784668,-0.02456665,0.010223389,0.07083297,0.0053482056,0.04165697
1570715668,-2.091858,10.5336,-0.9562988,0.0016784668,-0.02456665,0.010223389,0.07083297,0.0053482056,0.04165697
1570715668,-2.091858,10.5336,-0.9562988,0.0016784668,-0.02456665,0.010223389,0.07083297,0.0053482056,0.04165697
1570715668,-2.091858,10.5336,-0.9562988,0.0016784668,-0.02456665,0.010223389,0.07083297,0.0053482056,0.04165697
1570715668,-2.091858,10.5336,-0.9562988,0.0016784668,-0.02456665,0.010223389,0.07083297,0.0053482056,0.04165697
1570715668,-2.091858,10.5336,-0.9562988,0.0016784668,-0.02456665,0.010223389,0.07083297,0.0053482056,0.04165697
1570715668,-2.091858,10.5336,-0.9562988,0.0016784668,-0.02456665,0.010223389,0.07083297,0.0053482056,0.04165697
1570715668,-2.091858,10.5336,-0.9562988,0.0016784668,-0.02456665,0.010223389,0.07083297,0.0053482056,0.04165697
1570715668,-2.091858,10.5336,-0.9562988,0.0016784668,-0.02456665,0.010223389,0.07083297,0.0053482056,0.04165697
1570715668,-2.091858,10.5336,-0.9562988,0.0016784668,-0.02456665,0.010223389,0.07083297,0.0053482056,0.04165697
1570715668,-2.091858,10.5336,-0.9562988,0.0016784668,-0.02456665,0.010223389,0.07083297,0.0053482056,0.04165697
1570715668,-2.091858,10.5336,-0.9562988,0.0016784668,-0.02456665,0.010223389,0.07083297,0.0053482056,0.04165697
1570715668,-2.091858,10.5336,-0.9562988,0.0016784668,-0.02456665,0.010223389,0.07083297,0.0053482056,0.04165697
1570715668,-2.091858,10.5336,-0.9562988,0.0016784668,-0.02456665,0.010223389,0.07083297,0.0053482056,0.04165697
1570715668,-2.091858,10.5336,-0.9562988,0.0016784668,-0.02456665,0.010223389,0.07083297,0.0053482056,0.04165697
1570715668,-2.091858,10.5336,-0.9562988,0.0016784668,-0.02456665,0.010223389,0.07083297,0.0053482056,0.04165697
1570715668,-2.091858,10.5336,-0.9562988,0.0016784668,-0.02456665,0.010223389,0.07083297,0.0053482056,0.04165697
1570715668,-2.091858,10.5336,-0.9562988,0.0016784668,-0.02456665,0.010223389,0.07083297,0.0053482056,0.04165697
1570715668,-2.091858,10.5336,-0.9562988,0.0016784668,-0.02456665,0.010223389,0.07083297,0.0053482056,0.04165697
1570715668,-2.091858,10.5336,-0.9562988,0.0016784668,-0.02456665,0.010223389,0.07083297,0.0053482056,0.04165697
1570715668,-2.091858,10.5336,-0.9562988,0.0016784668,-0.02456665,0.010223389,0.07083297,0.0053482056,0.04165697
1570715668,-2.091858,10.5336,-0.9562988,0.0016784668,-0.02456665,0.010223389,0.07083297,0.0053482056,0.04165697
1570715668,-2.091858,10.5336,-0.9562988,0.0016784668,-0.02456665,0.010223389,0.07083297,0.0053482056,0.04165697
1570715668,-2.091858,10.5336,-0.9562988,0.0016784668,-0.02456665,0.010223389,0.07083297,0.0053482056,0.04165697
1570715668,-2.091858,10.5336,-0.9562988,0.0016784668,-0.02456665,0.010223389,0.07083297,0.0053482056,0.04165697
1570715668,-2.091858,10.5336,-0.9562988,0.0016784668,-0.02456665,0.010223389,0.07083297,0.0053482056,0.04165697
1570715668,-2.091858,10.5336,-0.9562988,0.0016784668,-0.02456665,0.010223389,0.07083297,0.0053482056,0.04165697
1570715668,-2.091858,10.5336,-0.9562988,0.0016784668,-0.02456665,0.010223389,0.07083297,0.0053482056,0.04165697
1570715668,-2.091858,10.5336,-0.9562988,0.0016784668,-0.02456665,0.010223389,0.07083297,0.0053482056,0.04165697
1570715668,-2.091858,10.5336,-0.9562988,0.0016784668,-0.02456665,0.010223389,0.07083297,0.0053482056,0.04165697
1570715668,-2.091858,10.5336,-0.9562988,0.0016784668,-0.02456665,0.010223389,0.07083297,0.0053482056,0.04165697
1570715668,-2.091858,10.5336,-0.9562988,0.0016784668,-0.02456665,0.010223389,0.07083297,0.0053482056,0.04165697
1570715668,-2.091858,10.5336,-0.9562988,0.0016784668,-0.02456665,0.010223389,0.07083297,0.0053482056,0.04165697
1570715668,-2.091858,10.5336,-0.9562988,0.0016784668,-0.02456665,0.010223389,0.07083297,0.0053482056,0.04165697
1570715668,-2.091858,10.5336,-0.9562988,0.0016784668,-0.02456665,0.010223389,0.07083297,0.0053482056,0.04165697
1570715668,-2.091858,10.5336,-0.9562988,0.0016784668,-0.02456665,0.010223389,0.07083297,0.0053482056,0.04165697
1570715668,-2.091858,10.5336,-0.9562988,0.0016784668,-0.02456665,0.010223389,0.07083297,0.0053482056,0.04165697
1570715668,-2.091858,10.5336,-0.9562988,0.0016784668,-0.02456665,0.010223389,0.07083297,0.0053482056,0.04165697
1570715668,-2.091858,10.5336,-0.9562988,0.0016784668,-0.02456665,0.010223389,0.07083297,0.0053482056,0.04165697
1570715668,-2.091858,10.5336,-0.9562988,0.0016784668,-0.02456665,0.010223389,0.07083297,0.0053482056,0.04165697
1570715668,-2.091858,10.5336,-0.9562988,0.0016784668,-0.02456665,0.010223389,0.07083297,0.0053482056,0.04165697
1570715668,-2.091858,10.5336,-0.9562988,0.0016784668,-0.02456665,0.010223389,0.07083297,0.0053482056,0.04165697
