time,ax,ay,az,gx,gy,gz,la_x,la_y,la_z,fox,foy,foz
1570715644,-1.5652161,3.8115692,7.258621,0.22846985,1.432373,-1.247879,-1.3132102,-1.7278528,-1.760685
1570715644,-0.90501404,4.902725,6.926422,0.5235596,-0.42118835,0.21472168,-0.17651641,-0.944685,-1.5912304
1570715644,-0.517746,5.2905884,7.289154,0.13366699,-0.7098694,0.24987793,0.03251356,-0.5074959,-1.4598398
1570715644,-0.37709045,5.530014,7.344208,-0.16140747,-0.6044159,0.19981384,0.18590838,-0.36437845,-1.1270456
1570715644,-0.37709045,5.530014,7.344208,-0.16140747,-0.6044159,0.19981384,0.18590838,-0.36437845,-1.1270456
1570715644,-0.37709045,5.530014,7.344208,-0.16140747,-0.6044159,0.19981384,0.18590838,-0.36437845,-1.1270456
1570715644,-0.37709045,5.530014,7.344208,-0.16140747,-0.6044159,0.19981384,0.18590838,-0.36437845,-1.1270456
1570715644,-0.37828064,5.4821167,8.382095,-0.3158722,-0.13676453,0.15614319,0.15395576,-0.08731222,-0.06751919
1570715644,-0.6003418,4.9583893,8.161835,-0.2935028,0.034744263,0.08476257,0.013693541,-0.5404792,-0.32576466
1570715644,-1.3760681,3.9007568,6.874359,-0.43945312,-0.025970459,0.26480103,-0.7720507,-1.3966846,-1.5845671
1570715644,-1.4233551,3.7140045,6.7696075,-0.49803162,-0.08029175,0.35746765,-0.9344832,-1.6429257,-1.8975372
1570715644,-1.4233551,3.7140045,6.7696075,-0.49803162,-0.08029175,0.35746765,-0.9344832,-1.6429257,-1.8975372
1570715644,-1.4233551,3.7140045,6.7696075,-0.49803162,-0.08029175,0.35746765,-0.9344832,-1.6429257,-1.8975372
1570715644,-1.4233551,3.7140045,6.7696075,-0.49803162,-0.08029175,0.35746765,-0.9344832,-1.6429257,-1.8975372
1570715644,0.13227844,-1.5340881,3.5841217,-2.7436066,-1.9157562,1.7412567,-0.81992036,-4.304622,-5.601762
1570715644,1.0558472,-3.902542,3.26091,-3.6682587,-1.9722137,1.6847992,-0.5625173,-5.779573,-6.0636835
1570715644,2.2170258,-4.838089,4.973358,-4.6632233,-2.2332,1.1670685,0.081698656,-5.41136,-4.1148195
1570715644,2.3187866,-4.8404846,5.288788,-4.7154236,-2.2608948,1.1074219,0.081698656,-5.41136,-4.1148195
1570715644,2.3187866,-4.8404846,5.288788,-4.7154236,-2.2608948,1.1074219,0.081698656,-5.41136,-4.1148195
1570715645,2.3187866,-4.8404846,5.288788,-4.7154236,-2.2608948,1.1074219,0.081698656,-5.41136,-4.1148195
1570715645,2.3187866,-4.8404846,5.288788,-4.7154236,-2.2608948,1.1074219,0.081698656,-5.41136,-4.1148195
1570715645,9.606735,-14.239517,14.219757,-4.612091,-3.0225525,2.590271,5.1526017,-8.577474,4.897216
1570715645,12.627014,-9.645645,12.110474,-4.294632,-3.6468048,2.430481,7.8907056,-2.8590937,6.518874
1570715645,12.764084,-8.167816,10.888824,-3.8344421,-4.1197815,1.6123505,7.8276234,-0.3381219,6.8694186
1570715645,14.395142,-9.656418,4.340683,-3.6863708,-5.9967804,1.4024963,8.926954,-1.5657549,1.4763966
1570715645,17.152054,-5.2834015,6.7702026,-3.5979614,-5.388504,0.35214233,11.634136,3.3893604,6.825088
1570715645,15.428238,-7.53096,0.8954315,-3.6916962,-5.0391083,-1.3363037,9.595945,1.1704998,1.9281884
1570715645,11.804611,-9.362518,6.304535,-2.509262,-3.8491974,-2.3695984,5.8883467,-1.262435,8.552121
1570715645,9.312241,-5.680847,-2.7599182,0.8857422,-1.9487762,-0.45106506,2.6018672,1.6452174,0.8021388
1570715645,9.490021,-5.2205505,9.014175,0.06655884,-3.7501373,-0.38182068,3.5820327,2.5004106,11.440388
1570715645,9.214691,-4.4053345,1.8836365,0.89852905,-0.064315796,-0.99967957,3.0231714,3.1776485,5.362014
1570715645,9.231445,-6.8330536,0.50756836,0.3190155,1.7413025,-1.3501434,2.5395017,0.54684687,3.6481593
1570715645,8.0421295,-5.2959747,1.6885071,0.24871826,2.2643433,-1.4492188,1.2576952,1.6707549,4.0105057
1570715645,5.787384,-8.580215,-4.4328613,-0.22639465,3.136795,-0.8143158,-1.87569,-1.6011448,-2.3610625
1570715645,5.230728,-5.84964,0.344162,-1.1702118,2.2611542,-0.27848816,-2.5976825,0.8967962,1.5087552
1570715645,5.230728,-5.84964,0.344162,-1.1702118,2.2611542,-0.27848816,-2.5976825,0.8967962,1.5087552
1570715645,7.8637543,-7.261017,1.0624237,-1.2075043,0.761261,-0.31150818,-0.19591331,-0.95541763,1.4459822
1570715645,11.059418,-3.8558655,-2.5288696,1.1126404,1.3013458,1.6432495,2.5271769,2.309074,-1.72462
1570715645,11.059418,-3.8558655,-2.5288696,1.1126404,1.3013458,1.6432495,2.5271769,2.309074,-1.72462
1570715645,10.444107,-7.2753754,-1.1366425,-1.8285522,-0.15486145,-0.22842407,3.6497965,0.3247447,-1.5760865
1570715645,10.444107,-7.2753754,-1.1366425,-1.8285522,-0.15486145,-0.22842407,3.6497965,0.3247447,-1.5760865
1570715645,10.204086,-7.5531006,-0.14485168,-0.8602295,-1.7293243,0.25627136,1.8614511,-1.5957732,0.15065807
1570715645,6.0681,-8.632294,1.0229187,-0.20082092,-1.8305206,-1.1626587,-2.081758,-2.006887,2.807437
1570715645,4.2987823,-9.043503,0.7398071,-0.059143066,-1.7314606,-1.0050049,-2.081758,-2.006887,2.807437
1570715645,3.0113068,-6.6546783,2.683899,0.0068969727,-0.020645142,-0.5405426,-4.140397,-0.119781494,4.2515163
1570715645,5.1618958,-7.162857,-4.420288,0.6396637,1.0041351,-0.6907501,-3.2361841,-0.92277384,-2.8790832
1570715645,5.1618958,-7.162857,-4.420288,0.6396637,1.0041351,-0.6907501,-3.2361841,-0.92277384,-2.8790832
1570715645,6.8492126,-6.7576294,-0.8026581,1.2298279,-1.7133484,0.32658386,-1.017489,-0.45137644,0.88153744
1570715645,6.8492126,-6.7576294,-0.8026581,1.2298279,-1.7133484,0.32658386,-1.017489,-0.45137644,0.88153744
1570715645,9.779114,-9.248795,-0.7541809,1.4577942,-0.95913696,0.9039612,2.2540655,-2.103199,1.6375321
1570715645,9.296082,-9.518143,-1.9764099,1.3022614,-1.1849823,0.91567993,1.7604289,-2.701571,-0.29950464
1570715646,7.3519897,-8.3072815,-1.138443,0.38293457,0.23822021,-0.09739685,-0.20047998,-1.4633927,0.45986974
1570715646,7.3519897,-8.3072815,-1.138443,0.38293457,0.23822021,-0.09739685,-0.20047998,-1.4633927,0.45986974
1570715646,7.210739,-6.9365997,-0.8164215,0.31263733,0.1199646,0.15081787,-0.31711292,0.052047253,0.57029426
1570715646,7.486664,-6.822281,-0.6290741,0.25083923,0.15405273,0.24562073,-0.14422274,0.06581974,0.6337894
1570715646,7.618347,-6.903076,0.17897034,-0.01121521,0.40545654,0.06452942,0.069131374,0.15192938,1.2123986
1570715646,7.618347,-6.903076,0.17897034,-0.01121521,0.40545654,0.06452942,0.069131374,0.15192938,1.2123986
1570715646,7.60878,-7.2250977,-0.41778564,-0.064468384,0.31704712,-0.11444092,0.23427248,-0.10830212,0.697186
1570715646,7.918228,-7.1885834,-0.7799072,-0.0974884,0.28295898,-0.05052185,0.39636993,-0.13764334,0.20537746
1570715646,7.989456,-7.2077484,-0.83976746,-0.115600586,0.2414093,-0.04838562,0.43969584,-0.17917776,0.08379173
1570715646,7.7464447,-6.6229553,0.14604187,-0.12625122,0.099731445,-0.0015258789,0.2265997,0.29457855,0.9634319
1570715646,7.5842285,-7.122757,-0.5985565,0.0015716553,0.1199646,-0.026016235,-0.03770733,-0.20463943,0.24862128
1570715646,7.5842285,-7.122757,-0.5985565,0.0015716553,0.1199646,-0.026016235,-0.03770733,-0.20463943,0.24862128
1570715646,7.944565,-6.470932,-0.17358398,0.03779602,0.078430176,-0.07609558,0.30060053,0.42424822,0.6501067
1570715646,7.944565,-6.470932,-0.17358398,0.03779602,0.078430176,-0.07609558,0.30060053,0.42424822,0.6501067
1570715646,8.219894,-6.442795,0.0011901855,-0.029312134,0.016647339,-0.20179749,0.57325125,0.52369976,0.73166746
1570715646,8.534729,-5.2169647,0.22026062,0.11343384,0.44381714,-0.14746094,0.9306245,1.7799482,1.1452485
1570715646,5.491699,-7.49086,-0.47644043,-0.14224243,-0.087753296,1.0339203,-2.0990062,-0.48925257,0.04858595
1570715646,5.491699,-7.49086,-0.47644043,-0.14224243,-0.087753296,1.0339203,-2.0990062,-0.48925257,0.04858595
1570715646,6.3182983,-7.8918915,0.2956848,-0.12625122,-0.52770996,1.7348633,-0.927876,-0.69029284,0.8225531
1570715646,6.9874725,-8.708908,-0.50756836,0.18798828,-0.371109,2.3441925,0.60950947,-0.5776472,0.5346658
1570715646,7.099411,-8.713699,-0.6781616,0.17626953,-0.3945465,2.3164978,0.60950947,-0.5776472,0.5346658
1570715646,6.38414,-9.175186,0.23762512,-0.078323364,0.14553833,-0.06970215,0.7506099,-0.7487087,1.1983061
1570715646,6.38414,-9.175186,0.23762512,-0.05595398,0.14979553,-0.07714844,0.7506099,-0.7487087,1.1983061
1570715646,6.700775,-9.07103,-0.97683716,-0.17845154,-0.13569641,-0.1133728,0.8541088,-0.54109097,-0.13483113
1570715646,6.8719635,-10.213669,0.9361267,-0.103881836,-0.36791992,-0.562912,0.89563894,-1.7205067,2.0109296
1570715646,8.744827,-7.9589233,-2.4726105,0.25830078,-0.5799103,-1.4822388,2.444137,0.46657562,-1.7146126
1570715646,8.744827,-7.9589233,-2.4726105,0.25830078,-0.5799103,-1.4822388,2.444137,0.46657562,-1.7146126
1570715646,8.485046,-10.149612,-1.4437103,-0.39790344,-0.056869507,-2.712616,1.7817273,-2.8556361,-0.69252455
1570715646,8.172012,-7.8601685,0.88345337,-0.123062134,0.16365051,-2.887329,1.0914421,-1.0395517,1.7956861
1570715646,4.5334167,-6.7408752,-0.084991455,-0.016540527,-0.16445923,-3.571228,-3.7942314,-1.2346411,0.8889036
1570715646,5.4486084,-5.2989655,0.070632935,-0.12519836,-0.08668518,-3.5179596,-2.8619785,0.049595356,1.2625694
1570715646,2.513916,-2.8203735,-0.252594,-0.18804932,-0.13356018,-2.4665375,-6.76873,1.5129232,1.1589127
1570715646,10.389038,-7.72789,-0.9247589,0.41490173,-0.8867035,-1.4279022,0.8131952,-3.669367,0.7524972
1570715646,10.389038,-7.72789,-0.9247589,0.41490173,-0.8867035,-1.4279022,0.8131952,-3.669367,0.7524972
1570715647,11.52449,-0.20350647,1.2485809,1.7592621,-5.653763,-1.3171234,1.63482,4.0276833,4.5135374
1570715647,11.517303,-0.8439636,0.4985962,1.9297028,-5.832733,-1.3192596,2.2457933,2.608322,4.1877036
1570715647,12.2960205,-5.4581757,-0.41539,3.924942,-5.6324615,-1.15094,3.8255386,-2.5713549,4.901539
1570715647,6.353607,-5.77063,-7.0982056,0.12620544,0.45126343,-0.7738342,-1.6505232,-3.0417972,-5.0569587
1570715647,7.8332367,-5.407303,-2.9388885,-1.9105835,1.9756622,-0.43614197,-1.3932629,-2.508228,0.5314908
1570715647,10.086777,-3.9839478,-1.2384033,-1.5622406,1.4174652,-0.34773254,0.6794796,-1.4222212,3.1574922
1570715647,11.696274,-5.020645,-6.5170135,-1.1318665,0.24780273,-1.3363037,2.107831,-2.994576,-2.4713404
1570715647,11.341339,-5.020645,-6.5170135,-1.1318665,0.24780273,-1.3363037,2.107831,-2.994576,-2.4713404
1570715647,10.481812,-0.14125061,-3.43927,-1.8988647,-0.37963867,-2.6263275,1.1562042,0.42297316,0.9984431
1570715647,10.481812,-0.14125061,-3.43927,-1.8988647,-0.37963867,-2.6263275,1.1562042,0.42297316,0.9984431
1570715647,8.972275,1.8393402,-6.225525,-4.928467,1.2374268,-3.4551086,-0.41051674,0.13929665,-2.3993049
1570715647,8.573639,2.6635437,-0.7003021,-3.801422,0.79216003,-3.1078339,-0.8715019,-1.3225045,2.1550927
1570715647,8.573639,2.6635437,-0.7003021,-3.801422,0.79216003,-3.1078339,-0.8715019,-1.3225045,2.1550927
1570715647,7.031769,5.6814423,0.061645508,-0.42773438,-0.27416992,-3.047104,-1.0548668,0.74108934,3.233242
1570715647,8.91362,4.854843,-1.1168976,0.9986572,-0.25926208,-3.4029083,0.38638687,-1.0119085,1.9088371
1570715647,4.850647,5.486908,-2.1080933,1.3512573,1.2928314,-3.5584412,-2.223813,-1.4449158,1.3847156
1570715647,4.850647,5.486908,-2.1080933,1.3512573,1.2928314,-3.5584412,-2.223813,-1.4449158,1.3847156
1570715647,3.8648376,5.0104675,-5.9076996,-0.012268066,-0.50427246,-1.1338959,-2.0897875,-2.6821694,-2.8218288
1570715647,3.9755707,4.703415,-5.917862,-0.09536743,-0.6502075,-1.0124512,-2.0897875,-2.6821694,-2.8218288
1570715647,6.8486176,7.0934143,-4.412506,-2.5454712,-2.1809998,0.005935669,1.0240374,-1.1310062,-1.2813027
1570715647,7.442978,7.258026,-4.2940063,-2.6775665,-2.1298676,-0.07609558,1.0240374,-1.1310062,-1.2813027
1570715647,3.6314087,8.768158,0.8559265,-3.977188,1.6092072,-2.8745422,-0.8037543,0.43273258,1.9998047
1570715647,3.6314087,8.768158,0.8559265,-3.977188,1.6092072,-2.8745422,-0.8037543,0.43273258,1.9998047
1570715647,2.9753876,7.8248444,1.5352783,-2.0117798,-0.9719238,-2.5688019,-1.4347329,-1.403512,2.2033234
1570715647,-2.4408875,3.7636871,-2.7228088,-2.0202942,-4.6321716,-0.36264038,-5.050577,-5.8869486,-2.4492915
1570715647,-2.4408875,3.7636871,-2.7228088,-2.0202942,-4.6321716,-0.36264038,-5.050577,-5.8869486,-2.4492915
1570715647,3.217804,6.1896057,-2.0578156,-3.4797058,-4.9432373,1.3076935,-0.44136405,-3.862155,-2.2139425
1570715647,6.786957,8.10318,8.521561,-3.1377563,-5.5855865,-1.3682556,5.6057463,-0.56339264,6.3041477
1570715647,-0.3040619,5.9346313,12.446854,-2.6775665,-4.220978,-1.4737091,-1.9470315,-3.673542,11.265743
1570715647,2.3852234,9.147049,10.086166,-1.9776917,1.4196014,-0.96984863,-0.49459743,-0.19032001,8.718452
1570715647,0.5823822,7.084442,-2.4408875,1.9435577,3.6481323,-0.65878296,-0.51785934,-2.3340015,-3.7971354
1570715647,0.5823822,7.084442,-2.4408875,1.9435577,3.6481323,-0.65878296,-0.51785934,-2.3340015,-3.7971354
1570715647,1.3946228,9.182968,0.707489,1.0029297,-0.39668274,-0.516037,0.38341117,-0.16687012,-2.4508944
1570715648,1.9153595,10.418961,8.06427,-0.28285217,1.4334412,-0.9432068,1.0341002,0.4212017,6.4918623
1570715648,-0.17477417,11.057617,4.4921265,-0.25834656,4.537628,-1.6835785,-0.438027,1.0835962,2.9800231
1570715648,-0.17477417,11.057617,4.4921265,-0.25834656,4.537628,-1.6835785,-0.438027,1.0835962,2.9800231
1570715648,-2.8562775,10.010757,1.067215,0.4958496,3.2955322,-3.3464508,-1.097156,0.087389946,-0.3295915
1570715648,-2.8562775,10.010757,1.067215,0.4958496,3.2955322,-3.3464508,-1.097156,0.087389946,-0.3295915
1570715648,-1.829773,6.6900024,0.45010376,-1.2394562,1.1948242,-1.4460144,1.7011573,-2.820631,-0.6048292
1570715648,-1.829773,6.6900024,0.45010376,-1.2394562,1.1948242,-1.4460144,1.7011573,-2.820631,-0.6048292
1570715648,-3.5314484,9.017166,6.7073517,-0.29670715,3.3807526,-2.5016937,0.81719685,0.04481983,5.9821143
1570715648,-6.9467773,6.142929,-1.8495178,0.31263733,1.8254547,-1.7059479,-1.5917063,-2.5227404,-1.8768226
1570715648,-6.9467773,6.142929,-1.8495178,0.31263733,1.8254547,-1.7059479,-1.5917063,-2.5227404,-1.8768226
1570715648,-4.4544067,2.1841125,1.9321136,0.6066437,0.68562317,-1.9466858,1.2907066,-4.021852,1.1392231
1570715648,-4.4544067,2.1841125,1.9321136,0.6066437,0.68562317,-1.9466858,1.2907066,-4.021852,1.1392231
1570715648,-3.545807,0.6877289,-0.3543396,0.5661621,0.27124023,-0.8611908,2.9483156,-6.9274817,0.6775391
1570715648,-5.9196625,4.2562866,0.3250122,-0.0655365,-0.72691345,0.2626648,0.3384452,-3.1664753,0.6039159
1570715648,-6.3949127,3.6577454,1.490982,-0.07511902,-0.17617798,0.06878662,0.1931076,-3.7439795,2.1792388
1570715648,-6.922241,2.9029694,-0.74279785,0.018615723,0.5215759,0.266922,-0.31810284,-4.535905,0.14001536
1570715648,-7.505829,4.174286,-2.1930847,-0.25834656,0.16365051,1.8019714,-1.4602523,-3.6191683,-1.5625281
1570715648,-4.371811,2.7102356,0.57640076,-0.49058533,-0.013183594,5.217209,1.1953726,-5.5731106,1.4956522
1570715648,-4.371811,2.7102356,0.57640076,-0.49058533,-0.013183594,5.217209,-0.20468187,-5.922743,1.0937487
1570715648,-3.486557,7.4381866,5.645523,0.15603638,0.31278992,-0.34666443,1.6116672,-0.08432102,6.4653964
1570715648,-4.783615,5.948395,5.1882324,0.29345703,0.39801025,-0.38500977,-1.645385,-2.7794657,5.5855217
1570715648,-1.7561493,0.6075287,-0.34057617,0.29452515,0.95939636,2.1172943,-0.18161178,-8.738588,0.098650575
1570715648,-1.7561493,0.6075287,-0.34057617,0.29452515,0.95939636,2.1172943,-0.18161178,-8.738588,0.098650575
1570715648,0.34536743,13.948624,7.6949615,0.007965088,-1.9743347,4.23291,-0.5998836,9.325605,9.699003
1570715648,1.5167236,10.541672,6.576874,0.23486328,-1.9125519,4.1902924,1.1743982,2.497941,7.517618
1570715648,4.578308,4.84227,-2.0650024,1.1882782,-2.2577057,2.9940033,3.8987541,-5.4193325,-0.8032373
1570715648,2.478592,8.516769,1.9991608,-0.03251648,-2.8499908,0.19448853,1.5897878,-0.7261801,2.8193867
1570715648,2.478592,8.516769,1.9991608,-0.03251648,-2.8499908,0.19448853,1.5897878,-0.7261801,2.8193867
1570715648,5.0816956,6.941986,0.49679565,0.16456604,0.64302063,-0.6832886,4.221287,-2.5300903,1.5948019
1570715648,5.0816956,6.941986,0.49679565,0.16456604,0.64302063,-0.6832886,4.221287,-2.5300903,1.5948019
1570715648,1.1683655,8.662216,-1.5287018,-0.11880493,0.17749023,0.20727539,-0.19791818,-0.89439964,-0.27866232
1570715648,1.1683655,8.662216,-1.5287018,-0.11880493,0.17749023,0.20727539,-0.19791818,-0.89439964,-0.27866232
1570715648,1.1773529,8.663422,-1.4472961,-0.14756775,0.10826111,0.21472168,-0.19791818,-0.89439964,-0.27866232
1570715648,1.1773529,8.663422,-1.4472961,-0.14756775,0.10826111,0.21472168,-0.19791818,-0.89439964,-0.27866232
1570715649,1.1773529,8.663422,-1.4472961,-0.14756775,0.10826111,0.21472168,-0.19791818,-0.89439964,-0.27866232
1570715649,1.1773529,8.663422,-1.4472961,-0.14756775,0.10826111,0.21472168,-0.19791818,-0.89439964,-0.27866232
1570715649,0.6793518,8.93396,0.6290741,0.009033203,-1.6899109,0.13482666,-0.7299938,-0.5872259,1.9246272
1570715649,0.9798279,9.05188,0.75357056,-0.090042114,-0.38710022,0.08796692,-0.56835055,-0.45390034,2.0357018
1570715649,1.2946625,8.99501,0.83317566,-0.10601807,0.5205078,-0.024963379,-0.1308589,-0.470253,2.1458023
1570715649,1.2946625,8.99501,0.83317566,-0.10601807,0.5205078,-0.024963379,-0.1308589,-0.470253,2.1458023
1570715649,1.2946625,8.99501,0.83317566,-0.10601807,0.5205078,-0.024963379,-0.1308589,-0.470253,2.1458023
1570715649,1.9375153,8.794495,-1.0133514,0.017547607,0.70906067,-0.039871216,0.44564545,-0.66965866,-0.03543508
1570715649,1.9375153,8.794495,-1.0133514,0.017547607,0.70906067,-0.039871216,0.44564545,-0.66965866,-0.03543508
1570715649,1.7106628,8.658035,-0.6039429,0.044189453,0.01876831,0.0357666,0.344401,-0.7725258,0.3753056
1570715649,1.3766632,8.686157,-0.6470337,0.030334473,-0.13995361,0.079437256,-0.06015241,-0.8439989,0.3303746
1570715649,1.1019287,8.774155,-0.6865387,-0.013336182,-0.291214,0.12098694,-0.32712233,-0.7029915,0.31788594
1570715649,1.1019287,8.774155,-0.6865387,-0.013336182,-0.291214,0.12098694,-0.32712233,-0.7029915,0.31788594
1570715649,1.1019287,8.774155,-0.6865387,-0.013336182,-0.291214,0.12098694,-0.32712233,-0.7029915,0.31788594
1570715649,1.1019287,8.774155,-0.6865387,-0.013336182,-0.291214,0.12098694,-0.32712233,-0.7029915,0.31788594
1570715649,0.70388794,9.009384,0.881073,0.13580322,-0.4691162,-0.02708435,-0.80485046,-0.42294693,2.0274405
1570715649,0.70388794,9.009384,0.881073,0.13580322,-0.4691162,-0.02708435,-0.80485046,-0.42294693,2.0274405
1570715649,1.0935516,9.075821,0.63087463,0.21995544,0.11677551,-0.06542969,-0.40503192,-0.33237362,1.8384063
1570715649,1.0935516,9.075821,0.63087463,0.21995544,0.11677551,-0.06542969,-0.40503192,-0.33237362,1.8384063
1570715649,1.0935516,9.075821,0.63087463,0.21995544,0.11677551,-0.06542969,-0.40503192,-0.33237362,1.8384063
1570715649,1.0935516,9.075821,0.63087463,0.21995544,0.11677551,-0.06542969,-0.40503192,-0.33237362,1.8384063
1570715649,1.0935516,9.075821,0.63087463,0.21995544,0.11677551,-0.06542969,-0.40503192,-0.33237362,1.8384063
1570715649,1.4155731,8.568848,-1.1665802,-0.12838745,0.49388123,0.0037994385,-0.08338785,-0.83749294,-0.05995953
1570715649,1.3168182,8.732849,-0.85173035,-0.13796997,-0.25286865,0.09861755,-0.16814935,-0.69217014,0.16766739
1570715649,1.2521667,8.905838,-0.48721313,-0.05595398,-0.62358093,0.11885071,-0.27959025,-0.4935913,0.58017135
1570715649,1.2521667,8.905838,-0.48721313,-0.05595398,-0.62358093,0.11885071,-0.27959025,-0.4935913,0.58017135
1570715649,1.2521667,8.905838,-0.48721313,-0.05595398,-0.62358093,0.11885071,-0.27959025,-0.4935913,0.58017135
1570715649,1.2521667,8.905838,-0.48721313,-0.05595398,-0.62358093,0.11885071,-0.27959025,-0.4935913,0.58017135
1570715649,1.2521667,8.905838,-0.48721313,-0.05595398,-0.62358093,0.11885071,-0.27959025,-0.4935913,0.58017135
1570715649,1.3054352,8.804077,-0.7775116,0.06762695,0.27337646,-0.03666687,-0.23197031,-0.53625774,0.393605
1570715649,1.3054352,8.804077,-0.7775116,0.06762695,0.27337646,-0.03666687,-0.23197031,-0.53625774,0.393605
1570715649,1.3628998,8.767563,-0.79067993,0.062286377,0.2179718,-0.026016235,-0.16027164,-0.5713482,0.37150383
1570715650,1.3628998,8.767563,-0.79067993,0.062286377,0.2179718,-0.026016235,-0.16027164,-0.5713482,0.37150383
1570715650,1.3628998,8.767563,-0.79067993,0.062286377,0.2179718,-0.026016235,-0.16027164,-0.5713482,0.37150383
1570715650,1.411377,8.829819,-0.68473816,0.031402588,-0.023834229,0.034698486,-0.14208925,-0.48758793,0.46892786
1570715650,1.435318,8.81366,-0.66259766,0.028198242,-0.014251709,0.032562256,-0.12692904,-0.49130726,0.51889694
1570715650,1.3509216,8.837601,-0.826004,0.046310425,0.13168335,0.009140015,-0.20284307,-0.46617126,0.35726094
1570715650,1.3509216,8.837601,-0.826004,0.046310425,0.13168335,0.009140015,-0.20284307,-0.46617126,0.35726094
1570715650,1.3509216,8.837601,-0.826004,0.046310425,0.13168335,0.009140015,-0.20284307,-0.46617126,0.35726094
1570715650,1.3509216,8.837601,-0.826004,0.046310425,0.13168335,0.009140015,-0.20284307,-0.46617126,0.35726094
1570715650,1.3509216,8.837601,-0.826004,0.046310425,0.13168335,0.009140015,-0.20284307,-0.46617126,0.35726094
1570715650,1.3509216,8.837601,-0.826004,0.046310425,0.13168335,0.009140015,-0.20284307,-0.46617126,0.35726094
1570715650,1.4024048,8.77594,-0.7649536,0.038864136,0.14979553,-0.0036468506,-0.12826335,-0.39501,0.3574952
1570715650,1.4269409,8.817841,-0.8529358,0.019683838,0.123168945,-4.5776367E-4,-0.10520601,-0.33572006,0.2641319
1570715650,1.3521271,8.792709,-0.8265991,0.0026397705,0.060317993,0.007003784,-0.16770542,-0.33176613,0.27620566
1570715650,1.3521271,8.792709,-0.8265991,0.0026397705,0.060317993,0.007003784,-0.16770542,-0.33176613,0.27620566
1570715650,1.3521271,8.792709,-0.8265991,0.0026397705,0.060317993,0.007003784,-0.16770542,-0.33176613,0.27620566
1570715650,1.3521271,8.792709,-0.8265991,0.0026397705,0.060317993,0.007003784,-0.16770542,-0.33176613,0.27620566
1570715650,1.3521271,8.792709,-0.8265991,0.0026397705,0.060317993,0.007003784,-0.16770542,-0.33176613,0.27620566
1570715650,1.3317719,8.81485,-0.77212524,0.0015716553,0.024093628,0.0048675537,-0.1848377,-0.2618904,0.1937496
1570715650,1.2461853,8.7777405,-0.60572815,-0.013336182,-0.040878296,0.009140015,-0.24914289,-0.22712517,0.26940262
1570715650,1.2354126,8.843582,-0.49978638,-0.003753662,-0.04727173,0.005935669,-0.26529706,-0.21056938,0.41579127
1570715650,1.2354126,8.843582,-0.49978638,-0.003753662,-0.04727173,0.005935669,-0.26529706,-0.21056938,0.41579127
1570715650,1.2354126,8.843582,-0.49978638,-0.003753662,-0.04727173,0.005935669,-0.26529706,-0.21056938,0.41579127
1570715650,1.2354126,8.843582,-0.49978638,-0.003753662,-0.04727173,0.005935669,-0.26529706,-0.21056938,0.41579127
1570715650,1.256958,8.792114,-0.5057678,0.007965088,-0.020645142,-0.017501831,-0.16989529,-0.19383812,0.38662356
1570715650,1.3694763,8.786118,-0.6949158,0.022872925,0.06138611,-0.021759033,-0.027014494,-0.21329021,0.15775394
1570715650,1.4191589,8.775345,-0.7254486,0.02607727,0.033691406,-0.014297485,0.04448569,-0.19208145,0.08323842
1570715650,1.4191589,8.775345,-0.7254486,0.02607727,0.033691406,-0.014297485,0.04448569,-0.19208145,0.08323842
1570715650,1.4191589,8.775345,-0.7254486,0.02607727,0.033691406,-0.014297485,0.04448569,-0.19208145,0.08323842
1570715650,1.4191589,8.775345,-0.7254486,0.02607727,0.033691406,-0.014297485,0.04448569,-0.19208145,0.08323842
1570715650,1.4341278,8.832214,-0.541687,0.010101318,-0.04194641,-0.0015258789,0.0066484213,-0.069675446,0.31292468
1570715650,1.414978,8.822632,-0.52911377,0.015426636,-0.029159546,-0.005783081,0.0139529705,-0.104774475,0.31051266
1570715650,1.4311371,8.786713,-0.596756,0.0068969727,0.0059814453,-0.014297485,0.040593743,-0.14158344,0.23191619
1570715650,1.467041,8.851959,-0.6488342,0.0015716553,0.014511108,-0.017501831,0.082093716,-0.06396103,0.13389772
1570715650,1.467041,8.851959,-0.6488342,0.0015716553,0.014511108,-0.017501831,0.082093716,-0.06396103,0.13389772
1570715651,1.467041,8.851959,-0.6488342,0.0015716553,0.014511108,-0.017501831,0.082093716,-0.06396103,0.13389772
1570715651,1.467041,8.851959,-0.6488342,0.0015716553,0.014511108,-0.017501831,0.082093716,-0.06396103,0.13389772
1570715651,1.3425446,8.822632,-0.55844116,0.017547607,-0.08882141,0.013397217,-0.0439595,-0.067061424,0.25327063
1570715651,1.3485413,8.831009,-0.5698242,0.017547607,-0.083496094,0.012329102,-0.0439595,-0.067061424,0.25327063
1570715651,1.4766235,8.858551,-0.48602295,0.03353882,0.033691406,-0.014297485,0.092546344,-0.015908241,0.30711555
1570715651,1.4766235,8.858551,-0.48602295,0.03353882,0.033691406,-0.014297485,0.092546344,-0.015908241,0.30711555
1570715651,1.4766235,8.858551,-0.48602295,0.03353882,0.033691406,-0.014297485,0.092546344,-0.015908241,0.30711555
1570715651,1.4766235,8.858551,-0.48602295,0.03353882,0.033691406,-0.014297485,0.092546344,-0.015908241,0.30711555
1570715651,1.4766235,8.858551,-0.48602295,0.03353882,0.033691406,-0.014297485,0.092546344,-0.015908241,0.30711555
1570715651,1.3341675,8.779541,-0.715271,-0.0026855469,0.03794861,0.0048675537,-0.026422143,-0.043535233,0.033584774
1570715651,1.3467407,8.823227,-0.68833923,0.015426636,0.024093628,0.0037994385,-0.06836259,-0.045289993,0.048687696
1570715651,1.280899,8.848373,-0.6751709,0.010101318,0.016647339,-0.0015258789,-0.12223637,-0.015524864,0.09202778
1570715651,1.280899,8.848373,-0.6751709,0.010101318,0.016647339,-0.0015258789,-0.12223637,-0.015524864,0.09202778
1570715651,1.280899,8.848373,-0.6751709,0.010101318,0.016647339,-0.0015258789,-0.12223637,-0.015524864,0.09202778
1570715651,1.280899,8.848373,-0.6751709,0.010101318,0.016647339,-0.0015258789,-0.12223637,-0.015524864,0.09202778
1570715651,1.328186,8.693344,-0.6889343,-5.493164E-4,0.059249878,-0.012176514,-0.043346286,-0.108140945,0.05499518
1570715651,1.3269806,8.703522,-0.6907196,-0.0026855469,0.059249878,-0.008972168,-0.05875647,-0.14886951,0.028531015
1570715651,1.3353729,8.782532,-0.67456055,-0.0058898926,0.024093628,0.0037994385,-0.06387186,-0.094070435,0.02981019
1570715651,1.2701263,8.825623,-0.6889343,-0.006942749,-0.014251709,0.0037994385,-0.115023136,-0.009102821,0.037282944
1570715651,1.2701263,8.825623,-0.6889343,-0.006942749,-0.014251709,0.0037994385,-0.115023136,-0.009102821,0.037282944
1570715651,1.2701263,8.825623,-0.6889343,-0.006942749,-0.014251709,0.0037994385,-0.115023136,-0.009102821,0.037282944
1570715651,1.2701263,8.825623,-0.6889343,-0.006942749,-0.014251709,0.0037994385,-0.115023136,-0.009102821,0.037282944
1570715651,1.3144226,8.786118,-0.81163025,-0.03251648,0.004928589,0.002746582,-0.05610025,-0.08656883,-0.15917605
1570715651,1.2545624,8.79689,-0.54707336,0.011154175,-0.011062622,-0.0036468506,-0.092118144,-0.04860401,0.10498524
1570715651,1.2545624,8.79689,-0.54707336,0.011154175,-0.011062622,-0.0036468506,-0.092118144,-0.04860401,0.10498524
1570715651,1.2354126,8.7699585,-0.59077454,0.01222229,0.017700195,-0.004714966,-0.10176623,-0.05780983,0.104641676
1570715651,1.2354126,8.7699585,-0.59077454,0.01222229,0.017700195,-0.004714966,-0.10176623,-0.05780983,0.104641676
1570715651,1.2354126,8.7699585,-0.59077454,0.01222229,0.017700195,-0.004714966,-0.10176623,-0.05780983,0.104641676
1570715651,1.225235,8.852554,-0.5351105,-0.0016174316,-0.023834229,-0.017501831,-0.10687864,0.07444477,0.1695317
1570715651,1.2264252,8.926788,-0.57341003,-5.493164E-4,-0.020645142,-0.020690918,-0.0917238,0.05945587,0.12666625
1570715651,1.36409,8.767563,-0.7745209,-0.013336182,0.0017242432,-0.028152466,0.065935016,-0.08451748,-0.061249375
1570715651,1.3186035,8.704117,-0.7380066,-0.008010864,-0.002532959,-0.028152466,0.065935016,-0.08451748,-0.061249375
1570715651,1.3186035,8.704117,-0.7380066,-0.008010864,-0.002532959,-0.028152466,0.04168403,-0.09472847,-0.076336145
1570715651,1.3186035,8.704117,-0.7380066,-0.008010864,-0.002532959,-0.028152466,0.04168403,-0.09472847,-0.076336145
1570715652,1.3186035,8.704117,-0.7380066,-0.008010864,-0.002532959,-0.028152466,0.04168403,-0.09472847,-0.076336145
1570715652,1.3186035,8.704117,-0.7380066,-0.008010864,-0.002532959,-0.028152466,0.04168403,-0.09472847,-0.076336145
1570715652,1.3227997,8.919601,-0.51116943,0.020751953,-0.118652344,0.005935669,0.0076315403,0.12097645,0.17321515
1570715652,1.324585,8.859741,-0.47105408,0.020751953,-0.04727173,-0.0068511963,0.01174593,0.06661224,0.27837092
1570715652,1.430542,8.841187,-0.46687317,0.007965088,0.07736206,-0.023895264,0.02728045,0.02476883,0.2582723
1570715652,1.430542,8.841187,-0.46687317,0.007965088,0.07736206,-0.023895264,0.02728045,0.02476883,0.2582723
1570715652,1.430542,8.841187,-0.46687317,0.007965088,0.07736206,-0.023895264,0.02728045,0.02476883,0.2582723
1570715652,1.430542,8.841187,-0.46687317,0.007965088,0.07736206,-0.023895264,0.02728045,0.02476883,0.2582723
1570715652,1.430542,8.841187,-0.46687317,0.007965088,0.07736206,-0.023895264,0.02728045,0.02476883,0.2582723
1570715652,1.2515717,8.89267,-0.51416016,0.009033203,-0.056869507,0.010192871,-0.07801223,0.0867815,0.14609021
1570715652,1.2276306,8.884277,-0.5057678,0.015426636,-0.020645142,0.002746582,-0.079205394,0.06718063,0.1826241
1570715652,1.3539276,8.899841,-0.48661804,0.020751953,0.017700195,-0.0079193115,0.00376904,0.10760403,0.20861721
1570715652,1.3539276,8.899841,-0.48661804,0.020751953,0.017700195,-0.0079193115,0.00376904,0.10760403,0.20861721
1570715652,1.3539276,8.899841,-0.48661804,0.020751953,0.017700195,-0.0079193115,0.00376904,0.10760403,0.20861721
1570715652,1.3539276,8.899841,-0.48661804,0.020751953,0.017700195,-0.0079193115,0.00376904,0.10760403,0.20861721
1570715652,1.2904816,8.842987,-0.5686188,-0.0048217773,0.03048706,0.017654419,-0.051584005,-0.026453972,0.09921479
1570715652,1.2216339,8.902832,-0.6865387,-0.018661499,0.0017242432,0.0155181885,-0.08723426,0.088033676,-0.07094967
1570715652,1.1635895,8.871719,-0.52493286,-0.0090789795,-0.06112671,0.005935669,-0.15555811,0.011884689,0.087964356
1570715652,1.1635895,8.871719,-0.52493286,-0.0090789795,-0.06112671,0.005935669,-0.15555811,0.011884689,0.087964356
1570715652,1.1635895,8.871719,-0.52493286,-0.0090789795,-0.06112671,0.005935669,-0.15555811,0.011884689,0.087964356
1570715652,1.1635895,8.871719,-0.52493286,-0.0090789795,-0.06112671,0.005935669,-0.15555811,0.011884689,0.087964356
1570715652,1.1635895,8.871719,-0.52493286,-0.0090789795,-0.06112671,0.005935669,-0.15555811,0.011884689,0.087964356
1570715652,1.3108215,8.802277,-0.57699585,-0.006942749,-0.0057373047,-0.0036468506,-0.004787326,-0.017701149,0.057614267
1570715652,1.2982483,8.786118,-0.65541077,-0.006942749,-0.0014648438,-0.0036468506,-0.0066432953,-0.02145958,-0.010492206
1570715652,1.3084259,8.780731,-0.7332306,-0.006942749,0.010253906,-0.0036468506,0.034051657,-0.045178413,-0.07360703
1570715652,1.3084259,8.780731,-0.7332306,-0.006942749,0.010253906,-0.0036468506,0.034051657,-0.045178413,-0.07360703
1570715652,1.3084259,8.780731,-0.7332306,-0.006942749,0.010253906,-0.0036468506,0.034051657,-0.045178413,-0.07360703
1570715652,1.3084259,8.780731,-0.7332306,-0.006942749,0.010253906,-0.0036468506,0.034051657,-0.045178413,-0.07360703
1570715652,1.3634949,8.839996,-0.557251,0.004776001,-0.036621094,0.008071899,0.03854406,0.014550209,0.08118719
1570715652,1.3634949,8.839996,-0.557251,0.004776001,-0.036621094,0.008071899,0.03854406,0.014550209,0.08118719
1570715652,1.2910767,8.77356,-0.69311523,-0.0026855469,-0.009994507,0.005935669,-0.012739658,-0.0059947968,-0.051858425
1570715652,1.2910767,8.77356,-0.69311523,-0.0026855469,-0.009994507,0.005935669,-0.012739658,-0.0059947968,-0.051858425
1570715653,1.2910767,8.77356,-0.69311523,-0.0026855469,-0.009994507,0.005935669,-0.012739658,-0.0059947968,-0.051858425
1570715653,1.2910767,8.77356,-0.69311523,-0.0026855469,-0.009994507,0.005935669,-0.012739658,-0.0059947968,-0.051858425
1570715653,1.3461456,8.763977,-0.6949158,0.0068969727,0.021972656,0.0048675537,0.032885313,-0.04265213,-0.06044364
1570715653,1.3461456,8.763977,-0.6949158,0.0068969727,0.021972656,0.0048675537,0.032885313,-0.04265213,-0.06044364
1570715653,1.388031,8.79689,-0.6793518,0.0058288574,-0.034484863,0.014465332,0.032673597,0.009319305,-0.013773382
1570715653,1.3634949,8.830414,-0.6368561,0.004776001,-0.057922363,0.018722534,-0.0054223537,0.034184456,0.028926373
1570715653,1.3413544,8.828018,-0.6470337,0.0026397705,-0.057922363,0.0155181885,0.022551537,0.027791023,0.009349883
1570715653,1.3413544,8.828018,-0.6470337,0.0026397705,-0.057922363,0.0155181885,0.022551537,0.027791023,0.009349883
1570715653,1.3413544,8.828018,-0.6470337,0.0026397705,-0.057922363,0.0155181885,0.022551537,0.027791023,0.009349883
1570715653,1.3413544,8.828018,-0.6470337,0.0026397705,-0.057922363,0.0155181885,0.022551537,0.027791023,0.009349883
1570715653,1.371872,8.763382,-0.7445984,-0.0058898926,0.027297974,0.005935669,0.023834705,-0.019872665,-0.11079025
1570715653,1.3808594,8.806473,-0.68414307,-0.0058898926,0.012374878,0.005935669,0.026629448,0.003742218,-0.078502655
1570715653,1.2820892,8.829224,-0.62249756,0.004776001,-0.002532959,0.0048675537,-0.04441011,0.020215988,0.0010970235
1570715653,1.2820892,8.829224,-0.62249756,0.004776001,-0.002532959,0.0048675537,-0.04441011,0.020215988,0.0010970235
1570715653,1.2820892,8.829224,-0.62249756,0.004776001,-0.002532959,0.0048675537,-0.04441011,0.020215988,0.0010970235
1570715653,1.2820892,8.829224,-0.62249756,0.004776001,-0.002532959,0.0048675537,-0.04441011,0.020215988,0.0010970235
1570715653,1.3551178,8.826828,-0.7068939,-0.0026855469,0.033691406,-4.5776367E-4,0.014358282,-7.8201294E-5,-0.047319233
1570715653,1.3365631,8.801086,-0.6949158,-0.0026855469,0.031555176,-0.0015258789,0.01418066,0.0061569214,-0.07487309
1570715653,1.2934723,8.796295,-0.6781616,-0.010147095,-0.031295776,-0.0025787354,-0.03169608,0.0067281723,-0.05125922
1570715653,1.2934723,8.796295,-0.6781616,-0.010147095,-0.031295776,-0.0025787354,-0.03169608,0.0067281723,-0.05125922
1570715653,1.2934723,8.796295,-0.6781616,-0.010147095,-0.031295776,-0.0025787354,-0.03169608,0.0067281723,-0.05125922
1570715653,1.2934723,8.796295,-0.6781616,-0.010147095,-0.031295776,-0.0025787354,-0.03169608,0.0067281723,-0.05125922
1570715653,1.3006439,8.7621765,-0.72843933,-0.003753662,0.016647339,-0.005783081,-0.004830003,-0.07009792,-0.11107582
1570715653,1.328186,8.740631,-0.78948975,-0.008010864,0.010253906,-0.0036468506,-0.004830003,-0.07009792,-0.11107582
1570715653,1.2515717,8.8094635,-0.5913696,-0.018661499,-0.08988953,0.011260986,-0.06494534,0.009719849,-0.02020824
1570715653,1.2324219,8.801086,-0.61172485,-0.018661499,-0.085617065,0.009140015,-0.057190537,0.028232574,0.061278164
1570715653,1.2324219,8.801086,-0.61172485,-0.018661499,-0.085617065,0.009140015,-0.057190537,0.028232574,0.061278164
1570715653,1.2324219,8.801086,-0.61172485,-0.018661499,-0.085617065,0.009140015,-0.057190537,0.028232574,0.061278164
1570715653,1.2324219,8.801086,-0.61172485,-0.018661499,-0.085617065,0.009140015,-0.057190537,0.028232574,0.061278164
1570715653,1.3820496,8.786713,-0.6093292,0.016494751,-0.020645142,-0.014297485,0.052821636,-0.062286377,0.08635342
1570715653,1.3820496,8.786713,-0.6093292,0.016494751,-0.020645142,-0.014297485,0.052821636,-0.062286377,0.08635342
1570715653,1.3724823,8.790909,-0.7003021,0.007965088,-0.01638794,-0.008972168,0.0959934,0.008378983,-0.008647084
1570715653,1.3263855,8.767563,-0.6188965,-0.0016174316,-0.036621094,-0.0036468506,0.10138905,-0.030470848,0.00640893
1570715653,1.3263855,8.767563,-0.6188965,-0.0016174316,-0.036621094,-0.0036468506,0.10138905,-0.030470848,0.00640893
1570715654,1.3263855,8.767563,-0.6188965,-0.0016174316,-0.036621094,-0.0036468506,0.10138905,-0.030470848,0.00640893
1570715654,1.3263855,8.767563,-0.6188965,-0.0016174316,-0.036621094,-0.0036468506,0.10138905,-0.030470848,0.00640893
1570715654,1.335968,8.7957,-0.7332306,0.009033203,-0.0057373047,-0.0025787354,0.064156175,-0.01573658,-0.024831414
1570715654,1.3024445,8.811859,-0.65301514,0.0015716553,-0.022781372,0.0016784668,0.024413228,-0.019722939,-0.043057263
1570715654,1.2779083,8.789719,-0.49560547,5.0354004E-4,-0.020645142,-0.0036468506,-0.01470387,-0.0018177032,0.10222262
1570715654,1.2779083,8.789719,-0.49560547,5.0354004E-4,-0.020645142,-0.0036468506,-0.01470387,-0.0018177032,0.10222262
1570715654,1.2779083,8.789719,-0.49560547,5.0354004E-4,-0.020645142,-0.0036468506,-0.01470387,-0.0018177032,0.10222262
1570715654,1.2779083,8.789719,-0.49560547,5.0354004E-4,-0.020645142,-0.0036468506,-0.01470387,-0.0018177032,0.10222262
1570715654,1.2779083,8.789719,-0.49560547,5.0354004E-4,-0.020645142,-0.0036468506,-0.01470387,-0.0018177032,0.10222262
1570715654,1.2743073,8.707108,-0.5093689,0.0068969727,0.021972656,-0.0025787354,-0.037255883,-0.106965065,0.12012285
1570715654,1.3006439,8.769363,-0.8044586,-0.01121521,0.0059814453,0.0155181885,0.031386018,-0.09014225,-0.15614349
1570715654,1.3006439,8.769363,-0.8044586,-0.01121521,0.0059814453,0.0155181885,0.031386018,-0.09014225,-0.15614349
1570715654,1.3006439,8.769363,-0.8044586,-0.01121521,0.0059814453,0.0155181885,0.031386018,-0.09014225,-0.15614349
1570715654,1.3006439,8.769363,-0.8044586,-0.01121521,0.0059814453,0.0155181885,0.031386018,-0.09014225,-0.15614349
1570715654,1.3006439,8.769363,-0.8044586,-0.01121521,0.0059814453,0.0155181885,0.031386018,-0.09014225,-0.15614349
1570715654,1.514328,8.771164,-0.4842224,0.058029175,0.08268738,-0.055847168,0.23454857,-0.053198814,0.20709223
1570715654,1.7094574,8.702927,-0.6871338,0.019683838,0.17323303,-0.021759033,0.44460702,-0.114338875,0.0058935285
1570715654,1.7094574,8.702927,-0.6871338,0.019683838,0.17323303,-0.021759033,0.44460702,-0.114338875,0.0058935285
1570715654,1.7202301,8.703522,-0.8128357,5.0354004E-4,0.12530518,0.009140015,0.41674173,-0.1153574,-0.14015675
1570715654,1.7202301,8.703522,-0.8128357,5.0354004E-4,0.12530518,0.009140015,0.41674173,-0.1153574,-0.14015675
1570715654,1.7202301,8.703522,-0.8128357,5.0354004E-4,0.12530518,0.009140015,0.41674173,-0.1153574,-0.14015675
1570715654,1.7202301,8.703522,-0.8128357,5.0354004E-4,0.12530518,0.009140015,0.41674173,-0.1153574,-0.14015675
1570715654,0.9325409,8.927383,-0.6087189,-0.02079773,-0.040878296,0.027236938,-0.4235971,0.14498329,0.023302317
1570715654,1.0019684,8.910614,-0.50756836,-0.003753662,0.014511108,-4.5776367E-4,-0.36566818,0.103453636,0.09649658
1570715654,1.36409,8.826218,-0.75297546,0.043121338,0.2680359,-0.061172485,0.035811663,0.044706345,-0.105641425
1570715654,1.36409,8.826218,-0.75297546,0.043121338,0.2680359,-0.061172485,0.035811663,0.044706345,-0.105641425
1570715654,1.36409,8.826218,-0.75297546,0.043121338,0.2680359,-0.061172485,0.035811663,0.044706345,-0.105641425
1570715654,1.36409,8.826218,-0.75297546,0.043121338,0.2680359,-0.061172485,0.035811663,0.044706345,-0.105641425
1570715654,1.36409,8.826218,-0.75297546,0.043121338,0.2680359,-0.061172485,0.035811663,0.044706345,-0.105641425
1570715654,0.95588684,8.696335,-0.8553314,-0.101760864,-0.09840393,0.03363037,-0.3619051,-0.11247349,-0.23847455
1570715654,0.94929504,8.805878,-0.7362213,-0.0932312,-0.09307861,0.024047852,-0.40239632,-0.068110466,-0.20563495
1570715654,1.5574341,8.886078,-0.44831848,0.044189453,0.09120178,-0.022827148,0.21472716,0.063985825,0.1676104
1570715654,1.4562683,8.887878,-0.7056885,0.062286377,0.12742615,-0.022827148,0.15058315,0.08275318,-0.06541145
1570715654,1.4562683,8.887878,-0.7056885,0.062286377,0.12742615,-0.022827148,0.15058315,0.08275318,-0.06541145
1570715655,1.4562683,8.887878,-0.7056885,0.062286377,0.12742615,-0.022827148,0.15058315,0.08275318,-0.06541145
1570715655,1.4562683,8.887878,-0.7056885,0.062286377,0.12742615,-0.022827148,0.15058315,0.08275318,-0.06541145
1570715655,1.3455353,8.186966,-0.16699219,0.022872925,-0.04940796,-0.06010437,0.09982216,-0.5310755,0.5058065
1570715655,1.4371185,9.017761,-0.38487244,-0.13796997,0.12530518,0.0357666,0.14818394,0.20211792,0.28851092
1570715655,1.4317322,9.045898,-0.42855835,-0.14756775,0.13807678,0.040023804,0.14520645,0.25064754,0.24116689
1570715655,1.4317322,9.045898,-0.42855835,-0.14756775,0.13807678,0.040023804,0.14520645,0.25064754,0.24116689
1570715655,1.4317322,9.045898,-0.42855835,-0.14756775,0.13807678,0.040023804,0.14520645,0.25064754,0.24116689
1570715655,1.3431396,8.397064,-0.8086395,-0.1954956,0.3106537,0.055999756,0.09453416,0.14739132,0.102776706
1570715655,1.1743622,8.574829,-1.1773529,-0.15396118,0.30426025,0.049606323,0.09453416,0.14739132,0.102776706
1570715655,1.2054749,8.871109,-0.34117126,0.12834167,-0.21665955,-0.011108398,-0.14127946,0.06636524,0.15676588
1570715655,1.2683258,8.800491,-0.38726807,0.13580322,-0.13781738,-0.020690918,-0.105000615,-0.007144928,0.16411823
1570715655,1.3724823,8.8094635,-0.37049866,0.11981201,-0.057922363,-0.023895264,0.011524558,0.019532204,0.19901401
1570715655,1.3724823,8.8094635,-0.37049866,0.11981201,-0.057922363,-0.023895264,0.011524558,0.019532204,0.19901401
1570715655,1.3724823,8.8094635,-0.37049866,0.11981201,-0.057922363,-0.023895264,0.011524558,0.019532204,0.19901401
1570715655,1.3724823,8.8094635,-0.37049866,0.11981201,-0.057922363,-0.023895264,0.011524558,0.019532204,0.19901401
1570715655,1.2234344,8.872314,-0.38008118,-0.09111023,-0.106933594,0.058135986,-0.105000496,0.08203697,0.17606229
1570715655,1.2683258,8.897446,-0.2531891,-0.06021118,0.054992676,0.010192871,-0.13629079,0.1015234,0.31828815
1570715655,1.3078308,8.886078,-0.3034668,-0.042099,0.17430115,-0.010040283,-0.102261305,0.07898235,0.27554214
1570715655,1.3078308,8.886078,-0.3034668,-0.042099,0.17430115,-0.010040283,-0.102261305,0.07898235,0.27554214
1570715655,1.3078308,8.886078,-0.3034668,-0.042099,0.17430115,-0.010040283,-0.102261305,0.07898235,0.27554214
1570715655,1.3078308,8.886078,-0.3034668,-0.042099,0.17430115,-0.010040283,-0.102261305,0.07898235,0.27554214
1570715655,1.4000092,8.801086,-0.5853882,0.004776001,-0.06645203,0.017654419,0.10705948,0.008295059,-0.037848353
1570715655,1.4287415,8.866928,-0.5913696,0.007965088,-0.06538391,0.016586304,0.05135393,0.02844429,-0.035577774
1570715655,1.3317719,8.835205,-0.47705078,0.018615723,-0.0036010742,0.005935669,-0.015108228,0.0099544525,0.09725875
1570715655,1.34375,8.808868,-0.47166443,0.02394104,0.04966736,-0.0079193115,-0.020975113,-0.016949654,0.09369105
1570715655,1.34375,8.808868,-0.47166443,0.02394104,0.04966736,-0.0079193115,-0.020975113,-0.016949654,0.09369105
1570715655,1.34375,8.808868,-0.47166443,0.02394104,0.04966736,-0.0079193115,-0.020975113,-0.016949654,0.09369105
1570715655,1.34375,8.808868,-0.47166443,0.02394104,0.04966736,-0.0079193115,-0.020975113,-0.016949654,0.09369105
1570715655,1.2755127,8.790314,-0.46388245,-0.017608643,0.0059814453,-0.004714966,-0.081748724,0.020284653,0.037198603
1570715655,1.2779083,8.803482,-0.48362732,-0.013336182,0.015579224,-0.004714966,-0.090967774,-0.011116028,0.083329976
1570715655,1.2910767,8.771759,-0.51834106,-0.0016174316,0.08055115,-0.017501831,-0.09112632,-0.01955986,0.024524152
1570715655,1.3126221,8.790909,-0.60572815,0.010101318,0.113586426,-0.022827148,-0.05766189,-0.006324768,-0.053144395
1570715655,1.3126221,8.790909,-0.60572815,0.010101318,0.113586426,-0.022827148,-0.05766189,-0.006324768,-0.053144395
1570715656,1.3126221,8.790909,-0.60572815,0.010101318,0.113586426,-0.022827148,-0.05766189,-0.006324768,-0.053144395
1570715656,1.3126221,8.790909,-0.60572815,0.010101318,0.113586426,-0.022827148,-0.05766189,-0.006324768,-0.053144395
1570715656,1.3461456,8.862137,-0.50398254,0.0015716553,0.0017242432,-0.0015258789,-0.020374656,0.05271244,0.10140115
1570715656,1.3263855,8.788513,-0.5698242,-0.0026855469,0.05392456,-0.012176514,-0.008859277,-0.010169029,0.028054774
1570715656,1.3263855,8.788513,-0.5698242,-0.0026855469,0.05392456,-0.012176514,-0.008859277,-0.010169029,0.028054774
1570715656,1.367096,8.774155,-0.5859833,-5.493164E-4,0.059249878,-0.013244629,-0.008859277,-0.010169029,0.028054774
1570715656,1.367096,8.774155,-0.5859833,-5.493164E-4,0.059249878,-0.013244629,-0.008859277,-0.010169029,0.028054774
1570715656,1.367096,8.774155,-0.5859833,-5.493164E-4,0.059249878,-0.013244629,-0.008859277,-0.010169029,0.028054774
1570715656,1.367096,8.774155,-0.5859833,-5.493164E-4,0.059249878,-0.013244629,-0.008859277,-0.010169029,0.028054774
1570715656,1.335968,8.828613,-0.62667847,0.028198242,-0.0046691895,0.0048675537,-0.019479275,0.054966927,-0.019248247
1570715656,1.3012543,8.91362,-0.47883606,0.020751953,-0.030227661,0.0016784668,-0.025299907,0.06677437,0.103752196
1570715656,1.3012543,8.91362,-0.47883606,0.020751953,-0.030227661,0.0016784668,-0.025299907,0.06677437,0.103752196
1570715656,1.3012543,8.91362,-0.47883606,0.020751953,-0.030227661,0.0016784668,-0.025299907,0.06677437,0.103752196
1570715656,1.3012543,8.91362,-0.47883606,0.020751953,-0.030227661,0.0016784668,-0.025299907,0.06677437,0.103752196
1570715656,1.3012543,8.91362,-0.47883606,0.020751953,-0.030227661,0.0016784668,-0.025299907,0.06677437,0.103752196
1570715656,1.3269806,8.872314,-0.65960693,-5.493164E-4,0.026229858,-0.017501831,-0.021994472,0.018641472,-0.08543491
1570715656,1.3269806,8.872314,-0.65960693,-5.493164E-4,0.026229858,-0.017501831,-0.021994472,0.018641472,-0.08543491
1570715656,1.3952179,8.775345,-0.63027954,0.02394104,0.015579224,-0.017501831,0.07603526,-0.031264305,-0.04906106
1570715656,1.3952179,8.775345,-0.63027954,0.02394104,0.015579224,-0.017501831,0.07603526,-0.031264305,-0.04906106
1570715656,1.3952179,8.775345,-0.63027954,0.02394104,0.015579224,-0.017501831,0.07603526,-0.031264305,-0.04906106
1570715656,1.3952179,8.775345,-0.63027954,0.02394104,0.015579224,-0.017501831,0.07603526,-0.031264305,-0.04906106
1570715656,1.3952179,8.775345,-0.63027954,0.02394104,0.015579224,-0.017501831,0.07603526,-0.031264305,-0.04906106
1570715656,1.2862854,8.899841,-0.6218872,0.007965088,-0.04727173,0.017654419,-0.05405903,0.1234684,-0.009819448
1570715656,1.3521271,8.844177,-0.55784607,0.015426636,-0.03555298,0.010192871,-0.018421292,0.04771614,0.07997352
1570715656,1.3365631,8.798096,-0.53271484,0.017547607,-0.0057373047,0.002746582,-0.023663282,-9.860992E-4,0.11158222
1570715656,1.3365631,8.798096,-0.53271484,0.017547607,-0.0057373047,0.002746582,-0.023663282,-9.860992E-4,0.11158222
1570715656,1.3365631,8.798096,-0.53271484,0.017547607,-0.0057373047,0.002746582,-0.023663282,-9.860992E-4,0.11158222
1570715656,1.3365631,8.798096,-0.53271484,0.017547607,-0.0057373047,0.002746582,-0.023663282,-9.860992E-4,0.11158222
1570715656,1.3365631,8.798096,-0.53271484,0.017547607,-0.0057373047,0.002746582,-0.023663282,-9.860992E-4,0.11158222
1570715656,1.2635345,8.760986,-0.6087189,-0.025054932,-0.025970459,-4.5776367E-4,-0.08839321,-0.041521072,0.004963815
1570715656,1.3096313,8.815445,-0.6979065,5.0354004E-4,0.04966736,-0.018569946,-0.022927761,-0.004804611,-0.043718934
1570715656,1.3096313,8.815445,-0.6979065,5.0354004E-4,0.04966736,-0.018569946,-0.022927761,-0.004804611,-0.043718934
1570715657,1.3096313,8.815445,-0.6979065,5.0354004E-4,0.04966736,-0.018569946,-0.022927761,-0.004804611,-0.043718934
1570715657,1.3096313,8.815445,-0.6979065,5.0354004E-4,0.04966736,-0.018569946,-0.022927761,-0.004804611,-0.043718934
1570715657,1.3096313,8.815445,-0.6979065,5.0354004E-4,0.04966736,-0.018569946,-0.0791167,0.052702904,-0.038938284
1570715657,1.3287811,8.705917,-0.78170776,5.0354004E-4,0.04966736,-0.018569946,-0.08924675,0.093354225,0.0026642084
1570715657,1.249176,8.833405,-0.57221985,-0.012268066,-0.062194824,0.0016784668,-0.107962966,0.03896618,0.065172076
1570715657,1.2521667,8.786118,-0.48721313,-0.015472412,-0.002532959,-0.010040283,-0.067947745,-0.012860298,0.15157098
1570715657,1.3233948,8.777145,-0.57580566,-0.008010864,0.058181763,-0.014297485,0.019405603,-0.010198593,0.08224428
1570715657,1.3233948,8.777145,-0.57580566,-0.008010864,0.058181763,-0.014297485,0.019405603,-0.010198593,0.08224428
1570715657,1.3233948,8.777145,-0.57580566,-0.008010864,0.058181763,-0.014297485,0.019405603,-0.010198593,0.08224428
1570715657,1.3233948,8.777145,-0.57580566,-0.008010864,0.058181763,-0.014297485,0.019405603,-0.010198593,0.08224428
1570715657,1.3802643,8.8358,-0.68414307,0.01222229,0.041137695,-0.0015258789,0.043330908,0.030132294,-0.058384657
1570715657,1.3802643,8.8358,-0.68414307,0.01222229,0.041137695,-0.0015258789,0.043330908,0.030132294,-0.058384657
1570715657,1.4131775,8.844177,-0.69311523,-0.014404297,-0.030227661,0.012329102,0.07457781,0.019641876,-0.023236394
1570715657,1.4131775,8.844177,-0.69311523,-0.014404297,-0.030227661,0.012329102,0.07457781,0.019641876,-0.023236394
1570715657,1.4131775,8.844177,-0.69311523,-0.014404297,-0.030227661,0.012329102,0.07457781,0.019641876,-0.023236394
1570715657,1.4131775,8.844177,-0.69311523,-0.014404297,-0.030227661,0.012329102,0.07457781,0.019641876,-0.023236394
1570715657,1.3730774,8.784332,-0.58358765,0.010101318,-0.027038574,0.012329102,0.030031204,0.009310722,-0.01407963
1570715657,1.3730774,8.784332,-0.58358765,0.010101318,-0.027038574,0.012329102,0.030031204,0.009310722,-0.01407963
1570715657,1.3473358,8.802887,-0.52253723,0.019683838,-0.023834229,0.008071899,0.0146279335,-0.0035705566,0.050751388
1570715657,1.319809,8.895065,-0.4914093,0.018615723,-0.021713257,0.005935669,-0.025559545,0.072071075,0.19342804
1570715657,1.319809,8.895065,-0.4914093,0.018615723,-0.021713257,0.005935669,-0.025559545,0.072071075,0.19342804
1570715657,1.319809,8.895065,-0.4914093,0.018615723,-0.021713257,0.005935669,-0.025559545,0.072071075,0.19342804
1570715657,1.319809,8.895065,-0.4914093,0.018615723,-0.021713257,0.005935669,-0.025559545,0.072071075,0.19342804
1570715657,1.407196,8.765778,-0.66259766,-0.02079773,0.057113647,-0.010040283,0.071063876,-0.060055733,-0.06710285
1570715657,1.4449005,8.81366,-0.73861694,-0.010147095,0.04006958,-0.0079193115,0.08799648,-0.0015792847,-0.15575582
1570715657,1.4814148,8.790314,-0.6685791,-0.006942749,0.026229858,-0.0079193115,0.1411184,-0.011218071,-0.11388719
1570715657,1.5364838,8.747818,-0.69311523,0.0037078857,0.026229858,-0.005783081,0.14441347,-0.06299496,-0.109574795
1570715657,1.5364838,8.747818,-0.69311523,0.0037078857,0.026229858,-0.005783081,0.14441347,-0.06299496,-0.109574795
1570715657,1.5364838,8.747818,-0.69311523,0.0037078857,0.026229858,-0.005783081,0.14441347,-0.06299496,-0.109574795
1570715657,1.5364838,8.747818,-0.69311523,0.0037078857,0.026229858,-0.005783081,0.14441347,-0.06299496,-0.109574795
1570715657,1.2940674,8.815445,-0.48542786,0.004776001,0.050735474,-0.004714966,-0.0707432,-0.0052728653,0.07358992
1570715657,1.3557129,8.790314,-0.6763611,-0.016540527,0.015579224,-0.0015258789,0.008725762,-0.025561333,-0.10401052
1570715657,1.3557129,8.790314,-0.6763611,-0.016540527,0.015579224,-0.0015258789,0.008725762,-0.025561333,-0.10401052
1570715657,1.3533173,8.803482,-0.64224243,-0.015472412,0.0059814453,6.1035156E-4,0.008725762,-0.025561333,-0.10401052
1570715657,1.3533173,8.803482,-0.64224243,-0.015472412,0.0059814453,6.1035156E-4,0.008725762,-0.025561333,-0.10401052
1570715658,1.3533173,8.803482,-0.64224243,-0.015472412,0.0059814453,6.1035156E-4,0.008725762,-0.025561333,-0.10401052
1570715658,1.3533173,8.803482,-0.64224243,-0.015472412,0.0059814453,6.1035156E-4,0.008725762,-0.025561333,-0.10401052
1570715658,1.3293762,8.832809,-0.45669556,-0.0048217773,-0.03982544,-4.5776367E-4,-0.057526708,0.025624275,0.08372748
1570715658,1.2880859,8.823227,-0.4812317,-0.006942749,-0.03555298,-0.0036468506,-0.057526708,0.025624275,0.08372748
1570715658,1.3239899,8.843582,-0.5105591,-0.0048217773,-0.014251709,-0.005783081,-0.039945006,0.034770012,0.041977644
1570715658,1.3239899,8.843582,-0.5105591,-0.0048217773,-0.014251709,-0.005783081,-0.039945006,0.034770012,0.041977644
1570715658,1.3239899,8.843582,-0.5105591,-0.0048217773,-0.014251709,-0.005783081,-0.039945006,0.034770012,0.041977644
1570715658,1.3239899,8.843582,-0.5105591,-0.0048217773,-0.014251709,-0.005783081,-0.039945006,0.034770012,0.041977644
1570715658,1.4018097,8.821442,-0.64164734,-0.003753662,-0.071777344,0.008071899,0.07665706,-0.028702736,-0.04737693
1570715658,1.4018097,8.821442,-0.64164734,-0.003753662,-0.071777344,0.008071899,0.07665706,-0.028702736,-0.04737693
1570715658,1.356308,8.884888,-0.517746,-0.0048217773,-0.0920105,0.010192871,-0.017406702,0.044463158,0.06585622
1570715658,1.3401489,8.874115,-0.43933105,-0.0016174316,-0.08242798,0.005935669,-0.018071175,0.066399574,0.117645204
1570715658,1.3401489,8.874115,-0.43933105,-0.0016174316,-0.08242798,0.005935669,-0.018071175,0.066399574,0.117645204
1570715658,1.3401489,8.874115,-0.43933105,-0.0016174316,-0.08242798,0.005935669,-0.018071175,0.066399574,0.117645204
1570715658,1.3401489,8.874115,-0.43933105,-0.0016174316,-0.08242798,0.005935669,-0.018071175,0.066399574,0.117645204
1570715658,1.3820496,8.760986,-0.5913696,-0.0090789795,-0.030227661,-0.004714966,0.052456856,-0.04353428,-0.11806631
1570715658,1.3449402,8.780731,-0.6027374,0.007965088,-0.020645142,6.1035156E-4,-0.0061141253,8.716583E-4,-0.045827925
1570715658,1.3383636,8.786713,-0.5991516,0.01222229,-0.018508911,-4.5776367E-4,0.009128571,-0.012890816,-0.075319886
1570715658,1.3934326,8.803482,-0.6188965,0.010101318,-0.020645142,-0.0015258789,0.021922708,-0.013347626,-0.034897566
1570715658,1.3934326,8.803482,-0.6188965,0.010101318,-0.020645142,-0.0015258789,0.021922708,-0.013347626,-0.034897566
1570715658,1.3934326,8.803482,-0.6188965,0.010101318,-0.020645142,-0.0015258789,0.021922708,-0.013347626,-0.034897566
1570715658,1.3934326,8.803482,-0.6188965,0.010101318,-0.020645142,-0.0015258789,0.021922708,-0.013347626,-0.034897566
1570715658,1.3610992,8.840591,-0.6607971,-5.493164E-4,0.036880493,-0.004714966,0.044237733,0.03503132,-0.07439101
1570715658,1.4251556,8.786713,-0.5746155,-0.003753662,-0.0121154785,-4.5776367E-4,0.044846416,-0.031845093,-0.0036605
1570715658,1.3790588,8.772949,-0.5464783,0.0037078857,-0.0121154785,0.0016784668,0.030364633,-0.041451454,0.022102118
1570715658,1.3790588,8.772949,-0.5464783,0.0037078857,-0.0121154785,0.0016784668,0.030364633,-0.041451454,0.022102118
1570715658,1.3790588,8.772949,-0.5464783,0.0037078857,-0.0121154785,0.0016784668,0.030364633,-0.041451454,0.022102118
1570715658,1.3790588,8.772949,-0.5464783,0.0037078857,-0.0121154785,0.0016784668,0.030364633,-0.041451454,0.022102118
1570715658,1.2497711,8.850769,-0.51475525,-0.013336182,0.024093628,-0.010040283,-0.08359802,0.032606125,0.06590134
1570715658,1.3467407,8.741837,-0.6183014,-0.0058898926,0.062454224,-0.016433716,-0.0029052496,-0.054746628,-0.043792605
1570715658,1.3269806,8.761581,-0.69311523,-0.0058898926,0.03262329,-0.0036468506,0.018431425,-0.042150497,-0.14443511
1570715658,1.327591,8.832809,-0.6356659,-0.0016174316,-0.034484863,0.0048675537,-0.015598297,-2.9945374E-4,-0.06622952
1570715658,1.3455353,8.812454,-0.64404297,0.0015716553,-0.036621094,0.005935669,-0.015598297,-2.9945374E-4,-0.06622952
1570715659,1.3371582,8.822632,-0.4794464,0.004776001,0.012374878,-0.004714966,-0.0133007765,0.03139019,0.10237253
1570715659,1.3305817,8.850769,-0.48483276,0.0068969727,0.015579224,-0.0036468506,-0.0133007765,0.03139019,0.10237253
1570715659,1.3191986,8.825623,-0.5638275,-0.017608643,-0.0014648438,-0.004714966,0.026313305,-0.0056123734,0.03603673
1570715659,1.3191986,8.825623,-0.5638275,-0.017608643,-0.0014648438,-0.004714966,0.026313305,-0.0056123734,0.03603673
1570715659,1.3479309,8.768768,-0.5590515,-0.0090789795,0.035812378,-0.0068511963,0.0289464,-0.017931938,0.0063092113
1570715659,1.3215942,8.817841,-0.707489,-0.0090789795,0.012374878,6.1035156E-4,-0.009308815,-0.0024986267,-0.15349364
1570715659,1.3377533,8.805283,-0.53689575,0.009033203,-0.029159546,6.1035156E-4,0.0125927925,0.0038108826,0.075448096
1570715659,1.3377533,8.805283,-0.53689575,0.009033203,-0.029159546,6.1035156E-4,0.0125927925,0.0038108826,0.075448096
1570715659,1.3251953,8.860336,-0.5285187,0.0037078857,-3.9672852E-4,-4.5776367E-4,0.013473153,-0.01984024,0.033183396
1570715659,1.3251953,8.860336,-0.5285187,0.0037078857,-3.9672852E-4,-4.5776367E-4,0.013473153,-0.01984024,0.033183396
1570715659,1.3491364,8.8567505,-0.5321045,-0.010147095,-0.019577026,0.002746582,9.371042E-4,0.044639587,0.053312004
1570715659,1.272522,8.766968,-0.5608368,-0.021865845,0.023025513,-0.0068511963,-0.017138481,-0.01391983,0.0140964985
1570715659,1.272522,8.766968,-0.5608368,-0.021865845,0.023025513,-0.0068511963,-0.017138481,-0.01391983,0.0140964985
1570715659,1.3162079,8.863937,-0.6111145,-0.017608643,-0.0046691895,-0.010040283,-0.031973362,0.042650223,-0.07896733
1570715659,1.3162079,8.863937,-0.6111145,-0.017608643,-0.0046691895,-0.010040283,-0.031973362,0.042650223,-0.07896733
1570715659,1.3365631,8.850174,-0.5746155,-0.0048217773,0.019836426,-0.013244629,0.042128086,0.032687187,-0.026970387
1570715659,1.3365631,8.850174,-0.5746155,-0.0048217773,0.019836426,-0.013244629,0.042128086,0.032687187,-0.026970387
1570715659,1.3365631,8.850174,-0.5746155,-0.0048217773,0.019836426,-0.013244629,0.042128086,0.032687187,-0.026970387
1570715659,1.3365631,8.850174,-0.5746155,-0.0048217773,0.019836426,-0.013244629,0.042128086,0.032687187,-0.026970387
1570715659,1.3365631,8.850174,-0.5746155,-0.0048217773,0.019836426,-0.013244629,0.042128086,0.032687187,-0.026970387
1570715659,1.3365631,8.850174,-0.5746155,-0.0048217773,0.019836426,-0.013244629,0.042128086,0.032687187,-0.026970387
1570715659,1.3365631,8.850174,-0.5746155,-0.0048217773,0.019836426,-0.013244629,0.042128086,0.032687187,-0.026970387
1570715659,1.3365631,8.850174,-0.5746155,-0.0048217773,0.019836426,-0.013244629,0.042128086,0.032687187,-0.026970387
1570715659,1.375473,8.744827,-0.51834106,-0.023986816,-0.025970459,-0.0015258789,0.081938386,-0.046042442,0.022100568
1570715659,1.375473,8.744827,-0.51834106,-0.023986816,-0.025970459,-0.0015258789,0.081938386,-0.046042442,0.022100568
1570715659,1.2126617,8.883087,-0.55426025,-0.030380249,-0.076034546,0.0016784668,-0.04909873,-0.002565384,-0.055784643
1570715659,1.2126617,8.883087,-0.55426025,-0.030380249,-0.076034546,0.0016784668,-0.04909873,-0.002565384,-0.055784643
1570715659,1.2868805,8.821442,-0.3256073,-0.018661499,-0.097335815,-0.005783081,-0.03736174,0.008415222,0.15071976
1570715659,1.2719269,8.81485,-0.33099365,-0.019729614,-0.050476074,-0.010040283,-0.008083701,-0.010041237,0.19778228
1570715659,1.2898712,8.871719,-0.40701294,-0.030380249,0.0017242432,-0.004714966,-0.004624605,0.07299614,0.10128492
1570715659,1.2300262,8.8016815,-0.44711304,-0.066604614,-0.10800171,0.012329102,-0.051534653,-0.003004074,0.004850894
1570715659,1.2300262,8.8016815,-0.44711304,-0.066604614,-0.10800171,0.012329102,-0.051534653,-0.003004074,0.004850894
1570715659,1.2509766,8.844772,-0.35075378,-0.051696777,-0.076034546,0.002746582,-0.03384304,-0.009836197,0.08314675
1570715659,1.3287811,8.939346,-0.30825806,-0.028259277,0.017700195,-0.008972168,0.041704774,0.10701656,0.17273128
1570715660,1.3706818,8.775345,-0.5273285,-0.016540527,0.05392456,-0.011108398,0.121706605,-0.03716755,-0.062175363
1570715660,1.3461456,8.688553,-0.4632721,-0.03465271,-0.0046691895,-4.5776367E-4,0.052823067,-0.1168623,-0.063893914
1570715660,1.3736725,8.866333,-0.28909302,-0.010147095,-0.064315796,0.011260986,0.07078183,-0.010025978,0.068798155
1570715660,1.3233948,8.871109,-0.33039856,0.011154175,-0.043014526,0.016586304,0.059996128,0.049777985,0.12166011
1570715660,1.1204834,8.810059,-0.45610046,-0.0090789795,-0.06964111,0.028305054,-0.117337346,-0.046150208,-0.0067148507
1570715660,1.0815735,8.890274,-0.24061584,-0.0026855469,-0.16871643,0.037887573,-0.2207135,0.06055832,0.096568495
1570715660,1.1803436,8.89267,-0.12031555,0.022872925,-0.15167236,0.018722534,-0.16739082,0.08390617,0.28528133
1570715660,1.0983429,8.857346,-0.25737,0.030334473,0.026229858,0.002746582,-0.1690222,0.0012626648,0.19726363
1570715660,1.1043243,8.901642,-0.3537445,0.010101318,-0.009994507,0.010192871,-0.21010315,-0.006937027,0.07604492
1570715660,1.2234344,8.909424,-0.19992065,-0.0026855469,-0.097335815,0.002746582,-0.07487559,0.0965395,0.23486021
1570715660,1.193512,8.911224,-0.17956543,-0.0026855469,-0.08988953,0.002746582,-0.07487559,0.0965395,0.23486021
1570715660,1.2581482,8.871109,-0.25138855,-0.016540527,0.052856445,-0.022827148,-0.013381839,0.0391531,0.15765002
1570715660,1.2605438,8.847778,-0.24720764,-0.014404297,0.05392456,-0.022827148,-0.013381839,0.0391531,0.15765002
1570715660,1.2826996,8.846573,-0.3818817,-0.023986816,0.0688324,-0.019622803,0.02021122,-0.009418488,0.06946388
1570715660,1.3012543,8.83461,-0.36332703,-0.02079773,0.054992676,-0.014297485,0.048390508,-0.009342194,-0.0053402483
1570715660,1.3072357,8.818451,-0.42736816,-0.013336182,0.041137695,-0.008972168,0.075701,-0.02031231,-0.08089933
1570715660,1.2090759,8.851364,-0.36212158,-5.493164E-4,-0.03982544,0.0048675537,0.006435156,0.0066375732,-0.06252974
1570715660,1.2629395,8.860947,-0.4118042,0.0015716553,-0.045150757,0.0016784668,0.006435156,0.0066375732,-0.06252974
1570715660,1.1988983,8.869324,-0.3818817,0.015426636,-0.04408264,-0.0025787354,-0.0221318,-0.0076589584,-0.02177754
1570715660,1.2048798,8.885483,-0.32681274,0.0015716553,-0.031295776,-0.012176514,-0.0063484907,0.07363129,0.07277095
1570715660,1.2048798,8.877106,-0.26275635,0.0015716553,-0.027038574,-0.011108398,-0.0063484907,0.07363129,0.07277095
1570715660,1.1863251,8.87291,-0.31782532,-0.008010864,0.019836426,-0.021759033,-0.0036455393,-0.0011806488,0.034410596
1570715660,1.3012543,8.790909,-0.27893066,-0.021865845,0.04966736,-0.018569946,0.03353834,-0.056396484,0.032001197
1570715660,1.3168182,8.781937,-0.4123993,-0.021865845,0.064575195,-0.019622803,0.053810835,-0.021550179,-0.024261624
1570715660,1.240799,8.786713,-0.48542786,-0.021865845,0.033691406,-0.004714966,0.0687983,-0.03492737,-0.11495441
1570715660,1.2533722,8.794495,-0.51116943,-0.017608643,0.024093628,-0.0015258789,0.019955873,-0.060221672,-0.11868009
1570715660,1.2024841,8.8884735,-0.49978638,-0.026123047,-0.07710266,0.0155181885,-0.03508973,-0.0020923615,-0.14697084
1570715660,1.3018494,8.844772,-0.36271667,0.019683838,-0.0046691895,-0.0079193115,0.033670068,0.009008408,0.04195842
1570715660,1.3018494,8.844772,-0.36271667,0.019683838,-0.0046691895,-0.0079193115,0.033670068,0.009008408,0.04195842
1570715660,1.2952576,8.757996,-0.38845825,0.022872925,0.03794861,-0.005783081,0.07283938,-0.051496506,-0.033233434
1570715660,1.3114166,8.807068,-0.4554901,-0.006942749,-0.05152893,0.0155181885,0.066140294,-0.04944229,-0.116265476
1570715660,1.2000885,8.860947,-0.37049866,-0.014404297,-0.106933594,0.024047852,0.00832212,-0.0060796738,0.03243774
1570715660,1.2000885,8.860947,-0.37049866,-0.014404297,-0.106933594,0.024047852,0.00832212,-0.0060796738,0.03243774
1570715661,1.2479706,8.930374,-0.24839783,-0.010147095,-0.046203613,0.012329102,-0.019597054,0.03824997,0.068792224
1570715661,1.2743073,8.905228,-0.32980347,-0.006942749,0.043273926,-4.5776367E-4,0.06890905,0.06478214,0.017402858
1570715661,1.1959076,8.830414,-0.5027771,-0.014404297,0.033691406,0.0037994385,-0.014614344,0.0061149597,-0.09770718
1570715661,1.1641846,8.798691,-0.37768555,-0.030380249,-0.07070923,0.005935669,-0.09849191,-0.041088104,-0.124922246
1570715661,1.1605835,8.851364,-0.2669525,-0.0026855469,-0.08456421,6.1035156E-4,-0.089710236,-5.903244E-4,0.08890697
1570715661,1.1803436,8.871719,-0.33459473,0.0026397705,0.01876831,0.009140015,-0.08957338,0.040376663,0.030467868
1570715661,1.0953522,8.756195,-0.43814087,-0.018661499,-0.020645142,0.020843506,-0.15264702,-0.046980858,-0.08570677
1570715661,1.0414734,8.841782,-0.37528992,-0.029312134,-0.10800171,0.018722534,-0.17823744,-0.039797783,-0.073411256
1570715661,1.241394,8.883682,-0.18016052,0.020751953,-0.07923889,0.01979065,-0.03411722,0.09066677,0.18939593
1570715661,1.319809,8.910019,-0.17956543,0.027145386,-0.03555298,0.017654419,0.011445999,0.0503006,0.13361782
1570715661,1.3664856,8.839386,-0.46388245,0.0026397705,0.04434204,0.016586304,0.11464453,0.057465553,-0.09863812
1570715661,1.3551178,8.8016815,-0.4985962,-0.014404297,-0.04194641,0.018722534,0.060227394,-0.006526947,-0.1221225
1570715661,1.383255,8.863937,-0.32022095,-0.019729614,-0.09307861,0.025115967,0.10682559,0.022491455,0.050826967
1570715661,1.3209991,8.837006,-0.34835815,-0.029312134,-0.05366516,0.026184082,0.055503964,0.03539753,0.003770113
1570715661,1.2874756,8.924393,-0.09875488,-0.003753662,-0.018508911,-0.0079193115,-0.026244402,0.074718475,0.16635147
1570715661,1.2874756,8.924393,-0.09875488,-0.003753662,-0.018508911,-0.0079193115,-0.026244402,0.074718475,0.16635147
1570715661,1.3610992,8.858551,-0.29808044,0.028198242,0.097595215,-0.022827148,0.08395684,-0.029789925,0.056459725
1570715661,1.3048401,8.826218,-0.51594543,5.0354004E-4,0.048599243,-4.5776367E-4,0.042224646,-0.018145561,-0.20071802
1570715661,1.4239502,8.847778,-0.39804077,-0.014404297,-0.106933594,0.024047852,0.112356186,0.023539543,-0.060683936
1570715661,1.335968,8.807068,-0.24002075,-0.03465271,-0.08456421,0.030441284,0.043150067,-0.03949547,0.07666412
1570715661,1.2767029,8.895065,-0.2669525,-0.052749634,-0.04940796,0.028305054,-0.050106168,0.073010445,0.043213964
1570715661,1.2761078,8.966278,-0.17297363,-0.045303345,-0.04194641,0.009140015,-0.036342382,0.16000748,0.07348743
1570715661,1.4299316,8.911819,-0.21368408,-0.01121521,0.12742615,-0.0345459,0.08584094,0.031677246,0.115602046
1570715661,1.3946228,8.843582,-0.3028717,-0.021865845,0.16044617,-0.037734985,0.13079154,0.016230583,0.041009873
1570715661,1.4419098,8.758591,-0.34596252,-0.026123047,0.13700867,-0.02708435,0.13855672,-0.11574268,-0.064578265
1570715661,1.3191986,8.719681,-0.43515015,-0.04849243,0.036880493,-0.004714966,0.057828546,-0.11719227,-0.1951077
1570715661,1.1569977,8.885483,-0.37948608,-0.0655365,-0.04408264,0.0155181885,-0.12022436,-0.010308266,-0.12700856
1570715661,0.9828186,8.948334,-0.3549347,-0.0463562,-0.05899048,-0.0068511963,-0.296731,0.095897675,-0.080307394
1570715661,0.8439636,8.976456,-0.3136444,-0.04423523,-0.073913574,-0.021759033,-0.43919277,0.12409592,-0.13567746
1570715661,1.1174927,8.987839,-0.06463623,0.08253479,-0.064315796,-0.063308716,-0.15914905,0.1483326,0.22370338
1570715661,1.1965027,8.936951,-0.089782715,0.09744263,-0.040878296,-0.06542969,-0.06945264,0.09482479,0.16600886
1570715661,1.2785034,8.766968,-0.27653503,0.07081604,0.045410156,-0.04093933,0.03754151,-0.10346222,0.039318025
1570715662,1.2904816,8.877106,-0.4405365,-0.07086182,-0.1431427,0.03363037,0.027826667,0.030892372,-0.14988244
1570715662,1.2904816,8.877106,-0.4405365,-0.07086182,-0.1431427,0.03363037,0.027826667,0.030892372,-0.14988244
1570715662,1.3263855,8.9357605,-0.06225586,-0.04423523,0.0027923584,0.0315094,0.085228205,0.055142403,0.20036197
1570715662,1.3820496,8.797501,-0.20170593,-0.019729614,0.15405273,0.016586304,0.13427019,-0.08166504,0.18184048
1570715662,1.34375,8.828613,-0.26576233,-0.021865845,0.18069458,0.01979065,0.09654832,-0.06067562,0.044321746
1570715662,1.233017,8.772949,-0.6099243,-0.06767273,0.088012695,0.037887573,0.022016644,-0.11276531,-0.32718083
1570715662,1.2138672,8.747818,-0.40402222,-0.0463562,-0.17617798,0.065597534,-0.087180376,-0.115234375,-0.13869436
1570715662,1.0444641,8.95192,-0.33638,-0.045303345,-0.19108582,0.0592041,-0.22314179,0.077281,-0.112157375
1570715662,0.9427185,8.847778,-0.29029846,-0.042099,-0.18362427,0.04322815,-0.33844435,0.021753311,0.018725693
1570715662,0.8822632,8.830414,-0.22206116,-0.016540527,-0.17190552,0.034698486,-0.39834356,-0.028887749,0.061358318
1570715662,0.86550903,8.935165,-0.31124878,0.011154175,-0.19108582,0.0315094,-0.44918287,0.07786274,0.00663352
1570715662,1.1785431,8.945343,-0.101760864,0.062286377,-0.20812988,-4.5776367E-4,-0.1090076,0.20361137,0.158503
1570715662,1.1785431,8.945343,-0.101760864,0.062286377,-0.20812988,-4.5776367E-4,-0.11787605,0.15866089,0.15443319
1570715662,1.1815338,8.814255,-0.17237854,0.025009155,-0.13249207,0.008071899,-0.071641564,0.02513218,0.14540243
1570715662,1.1923065,8.848373,-0.19572449,-0.008010864,-0.111190796,0.027236938,-0.05559337,0.0026807785,0.084400415
1570715662,1.2497711,8.738831,-0.24121094,-0.07192993,-0.11012268,0.03895569,-0.033900023,-0.058987617,0.024400532
1570715662,1.3934326,8.87471,-0.20649719,-0.090042114,-0.05366516,0.05493164,0.0613544,0.02526474,0.09334853
1570715662,1.4640503,8.873505,-0.19392395,-0.066604614,0.048599243,0.061325073,0.1616621,0.0072307587,0.039986074
1570715662,1.6621704,8.97406,-0.1370697,-0.041030884,0.08694458,0.055999756,0.3101771,0.11347389,0.019113109
1570715662,2.0811615,9.094971,-0.12210083,0.08892822,0.1710968,0.05067444,0.6181985,0.2794981,0.107429475
1570715662,2.0847473,9.029129,-0.2059021,0.042053223,0.2925415,0.1060791,0.63870573,0.27300358,0.038256526
1570715662,2.110489,9.008179,-0.19033813,0.034591675,0.2925415,0.11140442,0.6892135,0.20473671,0.033331305
1570715662,2.2074585,8.67659,-0.23103333,-0.038909912,0.26591492,0.13909912,0.71246433,-0.1304617,0.02119276
1570715662,2.4462738,8.549103,0.070632935,-0.26261902,-0.045150757,0.18595886,0.8480307,-0.32974815,0.1325372
1570715662,2.300827,8.803482,1.5161285,-0.6557007,-0.20599365,0.33084106,0.7397685,-0.033376694,1.2669073
1570715662,2.300827,8.803482,1.5161285,-0.6557007,-0.20599365,0.33084106,0.7397685,-0.033376694,1.2669073
1570715662,1.766922,8.8962555,-0.90501404,-0.6919098,0.9167938,0.33084106,0.052636266,0.19216633,-1.3576556
1570715662,1.6549988,8.85495,-0.8607178,-0.67274475,0.85713196,0.32977295,0.052636266,0.19216633,-1.3576556
1570715662,1.098938,8.95372,0.6769562,-0.04423523,0.014511108,0.27757263,-0.6479939,0.10454655,-0.044547856
1570715662,0.79307556,8.963898,1.098938,0.03565979,0.101867676,0.23710632,-1.1794528,0.1712389,0.2831908
1570715662,1.546051,9.278137,1.4580688,-5.493164E-4,0.55885315,0.17425537,-0.56024873,0.56867313,0.81924516
1570715662,3.099289,8.5568695,0.62249756,-0.016540527,0.47790527,0.0357666,0.9256413,0.004793167,-0.14449775
1570715662,3.3794098,8.349182,0.9468994,0.069747925,0.5940094,-0.014297485,1.2644904,-0.37088966,0.11168909
1570715663,3.1100616,7.787735,0.3142395,0.4543152,0.44487,0.011260986,1.1448003,-0.89621925,-0.31026262
1570715663,3.087326,7.847595,0.22744751,0.44578552,0.41184998,0.021911621,1.1448003,-0.89621925,-0.31026262
1570715663,2.3259735,7.842209,0.6937256,0.29664612,-0.052597046,0.10820007,0.5787575,-0.8989372,-0.09098184
1570715663,1.1103058,8.452728,1.4407043,-0.051696777,-0.07070923,0.13589478,-0.8455522,-0.501811,0.7486628
1570715663,1.0654144,9.312241,1.0731964,-0.14649963,0.29574585,0.055999756,-1.0945652,0.5355425,0.65972626
1570715663,1.2683258,8.968079,0.893631,0.1304779,0.11038208,-0.119766235,-0.86330724,0.31131458,0.29792172
1570715663,0.9929962,9.594757,1.1863251,0.35098267,0.050735474,-0.29234314,-0.14573205,-8.2683563E-4,0.6058375
1570715663,1.7178345,8.725067,1.0103607,0.3296814,0.12849426,-0.26463318,-0.47269487,0.47354794,0.63073504
1570715663,2.482788,9.161407,0.6961212,0.26895142,0.17216492,-0.22309875,0.39225674,0.22387123,0.42538056
1570715663,1.6107025,8.534134,0.5422821,0.24125671,-0.06752014,-0.072891235,0.09339094,-0.17391682,0.38387695
1570715663,1.6107025,8.534134,0.5422821,0.24125671,-0.06752014,-0.072891235,0.09339094,-0.17391682,0.38387695
1570715663,0.98820496,9.582794,0.7553711,-0.10069275,-0.32104492,-0.082473755,-0.2702024,-0.57740784,0.43788332
1570715663,0.98820496,9.582794,0.7553711,-0.10069275,-0.32104492,-0.082473755,-0.2702024,-0.57740784,0.43788332
1570715663,1.99617,9.047684,0.3722992,-0.052749634,0.38841248,-0.19326782,0.38975108,0.2504177,0.16421837
1570715663,1.99617,9.047684,0.3722992,-0.052749634,0.38841248,-0.19326782,0.38975108,0.2504177,0.16421837
1570715663,1.95607,8.6514435,-0.43154907,-0.025054932,0.92211914,-0.17303467,0.3735286,-0.15319061,-0.71930265
1570715663,1.95607,8.6514435,-0.43154907,-0.025054932,0.92211914,-0.17303467,0.3735286,-0.15319061,-0.71930265
1570715663,1.6585846,8.768158,-0.74938965,0.019683838,0.38201904,-0.09207153,0.19287574,0.0019960403,-1.1920025
1570715663,1.6585846,8.768158,-0.74938965,0.019683838,0.38201904,-0.09207153,0.19287574,0.0019960403,-1.1920025
1570715663,1.4897919,9.021347,0.0287323,0.2913208,-0.7471466,-0.020690918,0.031045318,0.20213413,-0.29444182
1570715663,1.4897919,9.021347,0.0287323,0.2913208,-0.7471466,-0.020690918,0.031045318,0.20213413,-0.29444182
1570715663,1.4233551,8.957306,-0.12689209,0.2593689,-0.9335785,-0.033477783,-0.011446238,0.11581516,-0.2727732
1570715663,1.6657715,9.008789,0.2861023,0.12513733,-0.78230286,-0.016433716,0.11249757,0.10982895,0.047089286
1570715663,1.8171997,8.918396,0.61172485,0.12088013,-0.5905609,-0.0388031,0.31958926,0.060840607,0.47916463
1570715663,1.6897125,8.681381,0.35554504,0.11022949,-0.14846802,-0.055847168,0.23693323,-0.16308784,0.46792373
1570715663,1.5304871,8.818451,-0.113723755,-0.17951965,0.4960022,-0.021759033,0.11425412,-0.05014229,-0.08835503
1570715663,1.5993195,8.880096,-0.04309082,-0.2189331,0.5578003,-0.018569946,0.14670181,0.022043228,-0.11529062
1570715663,1.6418304,8.917801,0.10055542,-0.18910217,0.57270813,-0.017501831,0.22730088,0.08536148,-0.029808939
1570715663,1.5502472,8.806473,-0.27653503,-0.047424316,0.44700623,-0.0388031,0.19203353,-0.028978348,-0.44399887
1570715663,1.4119873,8.804077,-0.39743042,-0.031448364,0.12849426,-0.004714966,0.031699657,-0.052139282,-0.6564735
1570715663,1.4029999,8.827423,-0.35253906,-0.031448364,0.10826111,-0.0015258789,0.007130146,-0.038006783,-0.64981496
1570715663,1.4724274,8.907028,-0.08918762,0.03565979,-0.13142395,0.014465332,0.05146408,-3.376007E-4,-0.3724863
1570715663,1.4024048,8.941147,0.09516907,0.13259888,-0.3146515,0.0037994385,0.012218237,0.119514465,-0.08315174
1570715663,1.320404,8.93277,0.094573975,0.15390015,-0.39242554,6.1035156E-4,-0.051097155,0.09247208,-0.050606444
1570715663,1.2719269,8.860336,0.12150574,0.13899231,-0.46699524,0.0037994385,-0.10913801,-0.0036382675,0.028118618
1570715664,1.454483,8.981842,0.375885,0.05696106,-0.28056335,-0.0068511963,0.02793622,0.08524132,0.32710764
1570715664,1.454483,8.981842,0.375885,0.05696106,-0.28056335,-0.0068511963,0.02793622,0.08524132,0.32710764
1570715664,1.5789795,8.87291,0.43693542,0.043121338,-0.04940796,-0.031341553,0.10455096,0.036639214,0.47975215
1570715664,1.7172394,8.837006,0.24958801,-0.010147095,0.2605896,-0.032409668,0.25978518,-0.025585175,0.2770223
1570715664,1.6059113,8.826828,-0.041900635,-0.092163086,0.4044037,-0.011108398,0.22723913,-0.034201622,-0.024247918
1570715664,1.5053558,8.907028,-0.10714722,-0.14649963,0.30319214,0.014465332,0.12763059,2.8419495E-4,-0.2471371
1570715664,1.52211,8.887878,-0.054473877,-0.14224243,0.20838928,0.018722534,0.0800308,0.029730797,-0.15489998
1570715664,1.2611389,8.548492,-0.018554688,-0.038909912,-0.023834229,0.0155181885,-0.12771165,-0.19003582,-0.15899497
1570715664,1.2204437,8.505402,-0.0011901855,-0.038909912,-0.023834229,0.0155181885,-0.16388297,-0.264678,-0.17876929
1570715664,1.5029602,8.841782,0.03352356,0.0037078857,-0.20387268,0.0315094,-0.062291265,-0.09923744,-0.17084266
1570715664,2.1164703,8.817841,0.25138855,0.19012451,0.041137695,-0.037734985,0.6936387,-0.11044788,0.25544614
1570715664,2.087143,8.774155,0.1663971,0.1847992,0.06138611,-0.039871216,0.6777806,-0.04637432,0.22394253
1570715664,1.0187378,8.81366,-0.32261658,0.052703857,0.015579224,0.037887573,-0.3535,-0.113967896,-0.30808574
1570715664,1.1641846,9.136276,0.20649719,-0.14649963,-0.72691345,0.08796692,-0.46725333,0.35486698,0.012356208
1570715664,1.1641846,9.136276,0.20649719,-0.14649963,-0.72691345,0.08796692,-0.46725333,0.35486698,0.012356208
1570715664,1.7100525,8.841187,0.61172485,-0.12199402,0.45658875,-0.031341553,0.24946225,-0.005927086,0.5880256
1570715664,1.6304474,8.820236,0.5560608,-0.11987305,0.50772095,-0.042007446,0.24946225,-0.005927086,0.5880256
1570715664,1.3431396,8.881287,-0.21009827,-0.09429932,0.53222656,-0.06437683,-0.08645439,-0.044649124,-0.3793485
1570715664,1.3257904,8.898056,-0.19213867,-0.0932312,0.50239563,-0.06437683,-0.08645439,-0.044649124,-0.3793485
1570715664,1.4454956,8.783722,-0.18255615,-0.026123047,0.19880676,-0.037734985,0.024110198,-0.023531914,-0.3787843
1570715664,1.5287018,8.642471,0.18495178,0.08892822,-0.22198486,0.04322815,0.15299916,-0.21289349,-0.027988657
1570715664,1.5287018,8.642471,0.18495178,0.08892822,-0.22198486,0.04322815,0.15299916,-0.21289349,-0.027988657
1570715664,1.3066406,9.066849,0.16758728,0.19438171,-0.49362183,0.049606323,-0.12071478,0.2158699,0.060131647
1570715664,1.4059906,9.035126,0.72784424,0.06123352,-0.31892395,-0.011108398,-0.06382918,0.23492718,0.61988944
1570715664,1.4059906,9.035126,0.72784424,0.06123352,-0.31892395,-0.011108398,-0.06382918,0.23492718,0.61988944
1570715664,1.5723877,8.765167,0.4010315,0.0037078857,0.29574585,-0.042007446,0.12111902,-0.10918236,0.45543528
1570715664,1.5723877,8.765167,0.4010315,0.0037078857,0.29574585,-0.042007446,0.12111902,-0.10918236,0.45543528
1570715664,1.6621704,8.780136,-0.05027771,-0.08258057,0.30426025,-0.0015258789,0.22614682,-0.056689262,0.017100569
1570715664,1.6154938,8.877701,-0.096969604,-0.1209259,0.18495178,0.029373169,0.21289682,0.022091866,-0.1434742
1570715664,1.6154938,8.918396,0.026931763,-0.08683777,0.054992676,0.030441284,0.15917218,0.08415985,-0.11142623
1570715664,1.6573792,8.883682,0.11073303,0.02607727,-0.03982544,-0.0015258789,0.18545508,0.054821968,0.040897444
1570715664,1.6573792,8.883682,0.11073303,0.02607727,-0.03982544,-0.0015258789,0.18545508,0.054821968,0.040897444
1570715664,1.4915924,8.725662,0.025146484,0.016494751,-0.034484863,0.030441284,0.07695484,-0.100357056,-0.082540624
1570715665,1.7842712,8.907623,0.35194397,0.004776001,0.036880493,0.042160034,0.14147782,9.059906E-5,0.26080418
1570715665,1.6591797,8.908829,0.36332703,0.022872925,0.19880676,0.0155181885,0.18753994,0.049041748,0.27672446
1570715665,1.2360077,8.67778,0.25737,0.054840088,0.3905487,0.032562256,-0.20914912,-0.19331837,0.35042602
1570715665,1.0648193,8.187576,-0.59495544,0.046310425,0.028366089,-0.037734985,-0.3100611,-0.57681847,-0.5357277
1570715665,0.87867737,8.187576,-0.59495544,0.046310425,0.028366089,-0.037734985,-0.3100611,-0.57681847,-0.5357277
1570715665,1.6513977,9.363129,0.50816345,-0.12945557,-0.72265625,0.05281067,0.120859265,0.42489433,0.26865172
1570715665,1.7070618,9.363129,0.50816345,-0.12945557,-0.72265625,0.05281067,0.120859265,0.42489433,0.26865172
1570715665,2.023697,8.849564,1.3287811,0.071884155,0.012374878,-0.09207153,0.6658821,0.1758852,1.169933
1570715665,1.7286072,8.887878,0.07841492,0.27001953,0.32344055,-0.14320374,0.32940197,-0.1194725,0.29049644
1570715665,1.5957336,8.616135,-0.36810303,0.05909729,-0.002532959,-0.023895264,0.12294674,-0.18522358,-0.5268132
1570715665,1.4161682,9.023148,0.028137207,-0.15289307,-0.4084015,0.12098694,-0.05461192,0.12863922,-0.11476246
1570715665,1.3628998,9.060257,0.056869507,-0.15289307,-0.42863464,0.11672974,-0.05461192,0.12863922,-0.11476246
1570715665,1.1575928,9.040512,0.4794464,-0.054885864,-0.58735657,0.079437256,-0.2782073,0.22189713,0.40300125
1570715665,1.6292572,8.984848,0.6961212,-0.1081543,0.23928833,-0.049453735,0.13336754,0.12896729,0.5526657
1570715665,1.6292572,8.984848,0.6961212,-0.1081543,0.23928833,-0.049453735,0.13336754,0.12896729,0.5526657
1570715665,1.8734589,8.674194,-0.40641785,0.12408447,0.36392212,-0.10697937,0.4203508,-0.1817379,-0.47330135
1570715665,1.845932,8.664612,-0.50338745,0.118759155,0.33728027,-0.10058594,0.4203508,-0.1817379,-0.47330135
1570715665,1.7471619,8.749603,-0.3256073,-0.050628662,-0.23582458,0.0826416,0.33485043,-0.13960838,-0.44054043
1570715665,1.7585449,8.732849,-0.29328918,-0.057022095,-0.25074768,0.08583069,0.33485043,-0.13960838,-0.44054043
1570715665,1.2192535,8.877106,0.36631775,-0.061279297,-0.30825806,0.09436035,-0.16250372,0.02375698,0.223735
1570715665,1.2192535,8.877106,0.36631775,-0.061279297,-0.30825806,0.09436035,-0.16250372,0.02375698,0.223735
1570715665,1.2222443,8.984848,0.42855835,5.0354004E-4,-0.008926392,-0.010040283,-0.217206,0.16627407,0.30050808
1570715665,1.3377533,9.018951,0.3944397,0.0143585205,0.046463013,-0.037734985,-0.217206,0.16627407,0.30050808
1570715665,1.5837708,8.926178,0.35913086,0.08039856,0.20306396,-0.0899353,0.03638947,0.110816956,0.21567732
1570715665,1.5801697,8.729858,0.08918762,0.091049194,0.1945343,-0.075027466,0.083551764,-0.07638073,-0.012524158
1570715665,1.5723877,8.828018,-0.24780273,0.0143585205,-0.11225891,0.0037994385,0.095294595,-0.0653944,-0.31874135
1570715665,1.5125427,8.789719,-0.16998291,-0.057022095,-0.34980774,0.03895569,0.092344284,-0.03887081,-0.2636404
1570715665,1.4269409,8.820236,0.31184387,-0.0932312,-0.42012024,0.065597534,-0.015405297,-0.036305428,0.180652
1570715665,1.2360077,8.930969,0.43754578,-0.049560547,-0.1857605,0.028305054,-0.19377661,0.066514015,0.3129117
1570715665,1.2665253,8.980057,0.30885315,-0.012268066,-0.087753296,-0.012176514,-0.23542118,0.16286373,0.22437587
1570715665,1.3257904,8.924393,0.15562439,0.029266357,-0.04408264,-0.043060303,-0.17687905,0.13080025,0.1540148
1570715665,1.4616547,8.799286,0.10055542,0.034591675,-0.03768921,-0.04093933,-0.058949947,-0.018064499,-0.019978054
1570715665,1.498764,8.831604,-0.01675415,0.028198242,-0.097335815,-0.018569946,0.09073651,-0.036188126,-0.08006827
1570715665,1.5502472,8.784332,0.03352356,0.034591675,-0.20812988,0.0016784668,0.10961902,-0.051849365,-0.006251354
1570715666,1.5071564,8.890274,0.2561798,-0.031448364,-0.21026611,0.014465332,-0.009153485,0.016165733,0.18626127
1570715666,1.5119324,8.868729,0.29029846,-0.030380249,-0.20173645,0.0155181885,-0.009153485,0.016165733,0.18626127
1570715666,1.5125427,8.895065,0.2962799,0.021820068,-0.02810669,-0.033477783,0.08061588,0.045285225,0.24398792
1570715666,1.5640106,8.870514,0.1945343,0.032470703,0.031555176,-0.0388031,0.07564354,0.018481255,0.20425504
1570715666,1.5137329,8.728668,0.053863525,0.0015716553,0.08482361,-0.020690918,0.1976533,0.017469406,-0.0357067
1570715666,1.5137329,8.728668,0.053863525,0.0015716553,0.08482361,-0.020690918,0.1976533,0.017469406,-0.0357067
1570715666,1.5837708,8.811264,-0.049682617,-0.02079773,-0.03555298,0.010192871,0.05779767,-0.059566498,-0.09206588
1570715666,1.5083466,8.872314,0.020355225,-0.02079773,0.028366089,0.016586304,0.028832912,0.005050659,-0.03158158
1570715666,1.5083466,8.872314,0.020355225,-0.02079773,0.028366089,0.016586304,0.028832912,0.005050659,-0.03158158
1570715666,1.5023651,8.791504,-0.032913208,0.031402588,0.12635803,-0.0036468506,0.01626563,-0.038656235,-0.036512062
1570715666,1.5023651,8.791504,-0.032913208,0.031402588,0.12635803,-0.0036468506,0.01626563,-0.038656235,-0.036512062
1570715666,1.4179688,8.8567505,-0.22625732,0.051635742,0.10079956,-0.0025787354,-0.035292625,-0.031178474,-0.20125127
1570715666,1.459259,8.9674835,-0.050872803,0.03353882,-0.12930298,0.0155181885,-0.03097248,0.1132679,-0.06503649
1570715666,1.459259,8.9674835,-0.050872803,0.03353882,-0.12930298,0.0155181885,-0.03097248,0.1132679,-0.06503649
1570715666,1.4185638,8.926788,0.029922485,-0.033584595,0.047531128,-0.014297485,-0.07575321,0.04889965,-0.021899601
1570715666,1.4185638,8.926788,0.029922485,-0.033584595,0.047531128,-0.014297485,-0.07575321,0.04889965,-0.021899601
1570715666,1.5101471,8.792709,0.063446045,-0.037841797,0.12530518,-0.019622803,0.054767966,-0.12390995,-0.013733365
1570715666,1.5101471,8.792709,0.063446045,-0.037841797,0.12530518,-0.019622803,0.054767966,-0.12390995,-0.013733365
1570715666,1.8369446,8.871719,-0.29988098,-0.030380249,0.37243652,-4.5776367E-4,0.3816371,0.15058136,-0.15942475
1570715666,1.4502869,8.73465,-0.22685242,-0.045303345,0.35432434,-0.023895264,0.12602365,-0.07950783,-0.3659687
1570715666,1.5927429,8.929169,0.06942749,0.081466675,0.05392456,0.018722534,0.0896008,0.08602524,-0.013060629
1570715666,1.6154938,8.812454,-0.15441895,0.07295227,0.033691406,0.020843506,0.070703864,0.026429176,-0.19981518
1570715666,1.5197144,8.845383,0.047286987,0.007965088,0.01876831,0.013397217,0.010847449,-0.05513382,-0.039305896
1570715666,0.7918854,9.571426,-0.7918854,-0.064468384,-0.27630615,0.0155181885,-1.0493345,0.09383774,-0.667745
1570715666,2.07518,8.447937,0.5321045,-0.07406616,-0.64915466,0.06878662,0.48502278,-0.36056995,0.52731586
1570715666,1.8519135,8.556274,0.23164368,-0.15182495,-0.22303772,0.12524414,0.34583318,-0.2426529,0.1331591
1570715666,1.8519135,8.556274,0.23164368,-0.15182495,-0.22303772,0.12524414,0.34583318,-0.2426529,0.1331591
1570715666,1.367691,9.247009,0.0861969,-0.24876404,0.066711426,0.04748535,-0.15336919,0.2654276,-0.026485853
1570715666,1.1970978,9.107544,0.7068939,-0.07511902,0.12849426,-0.056915283,-0.35762906,0.31991386,0.43484575
1570715666,1.1653748,8.790909,0.5877838,0.05909729,0.16151428,-0.061172485,-0.37791574,-0.023533821,0.44736773
1570715666,1.2563629,8.932175,0.18495178,0.13580322,0.29786682,-0.018569946,-0.3384683,0.046251297,0.06746666
1570715666,2.1691437,9.11113,0.1592102,0.16242981,0.85180664,-0.004714966,0.48114944,0.25685692,0.05969456
1570715666,2.1691437,9.11113,0.1592102,0.16242981,0.85180664,-0.004714966,0.48114944,0.25685692,0.05969456
1570715667,1.2641449,8.664612,-0.28790283,0.21356201,0.7708435,-0.024963379,-0.23212421,-0.21920586,-0.38545564
1570715667,0.8595123,8.917801,-0.092178345,0.29238892,0.03048706,-0.013244629,-0.6198268,0.04244232,-0.032692313
1570715667,1.0139465,9.126694,-0.16400146,0.11129761,-0.41159058,-0.029220581,-0.5466615,0.28484917,-0.19306362
1570715667,1.640625,8.920792,0.3830719,-0.09643555,-0.28056335,-0.020690918,0.08556676,0.09305,0.4315937
1570715667,1.6226654,8.93396,0.40222168,-0.10494995,-0.24754333,-0.017501831,0.12278676,0.07335186,0.41360736
1570715667,1.7292175,8.863937,0.28012085,-0.111343384,0.50878906,-0.04093933,0.24241698,-0.03192234,0.3195197
1570715667,1.7292175,8.863937,0.28012085,-0.111343384,0.50878906,-0.04093933,0.24241698,-0.03192234,0.3195197
1570715667,1.4897919,8.807068,-0.3244171,-0.064468384,0.46725464,-0.021759033,0.09321499,-0.062636375,-0.42598855
1570715667,1.4897919,8.807068,-0.3244171,-0.064468384,0.46725464,-0.021759033,0.09321499,-0.062636375,-0.42598855
1570715667,1.3353729,8.838196,-0.42437744,-0.038909912,0.07310486,-0.0015258789,-0.095297456,-0.053850174,-0.54164416
1570715667,1.4844055,8.999802,0.41299438,0.10064697,-0.3583374,-0.023895264,0.08381522,0.13877201,0.20397227
1570715667,1.4844055,8.999802,0.41299438,0.10064697,-0.3583374,-0.023895264,0.08381522,0.13877201,0.20397227
1570715667,1.5137329,8.91362,0.3537445,0.17840576,-0.25712585,-0.07821655,0.06820023,0.01689434,0.2891311
1570715667,1.5137329,8.91362,0.3537445,0.17840576,-0.25712585,-0.07821655,0.06820023,0.01689434,0.2891311
1570715667,1.3617096,8.768158,0.26097107,-0.04423523,-0.10372925,-0.024963379,-0.0015078783,-0.09275246,0.26506513
1570715667,1.3617096,8.768158,0.26097107,-0.04423523,-0.10372925,-0.024963379,-0.0015078783,-0.09275246,0.26506513
1570715667,1.371872,8.799881,0.19692993,-0.20509338,0.19773865,0.0315094,-0.05697298,-0.08155346,0.16677691
1570715667,1.371872,8.799881,0.19692993,-0.20509338,0.19773865,0.0315094,-0.05697298,-0.08155346,0.16677691
1570715667,1.3186035,8.918396,0.14544678,-0.20295715,0.28189087,0.013397217,-0.04070127,0.031568527,0.0034998953
1570715667,1.383255,8.921387,-0.010177612,-0.12519836,0.28507996,-0.024963379,-0.040444255,0.046458244,-0.20168984
1570715667,1.446701,8.950119,-0.17956543,-0.026123047,0.085876465,-0.049453735,0.02017653,0.07666302,-0.39310947
1570715667,1.5879517,8.841782,-0.16998291,0.032470703,-0.10479736,-0.049453735,0.20342469,-0.056871414,-0.30823803
1570715667,1.5879517,8.841782,-0.16998291,0.032470703,-0.10479736,-0.049453735,0.20342469,-0.056871414,-0.30823803
1570715667,1.6047211,8.857941,-0.025741577,0.02607727,-0.13356018,-0.042007446,0.21917307,-0.045135498,-0.20094885
1570715667,1.5442657,8.77356,0.17237854,0.021820068,-0.15060425,-0.028152466,0.15993631,-0.090023994,0.008823261
1570715667,1.5442657,8.77356,0.17237854,0.021820068,-0.15060425,-0.028152466,0.15993631,-0.090023994,0.008823261
1570715667,1.4395142,8.7621765,0.092178345,-0.015472412,-0.06538391,-0.0068511963,0.042296648,-0.09613705,0.008131228
1570715667,1.3688812,8.822037,0.20770264,0.0058288574,6.5612793E-4,-0.0036468506,0.01569426,-0.036494255,0.06789118
1570715667,1.3688812,8.822037,0.20770264,0.0058288574,6.5612793E-4,-0.0036468506,0.01569426,-0.036494255,0.06789118
1570715667,1.3509216,8.865128,0.15203857,0.043121338,0.0059814453,-0.0068511963,0.011277676,-0.0043210983,0.04717899
1570715667,1.2779083,8.932175,0.10235596,0.08679199,-0.06964111,-0.014297485,-0.0707525,0.06503487,0.031175092
1570715667,1.3353729,8.994415,0.15382385,0.093185425,-0.18362427,-0.014297485,-0.018486142,0.101527214,0.056540564
1570715668,1.4472961,8.9674835,0.21247864,0.052703857,-0.25180054,-0.023895264,0.04040134,0.09175873,0.19465682
1570715668,1.42276,8.973465,0.21308899,0.048446655,-0.24328613,-0.021759033,0.08198452,0.080150604,0.18505582
1570715668,1.4574738,8.885483,0.3034668,-0.0058898926,-0.11012268,-0.024963379,0.08509827,0.0022363663,0.3188278
1570715668,1.4095917,8.869324,0.32800293,-0.054885864,0.10612488,-0.014297485,0.059999704,-0.035630226,0.24490327
1570715668,1.3341675,8.955505,0.1771698,-0.13052368,0.24993896,0.018722534,-0.016785502,0.059301376,0.0059376806
1570715668,1.3341675,8.955505,0.1771698,-0.13052368,0.24993896,0.018722534,-0.016785502,0.059301376,0.0059376806
1570715668,1.3892365,8.859741,0.23164368,-0.09855652,0.28507996,0.018722534,0.00810957,-0.0034065247,0.084188044
1570715668,1.1797485,8.912415,0.036514282,-0.03677368,0.12956238,-0.0025787354,-0.18924117,0.04569435,-0.22031516
1570715668,1.1797485,8.912415,0.036514282,-0.03677368,0.12956238,-0.0025787354,-0.18924117,0.04569435,-0.22031516
1570715668,1.272522,8.889664,0.14425659,0.052703857,-0.08242798,-0.018569946,-0.06435835,-9.1838837E-4,-0.03287998
1570715668,1.2904816,8.844772,0.3076477,0.07081604,-0.05152893,-0.012176514,-0.039764047,-0.0328331,0.057497025
1570715668,1.2904816,8.844772,0.3076477,0.07081604,-0.05152893,-0.012176514,-0.039764047,-0.0328331,0.057497025
1570715668,1.217453,8.896851,0.18675232,0.031402588,-0.034484863,6.1035156E-4,-0.07242656,-0.0063638687,0.023707077
1570715668,1.1420288,8.917801,0.2849121,-0.012268066,-0.045150757,0.005935669,-0.16124189,0.008111,0.08506714
1570715668,1.1282654,8.85376,0.19871521,-0.054885864,-0.03768921,0.010192871,-0.19894743,-0.015771866,0.089651436
1570715668,1.1983032,8.941147,0.35194397,-0.08151245,-3.9672852E-4,0.009140015,-0.12817109,0.05720806,0.11312106
1570715668,1.2737122,8.933365,0.24121094,-0.043167114,0.057113647,-0.012176514,-0.06575155,0.043813705,0.057192847
1570715668,1.3521271,8.779541,0.24958801,-0.028259277,0.019836426,-0.035614014,0.07327306,-0.091721535,-0.04925339
1570715668,1.332367,8.783127,0.2747345,-0.023986816,0.021972656,-0.03666687,0.07327306,-0.091721535,-0.04925339
1570715668,1.4526825,8.819046,0.15263367,0.040985107,-0.018508911,0.013397217,0.16677654,-0.033841133,-0.031481296
1570715668,1.4526825,8.819046,0.15263367,0.040985107,-0.018508911,0.013397217,0.16677654,-0.033841133,-0.031481296
1570715668,1.4323273,8.784332,0.23043823,0.060165405,-0.062194824,0.03363037,0.18055105,-0.07238579,0.00500758
1570715668,1.2641449,8.887878,0.5823822,0.06762695,-0.17510986,0.032562256,-0.07306504,0.011867523,0.33664382
1570715668,1.2641449,8.887878,0.5823822,0.06762695,-0.17510986,0.032562256,-0.07306504,0.011867523,0.33664382
1570715668,1.3946228,8.916,0.7398071,0.12194824,-0.06324768,0.008071899,0.0347085,0.063887596,0.52949977
1570715668,1.5622101,8.894455,0.36271667,0.14006042,0.19241333,-0.023895264,0.22670758,8.573532E-4,0.27155504
1570715668,1.5981293,8.881287,0.11730957,0.046310425,0.27870178,-0.0015258789,0.25635433,-0.009573936,-0.0034139603
1570715668,1.6663666,8.947723,0.22026062,-0.023986816,0.25419617,0.013397217,0.27476346,0.05577278,0.029422805
1570715668,1.7232208,8.69455,0.12390137,-0.023986816,0.39268494,0.037887573,0.36601567,-0.12967682,-0.056970745
1570715668,1.7232208,8.69455,0.12390137,-0.023986816,0.39268494,0.037887573,0.36601567,-0.12967682,-0.056970745
1570715668,1.249176,8.748413,-0.34176636,-0.061279297,0.35539246,0.09008789,-0.09031165,-0.15773392,-0.44700593
1570715668,0.40881348,7.3897095,-0.0287323,-0.1954956,0.020904541,0.18276978,-0.7686931,0.33360863,-0.98455167
1570715668,0.3615265,8.608948,0.8882446,-0.101760864,-0.591629,0.1614685,-1.2251204,-0.24007797,0.36042795
1570715668,0.3615265,8.608948,0.8882446,-0.101760864,-0.591629,0.1614685,-1.2251204,-0.24007797,0.36042795
1570715669,0.86849976,9.063248,0.2460022,0.081466675,-0.35301208,0.08476257,-0.7512622,0.19777107,0.141339
1570715669,1.663971,8.849564,-0.0071868896,0.17201233,0.09547424,-0.15492249,0.21139693,0.19560337,-0.2298899
1570715669,1.663971,8.849564,-0.0071868896,0.17201233,0.09547424,-0.15492249,0.16230357,0.07295799,-0.22894046
1570715669,2.0506287,8.681976,0.32859802,0.14324951,0.17855835,-0.07821655,0.48761523,-0.17338657,0.115425125
1570715669,2.05542,8.704117,0.05506897,0.14538574,0.12423706,-0.05052185,0.68896115,-0.16027737,0.04071951
1570715669,2.2499542,8.640671,0.16879272,-0.041030884,0.13595581,0.09008789,0.71706676,-0.2642355,0.042079993
1570715669,2.031479,8.792709,0.08319092,-0.1081543,0.22969055,0.0868988,0.5540526,-0.14348221,-0.048494264
1570715669,1.3688812,8.8759,0.11013794,-0.11987305,0.10826111,0.044281006,0.0060151815,0.016775131,-0.050479427
1570715669,1.1091156,9.165604,0.5093689,-0.03465271,0.057113647,0.22750854,-0.8109999,0.22536278,0.3815161
1570715669,1.0151367,9.147049,0.6063385,0.18693542,0.07310486,0.14228821,-0.6117257,0.36145115,0.4044365
1570715669,1.1174927,9.026138,0.6314697,0.22846985,0.050735474,0.14335632,-0.60525846,0.31501007,0.41445166
1570715669,0.533905,9.533707,0.1951294,0.26150513,-0.2837677,-0.12509155,-0.019127727,0.26314163,-0.46478194
1570715669,1.4221497,8.916,-0.0059814453,-0.15289307,-0.3902893,-0.24014282,0.17807353,-0.22728729,-0.18862665
1570715669,1.1109161,9.478043,0.12689209,-0.17419434,-0.4084015,-0.27316284,-0.030854225,-0.07687473,-0.124611214
1570715669,1.5203247,8.602371,0.22505188,-0.20295715,-0.25393677,-0.037734985,0.013126373,-0.32900333,0.16334513
1570715669,1.5119324,9.005783,0.1771698,-0.22425842,-0.28269958,-0.0345459,0.04079163,0.19366169,0.032099515
1570715669,3.4368744,8.966278,-0.20469666,-0.44371033,-0.57777405,0.04748535,1.6417176,0.020357132,-0.7757046
1570715669,1.8100128,8.267181,-0.11552429,-0.30522156,-0.58309937,0.11885071,0.23255312,-0.45911694,-0.34749645
1570715669,1.8100128,8.267181,-0.11552429,-0.30522156,-0.58309937,0.11885071,0.23255312,-0.45911694,-0.34749645
1570715669,1.7094574,8.410828,-0.205307,-0.2189331,-1.0028229,0.12205505,0.28615665,-0.5230694,-0.64825016
1570715669,1.0869751,9.566635,-0.72424316,-0.40534973,-1.134903,0.14228821,-0.68437874,0.40706825,-1.0131121
1570715669,0.9337311,8.57843,-0.22445679,-0.5619507,-1.2243958,0.05281067,-0.56997764,0.028295517,-0.90893745
1570715669,0.59794617,10.104721,1.7681122,-0.3670044,-0.6917572,0.09222412,-1.329268,1.034421,0.9862164
1570715669,1.1965027,8.760986,1.2336121,0.52568054,0.53222656,-0.17835999,-0.5077083,-0.15577126,0.9642997
1570715669,1.1965027,8.760986,1.2336121,0.52568054,0.53222656,-0.17835999,-0.5077083,-0.15577126,0.9642997
1570715669,1.1061249,8.573044,-0.061050415,0.532074,0.8496704,-0.25398254,-0.5184419,-0.17772293,-0.38869098
1570715669,1.1031342,9.199127,-0.48841858,0.38719177,0.9008179,-0.27316284,-0.4628179,0.28099442,-0.8389853
1570715669,2.2242126,8.781937,0.28251648,0.42874146,0.7804413,-0.2657013,0.6416906,0.025382042,-0.033587664
1570715669,3.111267,8.54071,0.46447754,0.65138245,0.46618652,-0.4297638,1.617757,-0.34861946,0.21221772
1570715669,1.8327637,8.426392,-2.6306305,0.2082367,-1.4747314,0.20620728,0.5153314,-0.64530563,-2.3159285
1570715669,1.8327637,8.426392,-2.6306305,0.2082367,-1.4747314,0.20620728,0.5153314,-0.64530563,-2.3159285
1570715669,2.6258392,8.802277,1.5215149,-0.19656372,-3.7128448,0.72499084,1.1250596,-0.0071573257,1.7539246
1570715669,2.6258392,8.802277,1.5215149,-0.19656372,-3.7128448,0.72499084,1.1250596,-0.0071573257,1.7539246
1570715669,3.1208344,9.120117,3.1381989,-0.30415344,-2.3567657,0.99557495,1.3447058,0.4231434,3.3578942
1570715670,2.473816,9.0225525,2.724594,-0.3393097,-0.6225128,1.0850525,0.3472612,0.09070969,3.647267
1570715670,1.5077515,8.38031,0.46865845,-0.3073578,1.4558105,0.53430176,-0.7177272,-0.1825161,0.9649594
1570715670,1.5077515,8.38031,0.46865845,-0.3073578,1.4558105,0.53430176,-0.7177272,-0.1825161,0.9649594
1570715670,1.1492157,8.962097,-1.9363098,-0.77394104,2.8044434,0.18276978,-1.6149707,0.021203995,-1.5375377
1570715670,4.1485596,8.491043,-0.9044037,-0.696167,2.2536926,-0.85054016,1.0278258,0.03766346,-2.2916715
1570715670,4.1485596,8.491043,-0.9044037,-0.696167,2.2536926,-0.85054016,1.0278258,0.03766346,-2.2916715
1570715670,3.9773712,8.12532,0.7978668,1.6026611,-0.9847107,-0.959198,1.5439599,-1.3484249,0.23968107
1570715670,3.9773712,8.12532,0.7978668,1.6026611,-0.9847107,-0.959198,1.5439599,-1.3484249,0.23968107
1570715670,2.143402,9.357132,1.1707611,0.92515564,-0.37643433,-0.3914032,0.9289628,0.5296879,1.1849961
1570715670,2.143402,9.357132,1.1707611,0.92515564,-0.37643433,-0.3914032,0.9289628,0.5296879,1.1849961
1570715670,3.0065155,9.754578,2.558197,-0.30522156,1.5271912,0.21899414,1.5230392,0.7669401,2.6523097
1570715670,-1.0109558,10.660187,1.9554596,-0.8272095,3.4798126,0.42245483,-1.8698907,1.5671501,2.1487472
1570715670,-0.101760864,11.2048645,-0.22984314,-0.42773438,2.9695587,0.95614624,-1.6860375,2.6131926,-0.9170057
1570715670,2.229599,10.216064,-5.509659,0.820755,1.2768555,1.17453,0.022304773,2.0075026,-5.6913714
1570715670,2.229599,10.216064,-5.509659,0.820755,1.2768555,1.17453,0.022304773,2.0075026,-5.6913714
1570715670,2.2996368,7.0575104,-0.22146606,-0.16461182,-0.47018433,-0.53414917,-0.20600867,-1.6447725,-1.0938265
1570715670,2.4768066,6.950363,0.15742493,-0.1635437,-0.4606018,-0.5884857,-0.20600867,-1.6447725,-1.0938265
1570715670,2.2266083,6.768402,12.388794,0.20716858,0.42144775,-0.99328613,-0.304502,-2.0813923,8.560041
1570715670,6.8438263,11.122269,5.89093,-0.50975037,0.42037964,-1.2489471,2.9664435,0.2976637,3.100621
1570715670,6.8438263,11.122269,5.89093,-0.50975037,0.42037964,-1.2489471,2.9664435,0.2976637,3.100621
1570715670,2.6904907,9.595963,-0.042495728,0.2646942,0.59614563,0.44589233,-3.2254498,-1.8331528,-1.5996978
1570715670,3.213623,9.860519,0.2633667,0.29345703,0.5343628,0.42564392,-3.2254498,-1.8331528,-1.5996978
1570715670,1.7962494,10.366898,2.4127502,0.947525,-0.056869507,0.23283386,0.30334735,0.8030758,1.0832056
1570715670,-0.42437744,8.097183,0.40342712,0.4905243,-0.40093994,-2.0361786,-0.8840345,0.53550434,-4.976917
1570715670,-0.03352356,8.12114,1.4018097,0.4042511,-0.26139832,-2.0510864,-1.027648,-0.7400389,-0.36247718
1570715670,0.30166626,8.253418,0.15681458,-0.17312622,0.77723694,-1.8561401,-0.17535801,-1.0007067,0.95750254
1570715670,-0.39624023,9.050674,0.5165558,0.18054199,1.2448883,-0.2891388,-0.22647825,0.3297577,1.083382
1570715670,-0.39624023,9.050674,0.5165558,0.18054199,1.2448883,-0.2891388,-0.22647825,0.3297577,1.083382
1570715670,-0.36271667,9.384079,0.36990356,0.25616455,0.7058716,-0.29873657,-0.039766073,0.23849583,0.25109535
1570715670,0.85054016,8.874115,0.24241638,0.43406677,0.0922699,-1.3714447,1.729672,-0.09850502,0.4567559
1570715670,0.809845,8.941147,0.2639618,0.44152832,0.07096863,-1.4279022,1.729672,-0.09850502,0.4567559
1570715670,-4.969757,8.672989,-1.5472565,0.31582642,0.39801025,-0.75146484,-2.586187,-0.08546066,-1.2679651
1570715670,-5.1613007,8.637085,-1.4616547,0.30303955,0.42889404,-0.59487915,-3.1561847,-0.15908813,-1.0558496
1570715671,-2.683899,12.026672,-1.7896729,0.42448425,0.53115845,1.7039642,-2.1301718,2.6920004,-0.4672752
1570715671,-2.683899,12.026672,-1.7896729,0.42448425,0.53115845,1.7039642,-2.1301718,2.6920004,-0.4672752
1570715671,0.47824097,8.675995,0.6673889,0.5331421,-0.120773315,1.1212616,0.5575174,0.15865993,1.7884287
1570715671,0.47824097,8.675995,0.6673889,0.5331421,-0.120773315,1.1212616,0.5575174,0.15865993,1.7884287
1570715671,-0.7374115,9.719864,-2.0997162,0.4777527,-0.22303772,0.81340027,-0.6046739,0.6242647,-0.84447503
1570715671,-0.6075287,9.719864,-2.0997162,0.4777527,-0.22303772,0.81340027,-0.6046739,0.6242647,-0.84447503
1570715671,0.58657837,8.20134,-1.2790985,0.79945374,1.0211792,1.6464386,-0.74047613,-1.992033,1.3635248
1570715671,0.84994507,8.5048065,-1.3144226,0.79733276,0.9711151,1.7614899,-0.01229921,-0.8619194,0.4936223
1570715671,2.9556427,8.938156,1.3617096,1.2404785,2.2707367,2.271759,1.4805826,0.18467426,3.587974
1570715671,2.8155823,9.037506,0.920578,1.2947998,2.3655548,2.2451172,1.4805826,0.18467426,3.587974
1570715671,3.85466,9.821014,-3.5081024,0.67907715,1.0904236,0.6909027,-0.5360887,1.0358391,-1.5340531
1570715671,4.09169,9.906601,-3.4901428,0.65138245,1.0446167,0.5886383,-0.5360887,1.0358391,-1.5340531
1570715671,1.8088226,7.6865845,-1.8106079,0.44898987,1.2832336,0.50553894,-1.0197494,-0.26137447,0.8477669
1570715671,1.8088226,7.6865845,-1.8106079,0.44898987,1.2832336,0.50553894,-1.0197494,-0.26137447,0.8477669
1570715671,4.6040497,11.117477,-4.6591187,0.17840576,1.7700653,0.44482422,0.30902696,2.8818922,-2.6612265
1570715671,4.950012,11.340134,-4.529236,0.18586731,1.7583466,0.39901733,0.30902696,2.8818922,-2.6612265
1570715671,5.77063,9.261963,-5.5336,1.3224945,3.2688904,-1.1850281,1.7118461,1.1839151,-3.0381951
1570715671,5.740097,9.190735,-5.8999176,1.3512573,3.1708832,-1.24469,1.7118461,1.1839151,-3.0381951
1570715671,2.723404,6.6397247,-4.7423096,1.5536652,0.921051,-1.5685272,-0.6980674,-1.430254,-2.813208
1570715671,2.723404,6.6397247,-4.7423096,1.5536652,0.921051,-1.5685272,-0.6980674,-1.430254,-2.813208
1570715671,6.6199646,6.6032104,0.4333496,1.0114441,6.1632233,-0.6832886,3.9236057,-1.6594124,4.620332
1570715671,6.6199646,6.6032104,0.4333496,1.0114441,6.1632233,-0.6832886,3.9236057,-1.6594124,4.620332
1570715671,3.32016,3.1854858,-3.095108,-0.7664795,2.213211,0.52685547,0.18443274,-4.5666437,-1.6524113
1570715671,2.9257202,2.819168,-2.8730469,-0.6983032,2.035324,0.5609436,0.18443274,-4.5666437,-1.6524113
1570715671,5.2558746,5.501877,-0.6793518,1.0977325,1.5612793,0.28823853,1.394923,-2.316751,0.77196014
1570715671,5.2558746,5.501877,-0.6793518,1.0977325,1.5612793,0.28823853,1.394923,-2.316751,0.77196014
1570715671,3.4656067,5.309738,-1.2509766,0.5672302,0.54714966,0.9636078,-2.187244,-3.0985465,1.2007384
1570715671,5.3534393,6.1100006,1.2785034,-0.25727844,1.6773834,0.15614319,1.3115373,-0.8062172,2.336429
1570715671,5.272629,5.8322754,1.5227051,-0.35742188,1.8872528,0.15400696,0.95393324,-1.3819709,2.7427378
1570715671,4.8362885,3.9767761,0.7254486,-1.3609009,3.8760986,0.69303894,0.2416296,-3.6605983,2.6159563
1570715671,2.6952667,4.380783,2.1362305,-4.00914,5.301422,1.2064972,-1.5494018,-2.7713442,1.903485
1570715671,4.6692963,4.64415,2.4995422,-3.5883636,4.1892853,1.2746735,-0.25912857,-2.061956,-0.34994006
1570715671,6.787567,6.041168,6.863571,-2.9992828,4.698471,1.366272,2.0691848,-0.060487747,2.464458
1570715672,6.787567,6.041168,6.863571,-2.9992828,4.698471,1.366272,2.0691848,-0.060487747,2.464458
1570715672,5.9819183,5.6736603,6.454773,-2.142807,3.8633118,0.62272644,2.4590213,0.40278816,0.29762316
1570715672,4.059372,4.2126007,9.152435,-1.7816772,3.2369385,0.38729858,1.0707054,-0.15348768,1.8336143
1570715672,3.2118225,3.4715881,9.340378,-1.633606,3.3125763,0.42991638,0.18860888,-1.1361113,2.6299005
1570715672,3.0053253,3.2567139,7.802109,-1.3981781,2.2877808,0.40434265,0.6876509,-1.0015273,0.02815628
1570715672,1.5370789,1.6651611,10.110718,-0.8144226,1.7828522,0.5321808,-0.420501,-2.1744714,2.3456378
1570715672,2.7533264,2.3780365,10.756546,-0.803772,1.6401062,0.4714508,0.9673313,-1.223866,2.3231325
1570715672,0.97683716,1.6496124,10.77211,-0.9220123,2.01828,0.2722473,0.16008592,-1.5986598,2.1985302
1570715672,0.8026581,1.6543884,10.683533,-0.89538574,1.9820557,0.27545166,-0.014928222,-1.6042347,2.4098663
1570715672,0.6356659,1.6041107,11.415558,-0.3201294,0.60679626,0.1572113,0.18099046,-1.3427966,2.9387798
1570715672,0.6356659,1.6041107,11.415558,-0.3201294,0.60679626,0.1572113,0.18099046,-1.3427966,2.9387798
1570715672,0.5817871,1.7100525,11.502945,0.058029175,0.2882843,0.0868988,0.54317343,-1.0726266,2.9009876
1570715672,0.5817871,1.7100525,11.502945,0.058029175,0.2882843,0.0868988,0.54317343,-1.0726266,2.9009876
1570715672,-0.4794464,1.8279724,9.707291,-0.7867279,1.8563538,0.55773926,-0.16320087,-0.7874346,1.082963
1570715672,-0.4794464,1.8279724,9.707291,-0.7867279,1.8563538,0.55773926,-0.16320087,-0.7874346,1.082963
1570715672,-1.1755524,0.19033813,12.1775055,-0.46287537,1.4813843,0.37025452,-0.054757178,-1.9421906,3.391161
1570715672,-1.1755524,0.19033813,12.1775055,-0.46287537,1.4813843,0.37025452,-0.054757178,-1.9421906,3.391161
1570715672,-1.1767426,0.20231628,10.892426,-0.8911133,4.1754303,1.4046326,-0.011853099,-2.6711063,2.8029718
1570715672,-1.1767426,0.20231628,10.892426,-0.8911133,4.1754303,1.4046326,-0.011853099,-2.6711063,2.8029718
1570715672,-1.1767426,0.20231628,10.892426,-0.8911133,4.1754303,1.4046326,-0.011853099,-2.6711063,2.8029718
1570715672,-1.1767426,0.20231628,10.892426,-0.8911133,4.1754303,1.4046326,-0.011853099,-2.6711063,2.8029718
1570715672,-1.1767426,0.20231628,10.892426,-0.8911133,4.1754303,1.4046326,-0.011853099,-2.6711063,2.8029718
1570715672,-1.1767426,0.20231628,10.892426,-0.8911133,4.1754303,1.4046326,-0.011853099,-2.6711063,2.8029718
1570715672,-8.18158,-3.4368744,9.976639,-1.3960571,1.2054749,-0.49899292,-5.4623036,-3.789858,10.231997
1570715672,-4.28862,-3.431488,19.612701,-1.0541077,2.0299835,-0.014297485,-4.8001604,-3.5668073,5.9022655
1570715672,-1.8704681,-2.3570862,10.231628,0.8441925,4.7847595,0.5236511,1.0090208,-3.0737765,7.8265066
1570715672,-1.8704681,-2.3570862,10.231628,0.8441925,4.7847595,0.5236511,1.0090208,-3.0737765,7.8265066
1570715672,-1.8704681,-2.3570862,10.231628,0.8441925,4.7847595,0.5236511,1.0090208,-3.0737765,7.8265066
1570715672,-1.8704681,-2.3570862,10.231628,0.8441925,4.7847595,0.5236511,1.0090208,-3.0737765,7.8265066
1570715672,0.65301514,2.0572205,10.480621,1.0551147,0.22969055,-0.26037598,1.5879997,-0.477458,1.7641163
1570715672,0.65301514,2.0572205,10.480621,1.0551147,0.22969055,-0.26037598,1.5879997,-0.477458,1.7641163
1570715672,0.1550293,3.087326,9.936539,0.9517822,0.10612488,-0.5096588,1.226943,0.5765083,1.2251778
1570715672,-0.18196106,2.9335022,9.917389,0.90704346,0.050735474,-0.52563477,1.1122168,0.4324932,1.1085501
1570715672,-0.18196106,2.9335022,9.917389,0.90704346,0.050735474,-0.52563477,1.1122168,0.4324932,1.1085501
1570715673,-0.18196106,2.9335022,9.917389,0.90704346,0.050735474,-0.52563477,1.1122168,0.4324932,1.1085501
1570715673,-1.3215942,1.9859924,9.363724,0.23806763,0.28295898,0.034698486,0.480224,-0.96406794,0.77905655
1570715673,-1.3215942,1.9859924,9.363724,0.23806763,0.28295898,0.034698486,0.480224,-0.96406794,0.77905655
1570715673,-1.2868805,1.7621307,9.68335,0.28599548,0.097595215,0.0048675537,0.44840324,-1.2448959,1.0021935
1570715673,-1.95607,2.6713257,8.644272,0.24978638,-0.23475647,-0.1559906,-0.16946352,-0.54329944,-0.0831728
1570715673,-1.95607,2.6713257,8.644272,0.24978638,-0.23475647,-0.1559906,-0.16946352,-0.54329944,-0.0831728
1570715673,-1.95607,2.6713257,8.644272,0.24978638,-0.23475647,-0.1559906,-0.16946352,-0.54329944,-0.0831728
1570715673,-1.95607,2.6713257,8.644272,0.24978638,-0.23475647,-0.1559906,-0.16946352,-0.54329944,-0.0831728
1570715673,-0.99658203,2.3104095,10.902603,-0.3946991,-0.32318115,0.23283386,0.8562181,-0.36056852,2.044714
1570715673,-0.71047974,1.7399902,11.336548,-0.1081543,-0.54582214,0.13270569,1.0922567,-0.77508616,2.5064688
1570715673,-1.411377,1.3521271,11.450272,0.09211731,-0.36366272,0.044281006,0.30949438,-1.2258971,2.7555275
1570715673,-1.8351593,1.4969788,10.67395,0.06867981,-0.109054565,0.09436035,-0.17852712,-1.1011908,1.9719667
1570715673,-1.8351593,1.4969788,10.67395,0.06867981,-0.109054565,0.09436035,-0.17852712,-1.1011908,1.9719667
1570715673,-1.8351593,1.4969788,10.67395,0.06867981,-0.109054565,0.09436035,-0.17852712,-1.1011908,1.9719667
1570715673,-1.8351593,1.4969788,10.67395,0.06867981,-0.109054565,0.09436035,-0.17852712,-1.1011908,1.9719667
1570715673,-1.0157471,1.9051819,10.27771,0.13366699,-0.1942749,-0.07928467,0.50350094,-0.67487884,1.5429268
1570715673,-0.8918457,1.9129639,10.311829,0.20184326,-0.25819397,-0.1048584,0.47923625,-0.7236879,1.3550987
1570715673,-0.72424316,1.9518738,10.261551,0.16989136,-0.06645203,-0.05265808,0.52315104,-0.77962375,1.4916782
1570715673,-0.72424316,1.9518738,10.261551,0.16989136,-0.06645203,-0.05265808,0.52315104,-0.77962375,1.4916782
1570715673,-0.72424316,1.9518738,10.261551,0.16989136,-0.06645203,-0.05265808,0.52315104,-0.77962375,1.4916782
1570715673,-0.72424316,1.9518738,10.261551,0.16989136,-0.06645203,-0.05265808,0.52315104,-0.77962375,1.4916782
1570715673,-0.72424316,1.9518738,10.261551,0.16989136,-0.06645203,-0.05265808,0.52315104,-0.77962375,1.4916782
1570715673,-1.2659302,1.5424652,10.387238,-0.20082092,0.17004395,-0.15065002,0.3124317,-1.0493553,1.0817757
1570715673,-1.2180481,1.6160889,10.691315,-0.15821838,0.2563324,-0.09313965,0.14685345,-0.9314792,1.7519703
1570715673,-1.2623444,1.4131775,10.481216,-0.051696777,0.30851746,-0.06970215,0.36306095,-1.0339413,1.6749744
1570715673,-1.2623444,1.4131775,10.481216,-0.051696777,0.30851746,-0.06970215,0.36306095,-1.0339413,1.6749744
1570715673,-1.2623444,1.4131775,10.481216,-0.051696777,0.30851746,-0.06970215,0.36306095,-1.0339413,1.6749744
1570715673,-1.4502869,2.0661926,9.780914,0.009033203,0.362854,-0.029220581,0.36306095,-1.0339413,1.6749744
1570715673,-1.4502869,2.0661926,9.780914,0.009033203,0.362854,-0.029220581,0.36306095,-1.0339413,1.6749744
1570715673,-1.3191986,1.9099731,10.242401,-0.22958374,0.3074646,-0.14320374,0.4618262,-1.0266144,1.3672781
1570715673,-1.3826447,1.7758942,9.906006,-0.11027527,0.123168945,-0.072891235,0.038526416,-0.9348464,0.9171295
1570715673,-1.1587982,2.0254974,10.190323,-0.027191162,-0.06752014,-0.053710938,0.20805848,-0.70384884,1.0021591
1570715673,-1.1587982,2.0254974,10.190323,-0.027191162,-0.06752014,-0.053710938,0.20805848,-0.70384884,1.0021591
1570715674,-1.1587982,2.0254974,10.190323,-0.027191162,-0.06752014,-0.053710938,0.20805848,-0.70384884,1.0021591
1570715674,-0.9708557,1.9219513,10.273514,-0.018661499,0.16365051,-0.06863403,0.4187299,-0.7170646,1.2734947
1570715674,-0.9708557,1.9219513,10.273514,-0.018661499,0.16365051,-0.06863403,0.4187299,-0.7170646,1.2734947
1570715674,-2.003952,0.96006775,10.115509,0.08786011,0.06564331,-0.026016235,-0.19460952,-0.48458648,1.2479239
1570715674,-1.324585,0.96006775,10.115509,0.08786011,0.06564331,-0.026016235,-0.19460952,-0.48458648,1.2479239
1570715674,-0.77212524,1.6077118,10.174164,0.09851074,0.043273926,-0.0015258789,-0.19460952,-0.48458648,1.2479239
1570715674,-0.77212524,1.6077118,10.174164,0.09851074,0.043273926,-0.0015258789,-0.19460952,-0.48458648,1.2479239
1570715674,-0.77212524,1.6077118,10.174164,0.09851074,0.043273926,-0.0015258789,-0.19460952,-0.48458648,1.2479239
1570715674,-1.1929169,2.2403717,10.376465,-0.24876404,0.052856445,-0.06437683,0.42449212,-0.30487227,1.1494999
1570715674,-1.241394,1.9207458,10.412979,-0.099624634,-0.085617065,-0.004714966,0.34006608,-0.5173447,1.3790922
1570715674,-1.4796143,1.7818909,9.959885,0.021820068,-0.17829895,0.05067444,0.11206913,-0.63897324,0.93660736
1570715674,-1.3353729,1.6382294,9.8246,-5.493164E-4,-0.19747925,0.09861755,0.14869106,-0.7903452,0.6203842
1570715674,-1.3353729,1.6382294,9.8246,-5.493164E-4,-0.19747925,0.09861755,0.14869106,-0.7903452,0.6203842
1570715674,-1.3353729,1.6382294,9.8246,-5.493164E-4,-0.19747925,0.09861755,0.14869106,-0.7903452,0.6203842
1570715674,-1.3353729,1.6382294,9.8246,-5.493164E-4,-0.19747925,0.09861755,0.14869106,-0.7903452,0.6203842
1570715674,-0.69252014,1.8866272,10.171768,0.20503235,-0.25286865,0.08583069,0.32248962,-0.74452066,1.1408739
1570715674,-0.80804443,1.6932983,10.090958,-0.010147095,-0.08668518,0.10926819,-0.075173736,-0.6287384,0.8686762
1570715674,-0.9109955,1.8866272,10.313629,-0.07406616,-0.036621094,0.051742554,0.10027039,-0.53346896,1.0876074
1570715674,-0.5985565,1.9285278,10.4105835,-0.088974,0.0038604736,0.07836914,0.36758006,-0.7003825,1.1792164
1570715674,-0.5985565,1.9285278,10.4105835,-0.088974,0.0038604736,0.07836914,0.36758006,-0.7003825,1.1792164
1570715674,-0.5985565,1.9285278,10.4105835,-0.088974,0.0038604736,0.07836914,0.36758006,-0.7003825,1.1792164
1570715674,-0.5985565,1.9285278,10.4105835,-0.088974,0.0038604736,0.07836914,0.36758006,-0.7003825,1.1792164
1570715674,-0.7972717,1.9177551,10.303452,0.12940979,-0.033432007,0.014465332,0.37425447,-0.67673874,0.9496279
1570715674,-0.7972717,1.9177551,10.303452,0.12940979,-0.033432007,0.014465332,0.37425447,-0.67673874,0.9496279
1570715674,-0.94451904,2.0374603,10.13884,0.08679199,0.0070495605,0.010192871,0.18647218,-0.5523062,0.9213686
1570715674,-0.94451904,2.0374603,10.13884,0.08679199,0.0070495605,0.010192871,0.18647218,-0.5523062,0.9213686
1570715674,-0.94451904,2.0374603,10.13884,0.08679199,0.0070495605,0.010192871,0.18647218,-0.5523062,0.9213686
1570715674,-0.94451904,2.0374603,10.13884,0.08679199,0.0070495605,0.010192871,0.18647218,-0.5523062,0.9213686
1570715674,-1.0031738,1.9416962,10.362701,0.062286377,0.1583252,-0.005783081,0.19682932,-0.54324317,1.0441294
1570715674,-1.0348969,1.9949646,10.239395,0.06123352,0.13168335,0.005935669,0.12730646,-0.5045903,0.7405615
1570715674,-0.972641,2.111679,10.122086,0.07507324,0.076293945,0.040023804,0.18827021,-0.32795095,0.57532024
1570715674,-1.0073547,2.1565704,10.133453,0.05696106,0.052856445,0.025115967,0.18289983,-0.28372145,0.5855017
1570715674,-1.0073547,2.1565704,10.133453,0.05696106,0.052856445,0.025115967,0.18289983,-0.28372145,0.5855017
1570715674,-1.0073547,2.1565704,10.133453,0.05696106,0.052856445,0.025115967,0.18289983,-0.28372145,0.5855017
1570715675,-1.0073547,2.1565704,10.133453,0.05696106,0.052856445,0.025115967,0.18289983,-0.28372145,0.5855017
1570715675,-1.0073547,2.1565704,10.133453,0.05696106,0.052856445,0.025115967,0.18289983,-0.28372145,0.5855017
1570715675,-1.0402832,1.987793,10.406998,-0.26794434,0.25952148,-0.021759033,0.23925424,-0.3394823,0.8006573
1570715675,-1.1833344,1.7519531,10.896011,-0.3488922,0.38201904,-0.0664978,0.24232852,-0.4355383,1.2250509
1570715675,-1.403595,1.6591797,10.582977,-0.28071594,0.32556152,-0.07714844,0.121153,-0.4394319,1.060873
1570715675,-1.403595,1.6591797,10.582977,-0.28071594,0.32556152,-0.07714844,0.121153,-0.4394319,1.060873
1570715675,-1.403595,1.6591797,10.582977,-0.28071594,0.32556152,-0.07714844,0.121153,-0.4394319,1.060873
1570715675,-1.403595,1.6591797,10.582977,-0.28071594,0.32556152,-0.07714844,0.121153,-0.4394319,1.060873
1570715675,-1.3796539,1.7447815,10.344742,0.16775513,0.016647339,-0.005783081,0.1295489,-0.29549718,0.61676407
1570715675,-1.2371979,1.8926239,10.120285,0.2828064,0.019836426,0.002746582,0.26764965,-0.30132556,0.4424181
1570715675,-1.3503265,1.9943695,9.74321,0.2593689,0.01876831,-0.013244629,0.14595056,-0.22683668,0.04019165
1570715675,-1.4628601,1.9572601,9.796478,0.21995544,0.012374878,-0.008972168,0.16873825,-0.2357192,0.0052576065
1570715675,-1.4628601,1.9572601,9.796478,0.21995544,0.012374878,-0.008972168,0.16873825,-0.2357192,0.0052576065
1570715675,-1.4628601,1.9572601,9.796478,0.21995544,0.012374878,-0.008972168,0.16873825,-0.2357192,0.0052576065
1570715675,-1.4628601,1.9572601,9.796478,0.21995544,0.012374878,-0.008972168,0.16873825,-0.2357192,0.0052576065
1570715675,-0.98461914,2.206253,10.587158,0.61517334,-0.045150757,-0.054779053,0.31508005,-0.3996706,0.99028015
1570715675,-0.79067993,2.3660736,10.758347,0.62475586,0.18920898,-0.053710938,0.5862839,-0.44170332,1.046813
1570715675,-1.4628601,2.561203,9.961075,0.49798584,0.5290375,-0.07928467,0.16253877,-0.39002228,0.5624018
1570715675,-1.4628601,2.561203,9.961075,0.49798584,0.5290375,-0.07928467,0.16253877,-0.39002228,0.5624018
1570715675,-1.4628601,2.561203,9.961075,0.49798584,0.5290375,-0.07928467,0.16253877,-0.39002228,0.5624018
1570715675,-1.4628601,2.561203,9.961075,0.49798584,0.5290375,-0.07928467,0.16253877,-0.39002228,0.5624018
1570715675,-1.4628601,2.561203,9.961075,0.49798584,0.5290375,-0.07928467,0.16253877,-0.39002228,0.5624018
1570715675,-1.6334381,2.7138214,9.9401245,-0.099624634,0.20306396,0.07518005,0.17267942,-0.40154696,0.57952785
1570715675,-2.0865479,2.8532867,8.567657,0.020751953,0.3585968,0.04748535,-0.16877556,-0.66721416,-0.13852978
1570715675,-1.8082275,3.4057465,9.733627,0.0058288574,-0.1303711,-0.008972168,0.106352925,-0.022116661,-0.2804184
1570715675,-1.8082275,3.4057465,9.733627,0.0058288574,-0.1303711,-0.008972168,0.106352925,-0.022116661,-0.2804184
1570715675,-1.8082275,3.4057465,9.733627,0.0058288574,-0.1303711,-0.008972168,0.106352925,-0.022116661,-0.2804184
1570715675,-1.8082275,3.4057465,9.733627,0.0058288574,-0.1303711,-0.008972168,0.106352925,-0.022116661,-0.2804184
1570715675,-1.806427,2.8173828,9.701904,0.08786011,-0.30293274,0.08369446,0.10830736,-0.12570953,0.26925564
1570715675,-1.3862457,2.977188,9.574417,-0.023986816,-0.10586548,0.09222412,0.46681106,-0.31039476,0.28255844
1570715675,-1.5646057,3.04422,9.577408,-0.2189331,0.026229858,0.04748535,0.30130076,-0.14888167,0.090055466
1570715675,-1.6226654,3.040039,9.533112,-0.24450684,0.039016724,0.032562256,0.24549139,-0.11211038,0.116900444
1570715675,-1.6226654,3.040039,9.533112,-0.24450684,0.039016724,0.032562256,0.24549139,-0.11211038,0.116900444
1570715676,-1.6226654,3.040039,9.533112,-0.24450684,0.039016724,0.032562256,0.24549139,-0.11211038,0.116900444
1570715676,-1.6226654,3.040039,9.533112,-0.24450684,0.039016724,0.032562256,0.24549139,-0.11211038,0.116900444
1570715676,-1.4927826,2.881424,10.02034,-0.016540527,-0.2326355,-0.070755005,0.10138905,-0.11229229,0.48976707
1570715676,-1.3215942,2.699463,9.667191,0.09425354,-0.41479492,-0.10058594,0.15125096,-0.34009027,0.28045464
1570715676,-1.1127014,2.8401184,9.6983185,0.016494751,-0.3657837,-0.11230469,0.23209858,-0.25465918,-0.017701149
1570715676,-1.1127014,2.8401184,9.6983185,0.016494751,-0.3657837,-0.11230469,0.23209858,-0.25465918,-0.017701149
1570715676,-1.1127014,2.8401184,9.6983185,0.016494751,-0.3657837,-0.11230469,0.23209858,-0.25465918,-0.017701149
1570715676,-1.1127014,2.8401184,9.6983185,0.016494751,-0.3657837,-0.11230469,0.23209858,-0.25465918,-0.017701149
1570715676,-1.1127014,2.8401184,9.6983185,0.016494751,-0.3657837,-0.11230469,0.23209858,-0.25465918,-0.017701149
1570715676,-1.3916321,2.9592285,9.932343,0.27748108,-0.009994507,0.04534912,0.09006393,-0.39292812,0.5779333
1570715676,-1.7675171,3.1519623,8.210922,0.14538574,0.27017212,0.06452942,-0.11777234,-0.43080974,-0.20770359
1570715676,-1.5586243,3.5937042,10.061035,-0.050628662,-0.17617798,0.027236938,-0.058254123,0.17151952,0.2554655
1570715676,-1.5586243,3.5937042,10.061035,-0.050628662,-0.17617798,0.027236938,-0.058254123,0.17151952,0.2554655
1570715676,-1.5586243,3.5937042,10.061035,-0.050628662,-0.17617798,0.027236938,-0.058254123,0.17151952,0.2554655
1570715676,-1.5586243,3.5937042,10.061035,-0.050628662,-0.17617798,0.027236938,-0.058254123,0.17151952,0.2554655
1570715676,-1.3527222,2.82695,9.972443,-0.0090789795,-0.05366516,0.0315094,0.2615739,-0.33026338,0.60958004
1570715676,-1.3946228,2.9251099,9.740814,-0.05381775,0.050735474,0.022979736,0.22664547,-0.23549438,0.25676155
1570715676,-1.4179688,2.8712463,9.913788,-0.09429932,0.08055115,0.007003784,0.17508662,-0.2872796,0.33980274
1570715676,-1.4814148,2.9089508,9.934738,-0.064468384,0.046463013,0.0048675537,0.16862643,-0.19564724,0.3691702
1570715676,-1.4814148,2.9089508,9.934738,-0.064468384,0.046463013,0.0048675537,0.16862643,-0.19564724,0.3691702
1570715676,-1.4814148,2.9089508,9.934738,-0.064468384,0.046463013,0.0048675537,0.16862643,-0.19564724,0.3691702
1570715676,-1.4814148,2.9089508,9.934738,-0.064468384,0.046463013,0.0048675537,0.16862643,-0.19564724,0.3691702
1570715676,-1.6555939,2.9741974,9.7222595,0.118759155,0.06564331,0.044281006,-0.066033006,-0.24889779,0.13533783
1570715676,-1.5520477,3.0508118,10.011948,0.09851074,-0.07710266,0.07836914,0.03222525,-0.20397353,0.42551994
1570715676,-1.5813751,2.992157,9.440338,0.18373108,-0.12716675,0.05706787,0.026335359,-0.29830885,0.02221489
1570715676,-1.735199,2.897583,9.327209,0.18693542,-0.10800171,0.044281006,-0.04928887,-0.34834194,-0.07460785
1570715676,-1.735199,2.897583,9.327209,0.18693542,-0.10800171,0.044281006,-0.04928887,-0.34834194,-0.07460785
